acc,accuracy,average_response_time,avg_rt,background,bidi,block,browser_codename,browser_name,browser_version,canvas_backend,clock_backend,color_backend,compensation,coordinates,correct,correct_keyboard_response,correct_response,count_ISI,count_break1,count_break_2,count_correct_feedback,count_credits,count_experiment,count_experimentLoop,count_fixation,count_incorrect_feedback,count_instructions1a,count_instructions1b,count_instructions2,count_keyboard_response,count_memory_set,count_new_logger,count_osweb,count_practiceLoop,count_practiceSequence,count_probe,count_thankYou,date_startdate,date_startdateUTC,date_starttime,datetime,description,disable_garbage_collection,experiment_debug,experiment_parameters,experiment_path,experiment_pilot,experiment_taskname,experiment_taskversion,font_bold,font_family,font_italic,font_size,font_underline,foreground,form_clicks,fullscreen,height,jatosStudyResultId,jatosVersion,keyboard_backend,mouse_backend,numberSet,opensesame_codename,opensesame_version,penwidth,posInSet,present,queryParams_batchId,queryParams_generalMultiple,repeat_cycle,response,response_break1,response_break_2,response_instructions1a,response_instructions1b,response_instructions2,response_keyboard_response,response_time,response_time_break1,response_time_break_2,response_time_instructions1a,response_time_instructions1b,response_time_instructions2,response_time_keyboard_response,round_decimals,sampler_backend,screen_availableHeight,screen_availableWidth,screen_colorDepth,screen_height,screen_pixelDepth,screen_screenX,screen_screenY,screen_width,sessionid,setSize,sound_buf_size,sound_channels,sound_freq,sound_sample_size,start,subject_nr,subject_parity,system_os,target,time_ISI,time_break1,time_break_2,time_correct_feedback,time_experimentLoop,time_fixation,time_incorrect_feedback,time_instructions1a,time_instructions1b,time_instructions2,time_keyboard_response,time_memory_set,time_new_logger,time_practiceLoop,time_probe,title,total_correct,total_response_time,total_responses,uniform_coordinates,width
100,100,753,753,black,no,practice,Mozilla,Netscape,"5.0 (Windows NT 10.0; Win64; x64) AppleWebKit/537.36 (KHTML, like Gecko) Chrome/94.0.4606.61 Safari/537.36",legacy,legacy,legacy,0,uniform,1,1,left,0,0,0,0,0,0,0,0,0,0,0,0,0,0,0,0,0,0,0,0,30-08-21,30-08-21,09:17:16,Thu Sep 30 2021 09:17:16 GMT+0200 (Centraleuropæisk sommertid),The main experiment item,yes,0,0,/Users/ethan/Documents/GitHub/OpenSesame/Sternberg/experiment_files,0,0,0,no,mono,no,18,no,white,no,no,768,100,3.6.1,legacy,legacy,5 7 8 4 1 2,osweb,1.4.0,1,0,n,37,,0,left,,,space,right,,left,753,,,9137,19169,,753,2,legacy,728,1366,24,768,24,0,0,1366,1632986294139,6,1024,2,48000,-16,experiment,0,even,Win32,6,30690,,,,80,28463,,80,9228,,32709,29474,33473,80,32707,Sternberg_updated,1,753,1,yes,1024
100,100,645,645,black,no,practice,Mozilla,Netscape,"5.0 (Windows NT 10.0; Win64; x64) AppleWebKit/537.36 (KHTML, like Gecko) Chrome/94.0.4606.61 Safari/537.36",legacy,legacy,legacy,0,uniform,1,1,left,1,1,1,1,0,0,0,1,1,0,0,0,1,1,1,0,0,1,1,0,30-08-21,30-08-21,09:17:16,Thu Sep 30 2021 09:17:16 GMT+0200 (Centraleuropæisk sommertid),The main experiment item,yes,0,0,/Users/ethan/Documents/GitHub/OpenSesame/Sternberg/experiment_files,0,0,0,no,mono,no,18,no,white,no,no,768,100,3.6.1,legacy,legacy,3 1 9 4,osweb,1.4.0,1,0,n,37,,0,left,,,space,right,,left,537,,,9137,19169,,537,2,legacy,728,1366,24,768,24,0,0,1366,1632986294139,4,1024,2,48000,-16,experiment,0,even,Win32,6,36739,,,33484,80,34511,,80,9228,,38755,35523,39305,80,38755,Sternberg_updated,2,1290,2,yes,1024
100,100,635,635,black,no,practice,Mozilla,Netscape,"5.0 (Windows NT 10.0; Win64; x64) AppleWebKit/537.36 (KHTML, like Gecko) Chrome/94.0.4606.61 Safari/537.36",legacy,legacy,legacy,0,uniform,1,1,right,2,2,2,2,0,0,0,2,2,0,0,0,2,2,2,0,0,2,2,0,30-08-21,30-08-21,09:17:16,Thu Sep 30 2021 09:17:16 GMT+0200 (Centraleuropæisk sommertid),The main experiment item,yes,0,0,/Users/ethan/Documents/GitHub/OpenSesame/Sternberg/experiment_files,0,0,0,no,mono,no,18,no,white,no,no,768,100,3.6.1,legacy,legacy,2 9 4,osweb,1.4.0,1,3,y,37,,0,right,,,space,right,,right,614,,,9137,19169,,614,2,legacy,728,1366,24,768,24,0,0,1366,1632986294139,3,1024,2,48000,-16,experiment,0,even,Win32,4,42571,,,39306,80,40351,,80,9228,,44588,41355,45204,80,44588,Sternberg_updated,3,1904,3,yes,1024
100,100,638,638,black,no,practice,Mozilla,Netscape,"5.0 (Windows NT 10.0; Win64; x64) AppleWebKit/537.36 (KHTML, like Gecko) Chrome/94.0.4606.61 Safari/537.36",legacy,legacy,legacy,0,uniform,1,1,left,3,3,3,3,0,0,0,3,3,0,0,0,3,3,3,0,0,3,3,0,30-08-21,30-08-21,09:17:16,Thu Sep 30 2021 09:17:16 GMT+0200 (Centraleuropæisk sommertid),The main experiment item,yes,0,0,/Users/ethan/Documents/GitHub/OpenSesame/Sternberg/experiment_files,0,0,0,no,mono,no,18,no,white,no,no,768,100,3.6.1,legacy,legacy,5,osweb,1.4.0,1,0,n,37,,0,left,,,space,right,,left,646,,,9137,19169,,646,2,legacy,728,1366,24,768,24,0,0,1366,1632986294139,1,1024,2,48000,-16,experiment,0,even,Win32,3,48470,,,45205,80,46243,,80,9228,,50487,47254,51136,80,50487,Sternberg_updated,4,2550,4,yes,1024
80,80,664,664,black,no,practice,Mozilla,Netscape,"5.0 (Windows NT 10.0; Win64; x64) AppleWebKit/537.36 (KHTML, like Gecko) Chrome/94.0.4606.61 Safari/537.36",legacy,legacy,legacy,0,uniform,0,0,left,4,4,4,4,0,0,0,4,4,0,0,0,4,4,4,0,0,4,4,0,30-08-21,30-08-21,09:17:16,Thu Sep 30 2021 09:17:16 GMT+0200 (Centraleuropæisk sommertid),The main experiment item,yes,0,0,/Users/ethan/Documents/GitHub/OpenSesame/Sternberg/experiment_files,0,0,0,no,mono,no,18,no,white,no,no,768,100,3.6.1,legacy,legacy,2 1,osweb,1.4.0,1,0,n,37,,0,right,,,space,right,,right,768,,,9137,19169,,768,2,legacy,728,1366,24,768,24,0,0,1366,1632986294139,2,1024,2,48000,-16,experiment,0,even,Win32,5,54402,,,51137,80,52175,,80,9228,,56419,53186,57202,80,56419,Sternberg_updated,4,3318,5,yes,1024
83,83,697,697,black,no,practice,Mozilla,Netscape,"5.0 (Windows NT 10.0; Win64; x64) AppleWebKit/537.36 (KHTML, like Gecko) Chrome/94.0.4606.61 Safari/537.36",legacy,legacy,legacy,0,uniform,1,1,right,5,5,5,5,0,0,0,5,5,0,0,0,5,5,5,0,0,5,5,0,30-08-21,30-08-21,09:17:16,Thu Sep 30 2021 09:17:16 GMT+0200 (Centraleuropæisk sommertid),The main experiment item,yes,0,0,/Users/ethan/Documents/GitHub/OpenSesame/Sternberg/experiment_files,0,0,0,no,mono,no,18,no,white,no,no,768,100,3.6.1,legacy,legacy,1 7 9 8 5,osweb,1.4.0,1,4,y,37,,0,right,,,space,right,,right,865,,,9137,19169,,865,2,legacy,728,1366,24,768,24,0,0,1366,1632986294139,5,1024,2,48000,-16,experiment,0,even,Win32,8,60468,,,51137,80,58238,57203,80,9228,,62485,59252,63351,80,62485,Sternberg_updated,5,4183,6,yes,1024
71,71,668,668,black,no,practice,Mozilla,Netscape,"5.0 (Windows NT 10.0; Win64; x64) AppleWebKit/537.36 (KHTML, like Gecko) Chrome/94.0.4606.61 Safari/537.36",legacy,legacy,legacy,0,uniform,0,0,right,6,6,6,6,0,0,0,6,6,0,0,0,6,6,6,0,0,6,6,0,30-08-21,30-08-21,09:17:16,Thu Sep 30 2021 09:17:16 GMT+0200 (Centraleuropæisk sommertid),The main experiment item,yes,0,0,/Users/ethan/Documents/GitHub/OpenSesame/Sternberg/experiment_files,0,0,0,no,mono,no,18,no,white,no,no,768,100,3.6.1,legacy,legacy,4 8,osweb,1.4.0,1,1,y,37,,0,left,,,space,right,,left,493,,,9137,19169,,493,2,legacy,728,1366,24,768,24,0,0,1366,1632986294139,2,1024,2,48000,-16,experiment,0,even,Win32,4,66617,,,63352,80,64388,57203,80,9228,,68633,65401,69133,80,68633,Sternberg_updated,5,4676,7,yes,1024
75,75,631,631,black,no,practice,Mozilla,Netscape,"5.0 (Windows NT 10.0; Win64; x64) AppleWebKit/537.36 (KHTML, like Gecko) Chrome/94.0.4606.61 Safari/537.36",legacy,legacy,legacy,0,uniform,1,1,right,7,7,7,7,0,0,0,7,7,0,0,0,7,7,7,0,0,7,7,0,30-08-21,30-08-21,09:17:16,Thu Sep 30 2021 09:17:16 GMT+0200 (Centraleuropæisk sommertid),The main experiment item,yes,0,0,/Users/ethan/Documents/GitHub/OpenSesame/Sternberg/experiment_files,0,0,0,no,mono,no,18,no,white,no,no,768,100,3.6.1,legacy,legacy,6,osweb,1.4.0,1,1,y,37,,0,right,,,space,right,,right,369,,,9137,19169,,369,2,legacy,728,1366,24,768,24,0,0,1366,1632986294139,1,1024,2,48000,-16,experiment,0,even,Win32,6,72399,,,63352,80,70170,69134,80,9228,,74416,71183,74798,80,74416,Sternberg_updated,6,5045,8,yes,1024
78,78,650,650,black,no,practice,Mozilla,Netscape,"5.0 (Windows NT 10.0; Win64; x64) AppleWebKit/537.36 (KHTML, like Gecko) Chrome/94.0.4606.61 Safari/537.36",legacy,legacy,legacy,0,uniform,1,1,left,8,8,8,8,0,0,0,8,8,0,0,0,8,8,8,0,0,8,8,0,30-08-21,30-08-21,09:17:16,Thu Sep 30 2021 09:17:16 GMT+0200 (Centraleuropæisk sommertid),The main experiment item,yes,0,0,/Users/ethan/Documents/GitHub/OpenSesame/Sternberg/experiment_files,0,0,0,no,mono,no,18,no,white,no,no,768,100,3.6.1,legacy,legacy,9 6 7 4 5,osweb,1.4.0,1,0,n,37,,0,left,,,space,right,,left,808,,,9137,19169,,808,2,legacy,728,1366,24,768,24,0,0,1366,1632986294139,5,1024,2,48000,-16,experiment,0,even,Win32,3,78065,,,74799,80,75836,69134,80,9228,,80082,76849,80897,80,80081,Sternberg_updated,7,5853,9,yes,1024
80,80,652,652,black,no,practice,Mozilla,Netscape,"5.0 (Windows NT 10.0; Win64; x64) AppleWebKit/537.36 (KHTML, like Gecko) Chrome/94.0.4606.61 Safari/537.36",legacy,legacy,legacy,0,uniform,1,1,right,9,9,9,9,0,0,0,9,9,0,0,0,9,9,9,0,0,9,9,0,30-08-21,30-08-21,09:17:16,Thu Sep 30 2021 09:17:16 GMT+0200 (Centraleuropæisk sommertid),The main experiment item,yes,0,0,/Users/ethan/Documents/GitHub/OpenSesame/Sternberg/experiment_files,0,0,0,no,mono,no,18,no,white,no,no,768,100,3.6.1,legacy,legacy,4 3 1 7 9 8,osweb,1.4.0,1,1,y,37,,0,right,,,space,right,,right,667,,,9137,19169,,667,2,legacy,728,1366,24,768,24,0,0,1366,1632986294139,6,1024,2,48000,-16,experiment,0,even,Win32,4,84164,,,80900,80,81935,69134,80,9228,,86180,82948,86863,80,86180,Sternberg_updated,8,6520,10,yes,1024
82,82,646,646,black,no,practice,Mozilla,Netscape,"5.0 (Windows NT 10.0; Win64; x64) AppleWebKit/537.36 (KHTML, like Gecko) Chrome/94.0.4606.61 Safari/537.36",legacy,legacy,legacy,0,uniform,1,1,left,10,10,10,10,0,0,0,10,10,0,0,0,10,10,10,0,0,10,10,0,30-08-21,30-08-21,09:17:16,Thu Sep 30 2021 09:17:16 GMT+0200 (Centraleuropæisk sommertid),The main experiment item,yes,0,0,/Users/ethan/Documents/GitHub/OpenSesame/Sternberg/experiment_files,0,0,0,no,mono,no,18,no,white,no,no,768,100,3.6.1,legacy,legacy,4 1 5,osweb,1.4.0,1,0,n,37,,0,left,,,space,right,,left,585,,,9137,19169,,585,2,legacy,728,1366,24,768,24,0,0,1366,1632986294139,3,1024,2,48000,-16,experiment,0,even,Win32,2,90129,,,86866,80,87900,69134,80,9228,,92146,88913,92745,80,92146,Sternberg_updated,9,7105,11,yes,1024
83,83,649,649,black,no,practice,Mozilla,Netscape,"5.0 (Windows NT 10.0; Win64; x64) AppleWebKit/537.36 (KHTML, like Gecko) Chrome/94.0.4606.61 Safari/537.36",legacy,legacy,legacy,0,uniform,1,1,right,11,11,11,11,0,0,0,11,11,0,0,0,11,11,11,0,0,11,11,0,30-08-21,30-08-21,09:17:16,Thu Sep 30 2021 09:17:16 GMT+0200 (Centraleuropæisk sommertid),The main experiment item,yes,0,0,/Users/ethan/Documents/GitHub/OpenSesame/Sternberg/experiment_files,0,0,0,no,mono,no,18,no,white,no,no,768,100,3.6.1,legacy,legacy,1 5 2 9,osweb,1.4.0,1,2,y,37,,0,right,,,space,right,,right,687,,,9137,19169,,687,2,legacy,728,1366,24,768,24,0,0,1366,1632986294139,4,1024,2,48000,-16,experiment,0,even,Win32,5,96012,,,92746,80,93780,69134,80,9228,,98028,94795,98728,80,98028,Sternberg_updated,10,7792,12,yes,1024
85,85,645,645,black,no,experiment,Mozilla,Netscape,"5.0 (Windows NT 10.0; Win64; x64) AppleWebKit/537.36 (KHTML, like Gecko) Chrome/94.0.4606.61 Safari/537.36",legacy,legacy,legacy,0,uniform,1,1,left,12,12,12,12,0,0,0,12,12,0,0,0,12,12,12,0,0,12,12,0,30-08-21,30-08-21,09:17:16,Thu Sep 30 2021 09:17:16 GMT+0200 (Centraleuropæisk sommertid),The main experiment item,yes,0,0,/Users/ethan/Documents/GitHub/OpenSesame/Sternberg/experiment_files,0,0,0,no,mono,no,18,no,white,no,no,768,100,3.6.1,legacy,legacy,7 3 2 8,osweb,1.4.0,1,0,n,37,,0,left,,,space,right,right,left,587,,,9137,19169,34400,587,2,legacy,728,1366,24,768,24,0,0,1366,1632986294139,4,1024,2,48000,-16,experiment,0,even,Win32,4,136404,,,98729,80,134179,69134,80,9228,99746,138421,135188,139020,80,138421,Sternberg_updated,11,8379,13,yes,1024
86,86,629,629,black,no,experiment,Mozilla,Netscape,"5.0 (Windows NT 10.0; Win64; x64) AppleWebKit/537.36 (KHTML, like Gecko) Chrome/94.0.4606.61 Safari/537.36",legacy,legacy,legacy,0,uniform,1,1,right,13,13,13,13,0,0,0,13,13,0,0,0,13,13,13,0,0,13,13,0,30-08-21,30-08-21,09:17:16,Thu Sep 30 2021 09:17:16 GMT+0200 (Centraleuropæisk sommertid),The main experiment item,yes,0,0,/Users/ethan/Documents/GitHub/OpenSesame/Sternberg/experiment_files,0,0,0,no,mono,no,18,no,white,no,no,768,100,3.6.1,legacy,legacy,4 1 5,osweb,1.4.0,1,2,y,37,,0,right,,,space,right,right,right,421,,,9137,19169,34400,421,2,legacy,728,1366,24,768,24,0,0,1366,1632986294139,3,1024,2,48000,-16,experiment,0,even,Win32,1,142287,,,139021,80,140061,69134,80,9228,99746,144303,141071,144736,80,144303,Sternberg_updated,12,8800,14,yes,1024
87,87,614,614,black,no,experiment,Mozilla,Netscape,"5.0 (Windows NT 10.0; Win64; x64) AppleWebKit/537.36 (KHTML, like Gecko) Chrome/94.0.4606.61 Safari/537.36",legacy,legacy,legacy,0,uniform,1,1,left,14,14,14,14,0,0,0,14,14,0,0,0,14,14,14,0,0,14,14,0,30-08-21,30-08-21,09:17:16,Thu Sep 30 2021 09:17:16 GMT+0200 (Centraleuropæisk sommertid),The main experiment item,yes,0,0,/Users/ethan/Documents/GitHub/OpenSesame/Sternberg/experiment_files,0,0,0,no,mono,no,18,no,white,no,no,768,100,3.6.1,legacy,legacy,6 8,osweb,1.4.0,1,0,n,37,,0,left,,,space,right,right,left,407,,,9137,19169,34400,407,2,legacy,728,1366,24,768,24,0,0,1366,1632986294139,2,1024,2,48000,-16,experiment,0,even,Win32,9,148003,,,144737,80,145771,69134,80,9228,99746,150019,146786,150435,80,150019,Sternberg_updated,13,9207,15,yes,1024
88,88,608,608,black,no,experiment,Mozilla,Netscape,"5.0 (Windows NT 10.0; Win64; x64) AppleWebKit/537.36 (KHTML, like Gecko) Chrome/94.0.4606.61 Safari/537.36",legacy,legacy,legacy,0,uniform,1,1,right,15,15,15,15,0,0,0,15,15,0,0,0,15,15,15,0,0,15,15,0,30-08-21,30-08-21,09:17:16,Thu Sep 30 2021 09:17:16 GMT+0200 (Centraleuropæisk sommertid),The main experiment item,yes,0,0,/Users/ethan/Documents/GitHub/OpenSesame/Sternberg/experiment_files,0,0,0,no,mono,no,18,no,white,no,no,768,100,3.6.1,legacy,legacy,8 9 6 1,osweb,1.4.0,1,2,y,37,,0,right,,,space,right,right,right,523,,,9137,19169,34400,523,2,legacy,728,1366,24,768,24,0,0,1366,1632986294139,4,1024,2,48000,-16,experiment,0,even,Win32,9,153701,,,150436,80,151472,69134,80,9228,99746,155718,152485,156251,80,155718,Sternberg_updated,14,9730,16,yes,1024
88,88,607,607,black,no,experiment,Mozilla,Netscape,"5.0 (Windows NT 10.0; Win64; x64) AppleWebKit/537.36 (KHTML, like Gecko) Chrome/94.0.4606.61 Safari/537.36",legacy,legacy,legacy,0,uniform,1,1,left,16,16,16,16,0,0,0,16,16,0,0,0,16,16,16,0,0,16,16,0,30-08-21,30-08-21,09:17:16,Thu Sep 30 2021 09:17:16 GMT+0200 (Centraleuropæisk sommertid),The main experiment item,yes,0,0,/Users/ethan/Documents/GitHub/OpenSesame/Sternberg/experiment_files,0,0,0,no,mono,no,18,no,white,no,no,768,100,3.6.1,legacy,legacy,6 9 4 5 3 2,osweb,1.4.0,1,0,n,37,,0,left,,,space,right,right,left,581,,,9137,19169,34400,581,2,legacy,728,1366,24,768,24,0,0,1366,1632986294139,6,1024,2,48000,-16,experiment,0,even,Win32,8,159517,,,156252,80,157294,69134,80,9228,99746,161534,158301,162116,80,161534,Sternberg_updated,15,10311,17,yes,1024
89,89,602,602,black,no,experiment,Mozilla,Netscape,"5.0 (Windows NT 10.0; Win64; x64) AppleWebKit/537.36 (KHTML, like Gecko) Chrome/94.0.4606.61 Safari/537.36",legacy,legacy,legacy,0,uniform,1,1,right,17,17,17,17,0,0,0,17,17,0,0,0,17,17,17,0,0,17,17,0,30-08-21,30-08-21,09:17:16,Thu Sep 30 2021 09:17:16 GMT+0200 (Centraleuropæisk sommertid),The main experiment item,yes,0,0,/Users/ethan/Documents/GitHub/OpenSesame/Sternberg/experiment_files,0,0,0,no,mono,no,18,no,white,no,no,768,100,3.6.1,legacy,legacy,6 7 8 5,osweb,1.4.0,1,3,y,37,,0,right,,,space,right,right,right,516,,,9137,19169,34400,516,2,legacy,728,1366,24,768,24,0,0,1366,1632986294139,4,1024,2,48000,-16,experiment,0,even,Win32,8,165383,,,162117,80,163152,69134,80,9228,99746,167399,164166,167916,80,167399,Sternberg_updated,16,10827,18,yes,1024
89,89,591,591,black,no,experiment,Mozilla,Netscape,"5.0 (Windows NT 10.0; Win64; x64) AppleWebKit/537.36 (KHTML, like Gecko) Chrome/94.0.4606.61 Safari/537.36",legacy,legacy,legacy,0,uniform,1,1,left,18,18,18,18,0,0,0,18,18,0,0,0,18,18,18,0,0,18,18,0,30-08-21,30-08-21,09:17:16,Thu Sep 30 2021 09:17:16 GMT+0200 (Centraleuropæisk sommertid),The main experiment item,yes,0,0,/Users/ethan/Documents/GitHub/OpenSesame/Sternberg/experiment_files,0,0,0,no,mono,no,18,no,white,no,no,768,100,3.6.1,legacy,legacy,4 1,osweb,1.4.0,1,0,n,37,,0,left,,,space,right,right,left,409,,,9137,19169,34400,409,2,legacy,728,1366,24,768,24,0,0,1366,1632986294139,2,1024,2,48000,-16,experiment,0,even,Win32,6,171182,,,167917,80,168955,69134,80,9228,99746,173199,169966,173614,80,173199,Sternberg_updated,17,11236,19,yes,1024
90,90,586,586,black,no,experiment,Mozilla,Netscape,"5.0 (Windows NT 10.0; Win64; x64) AppleWebKit/537.36 (KHTML, like Gecko) Chrome/94.0.4606.61 Safari/537.36",legacy,legacy,legacy,0,uniform,1,1,right,19,19,19,19,0,0,0,19,19,0,0,0,19,19,19,0,0,19,19,0,30-08-21,30-08-21,09:17:16,Thu Sep 30 2021 09:17:16 GMT+0200 (Centraleuropæisk sommertid),The main experiment item,yes,0,0,/Users/ethan/Documents/GitHub/OpenSesame/Sternberg/experiment_files,0,0,0,no,mono,no,18,no,white,no,no,768,100,3.6.1,legacy,legacy,1 4 9 3 2 5,osweb,1.4.0,1,3,y,37,,0,right,,,space,right,right,right,476,,,9137,19169,34400,476,2,legacy,728,1366,24,768,24,0,0,1366,1632986294139,6,1024,2,48000,-16,experiment,0,even,Win32,9,176881,,,173616,80,174651,69134,80,9228,99746,178897,175665,179380,80,178897,Sternberg_updated,18,11712,20,yes,1024
90,90,578,578,black,no,experiment,Mozilla,Netscape,"5.0 (Windows NT 10.0; Win64; x64) AppleWebKit/537.36 (KHTML, like Gecko) Chrome/94.0.4606.61 Safari/537.36",legacy,legacy,legacy,0,uniform,1,1,right,20,20,20,20,0,0,0,20,20,0,0,0,20,20,20,0,0,20,20,0,30-08-21,30-08-21,09:17:16,Thu Sep 30 2021 09:17:16 GMT+0200 (Centraleuropæisk sommertid),The main experiment item,yes,0,0,/Users/ethan/Documents/GitHub/OpenSesame/Sternberg/experiment_files,0,0,0,no,mono,no,18,no,white,no,no,768,100,3.6.1,legacy,legacy,2 3,osweb,1.4.0,1,1,y,37,,0,right,,,space,right,right,right,416,,,9137,19169,34400,416,2,legacy,728,1366,24,768,24,0,0,1366,1632986294139,2,1024,2,48000,-16,experiment,0,even,Win32,2,182646,,,179381,80,180419,69134,80,9228,99746,184663,181430,185096,80,184663,Sternberg_updated,19,12128,21,yes,1024
91,91,574,574,black,no,experiment,Mozilla,Netscape,"5.0 (Windows NT 10.0; Win64; x64) AppleWebKit/537.36 (KHTML, like Gecko) Chrome/94.0.4606.61 Safari/537.36",legacy,legacy,legacy,0,uniform,1,1,left,21,21,21,21,0,0,0,21,21,0,0,0,21,21,21,0,0,21,21,0,30-08-21,30-08-21,09:17:16,Thu Sep 30 2021 09:17:16 GMT+0200 (Centraleuropæisk sommertid),The main experiment item,yes,0,0,/Users/ethan/Documents/GitHub/OpenSesame/Sternberg/experiment_files,0,0,0,no,mono,no,18,no,white,no,no,768,100,3.6.1,legacy,legacy,2 8 6 3 1,osweb,1.4.0,1,0,n,37,,0,left,,,space,right,right,left,496,,,9137,19169,34400,496,2,legacy,728,1366,24,768,24,0,0,1366,1632986294139,5,1024,2,48000,-16,experiment,0,even,Win32,7,188362,,,185098,80,186133,69134,80,9228,99746,190379,187146,190878,80,190378,Sternberg_updated,20,12624,22,yes,1024
91,91,572,572,black,no,experiment,Mozilla,Netscape,"5.0 (Windows NT 10.0; Win64; x64) AppleWebKit/537.36 (KHTML, like Gecko) Chrome/94.0.4606.61 Safari/537.36",legacy,legacy,legacy,0,uniform,1,1,left,22,22,22,22,0,0,0,22,22,0,0,0,22,22,22,0,0,22,22,0,30-08-21,30-08-21,09:17:16,Thu Sep 30 2021 09:17:16 GMT+0200 (Centraleuropæisk sommertid),The main experiment item,yes,0,0,/Users/ethan/Documents/GitHub/OpenSesame/Sternberg/experiment_files,0,0,0,no,mono,no,18,no,white,no,no,768,100,3.6.1,legacy,legacy,2 7 5,osweb,1.4.0,1,0,n,37,,0,left,,,space,right,right,left,537,,,9137,19169,34400,537,2,legacy,728,1366,24,768,24,0,0,1366,1632986294139,3,1024,2,48000,-16,experiment,0,even,Win32,8,194144,,,190879,80,191916,69134,80,9228,99746,196161,192928,196710,80,196161,Sternberg_updated,21,13161,23,yes,1024
92,92,569,569,black,no,experiment,Mozilla,Netscape,"5.0 (Windows NT 10.0; Win64; x64) AppleWebKit/537.36 (KHTML, like Gecko) Chrome/94.0.4606.61 Safari/537.36",legacy,legacy,legacy,0,uniform,1,1,left,23,23,23,23,0,0,0,23,23,0,0,0,23,23,23,0,0,23,23,0,30-08-21,30-08-21,09:17:16,Thu Sep 30 2021 09:17:16 GMT+0200 (Centraleuropæisk sommertid),The main experiment item,yes,0,0,/Users/ethan/Documents/GitHub/OpenSesame/Sternberg/experiment_files,0,0,0,no,mono,no,18,no,white,no,no,768,100,3.6.1,legacy,legacy,9 8 2 7 4,osweb,1.4.0,1,0,n,37,,0,left,,,space,right,right,left,503,,,9137,19169,34400,503,2,legacy,728,1366,24,768,24,0,0,1366,1632986294139,5,1024,2,48000,-16,experiment,0,even,Win32,5,199977,,,196712,80,197754,69134,80,9228,99746,201993,198760,202509,80,201993,Sternberg_updated,22,13664,24,yes,1024
92,92,568,568,black,no,experiment,Mozilla,Netscape,"5.0 (Windows NT 10.0; Win64; x64) AppleWebKit/537.36 (KHTML, like Gecko) Chrome/94.0.4606.61 Safari/537.36",legacy,legacy,legacy,0,uniform,1,1,left,24,24,24,24,0,0,0,24,24,0,0,0,24,24,24,0,0,24,24,0,30-08-21,30-08-21,09:17:16,Thu Sep 30 2021 09:17:16 GMT+0200 (Centraleuropæisk sommertid),The main experiment item,yes,0,0,/Users/ethan/Documents/GitHub/OpenSesame/Sternberg/experiment_files,0,0,0,no,mono,no,18,no,white,no,no,768,100,3.6.1,legacy,legacy,1 4 9 2 5,osweb,1.4.0,1,0,n,37,,0,left,,,space,right,right,left,546,,,9137,19169,34400,546,2,legacy,728,1366,24,768,24,0,0,1366,1632986294139,5,1024,2,48000,-16,experiment,0,even,Win32,7,205776,,,202510,80,203546,69134,80,9228,99746,207792,204560,208342,80,207792,Sternberg_updated,23,14210,25,yes,1024
92,92,573,573,black,no,experiment,Mozilla,Netscape,"5.0 (Windows NT 10.0; Win64; x64) AppleWebKit/537.36 (KHTML, like Gecko) Chrome/94.0.4606.61 Safari/537.36",legacy,legacy,legacy,0,uniform,1,1,left,25,25,25,25,0,0,0,25,25,0,0,0,25,25,25,0,0,25,25,0,30-08-21,30-08-21,09:17:16,Thu Sep 30 2021 09:17:16 GMT+0200 (Centraleuropæisk sommertid),The main experiment item,yes,0,0,/Users/ethan/Documents/GitHub/OpenSesame/Sternberg/experiment_files,0,0,0,no,mono,no,18,no,white,no,no,768,100,3.6.1,legacy,legacy,7 4 2 8 1 9,osweb,1.4.0,1,0,n,37,,0,left,,,space,right,right,left,690,,,9137,19169,34400,690,2,legacy,728,1366,24,768,24,0,0,1366,1632986294139,6,1024,2,48000,-16,experiment,0,even,Win32,5,211608,,,208343,80,209376,69134,80,9228,99746,213624,210392,214324,80,213624,Sternberg_updated,24,14900,26,yes,1024
93,93,573,573,black,no,experiment,Mozilla,Netscape,"5.0 (Windows NT 10.0; Win64; x64) AppleWebKit/537.36 (KHTML, like Gecko) Chrome/94.0.4606.61 Safari/537.36",legacy,legacy,legacy,0,uniform,1,1,right,26,26,26,26,0,0,0,26,26,0,0,0,26,26,26,0,0,26,26,0,30-08-21,30-08-21,09:17:16,Thu Sep 30 2021 09:17:16 GMT+0200 (Centraleuropæisk sommertid),The main experiment item,yes,0,0,/Users/ethan/Documents/GitHub/OpenSesame/Sternberg/experiment_files,0,0,0,no,mono,no,18,no,white,no,no,768,100,3.6.1,legacy,legacy,3 5 7 1,osweb,1.4.0,1,3,y,37,,0,right,,,space,right,right,right,560,,,9137,19169,34400,560,2,legacy,728,1366,24,768,24,0,0,1366,1632986294139,4,1024,2,48000,-16,experiment,0,even,Win32,7,217590,,,214325,80,215361,69134,80,9228,99746,219607,216374,220173,80,219607,Sternberg_updated,25,15460,27,yes,1024
89,89,568,568,black,no,experiment,Mozilla,Netscape,"5.0 (Windows NT 10.0; Win64; x64) AppleWebKit/537.36 (KHTML, like Gecko) Chrome/94.0.4606.61 Safari/537.36",legacy,legacy,legacy,0,uniform,0,0,right,27,27,27,27,0,0,0,27,27,0,0,0,27,27,27,0,0,27,27,0,30-08-21,30-08-21,09:17:16,Thu Sep 30 2021 09:17:16 GMT+0200 (Centraleuropæisk sommertid),The main experiment item,yes,0,0,/Users/ethan/Documents/GitHub/OpenSesame/Sternberg/experiment_files,0,0,0,no,mono,no,18,no,white,no,no,768,100,3.6.1,legacy,legacy,9 1 7 2,osweb,1.4.0,1,2,y,37,,0,left,,,space,right,right,left,453,,,9137,19169,34400,453,2,legacy,728,1366,24,768,24,0,0,1366,1632986294139,4,1024,2,48000,-16,experiment,0,even,Win32,1,223439,,,220174,80,221212,69134,80,9228,99746,225456,222223,225922,80,225456,Sternberg_updated,25,15913,28,yes,1024
90,90,567,567,black,no,experiment,Mozilla,Netscape,"5.0 (Windows NT 10.0; Win64; x64) AppleWebKit/537.36 (KHTML, like Gecko) Chrome/94.0.4606.61 Safari/537.36",legacy,legacy,legacy,0,uniform,1,1,left,28,28,28,28,0,0,0,28,28,0,0,0,28,28,28,0,0,28,28,0,30-08-21,30-08-21,09:17:16,Thu Sep 30 2021 09:17:16 GMT+0200 (Centraleuropæisk sommertid),The main experiment item,yes,0,0,/Users/ethan/Documents/GitHub/OpenSesame/Sternberg/experiment_files,0,0,0,no,mono,no,18,no,white,no,no,768,100,3.6.1,legacy,legacy,4 2 6 9,osweb,1.4.0,1,0,n,37,,0,left,,,space,right,right,left,526,,,9137,19169,34400,526,2,legacy,728,1366,24,768,24,0,0,1366,1632986294139,4,1024,2,48000,-16,experiment,0,even,Win32,7,229188,,,220174,80,226968,225923,80,9228,99746,231205,227972,231738,80,231205,Sternberg_updated,26,16439,29,yes,1024
90,90,568,568,black,no,experiment,Mozilla,Netscape,"5.0 (Windows NT 10.0; Win64; x64) AppleWebKit/537.36 (KHTML, like Gecko) Chrome/94.0.4606.61 Safari/537.36",legacy,legacy,legacy,0,uniform,1,1,right,29,29,29,29,0,0,0,29,29,0,0,0,29,29,29,0,0,29,29,0,30-08-21,30-08-21,09:17:16,Thu Sep 30 2021 09:17:16 GMT+0200 (Centraleuropæisk sommertid),The main experiment item,yes,0,0,/Users/ethan/Documents/GitHub/OpenSesame/Sternberg/experiment_files,0,0,0,no,mono,no,18,no,white,no,no,768,100,3.6.1,legacy,legacy,3 5 4 7,osweb,1.4.0,1,1,y,37,,0,right,,,space,right,right,right,590,,,9137,19169,34400,590,2,legacy,728,1366,24,768,24,0,0,1366,1632986294139,4,1024,2,48000,-16,experiment,0,even,Win32,3,235004,,,231739,80,232774,225923,80,9228,99746,237021,233788,237620,80,237020,Sternberg_updated,27,17029,30,yes,1024
90,90,565,565,black,no,experiment,Mozilla,Netscape,"5.0 (Windows NT 10.0; Win64; x64) AppleWebKit/537.36 (KHTML, like Gecko) Chrome/94.0.4606.61 Safari/537.36",legacy,legacy,legacy,0,uniform,1,1,left,30,30,30,30,0,0,0,30,30,0,0,0,30,30,30,0,0,30,30,0,30-08-21,30-08-21,09:17:16,Thu Sep 30 2021 09:17:16 GMT+0200 (Centraleuropæisk sommertid),The main experiment item,yes,0,0,/Users/ethan/Documents/GitHub/OpenSesame/Sternberg/experiment_files,0,0,0,no,mono,no,18,no,white,no,no,768,100,3.6.1,legacy,legacy,1 6 4 3 9 7,osweb,1.4.0,1,0,n,37,,0,left,,,space,right,right,left,485,,,9137,19169,34400,485,2,legacy,728,1366,24,768,24,0,0,1366,1632986294139,6,1024,2,48000,-16,experiment,0,even,Win32,8,240886,,,237621,80,238657,225923,80,9228,99746,242903,239670,243402,80,242903,Sternberg_updated,28,17514,31,yes,1024
88,88,561,561,black,no,experiment,Mozilla,Netscape,"5.0 (Windows NT 10.0; Win64; x64) AppleWebKit/537.36 (KHTML, like Gecko) Chrome/94.0.4606.61 Safari/537.36",legacy,legacy,legacy,0,uniform,0,0,right,31,31,31,31,0,0,0,31,31,0,0,0,31,31,31,0,0,31,31,0,30-08-21,30-08-21,09:17:16,Thu Sep 30 2021 09:17:16 GMT+0200 (Centraleuropæisk sommertid),The main experiment item,yes,0,0,/Users/ethan/Documents/GitHub/OpenSesame/Sternberg/experiment_files,0,0,0,no,mono,no,18,no,white,no,no,768,100,3.6.1,legacy,legacy,4 1 8 7 5,osweb,1.4.0,1,3,y,37,,0,left,,,space,right,right,left,453,,,9137,19169,34400,453,2,legacy,728,1366,24,768,24,0,0,1366,1632986294139,5,1024,2,48000,-16,experiment,0,even,Win32,8,246668,,,243403,80,244441,225923,80,9228,99746,248685,245452,249151,80,248685,Sternberg_updated,28,17967,32,yes,1024
88,88,560,560,black,no,experiment,Mozilla,Netscape,"5.0 (Windows NT 10.0; Win64; x64) AppleWebKit/537.36 (KHTML, like Gecko) Chrome/94.0.4606.61 Safari/537.36",legacy,legacy,legacy,0,uniform,1,1,left,32,32,32,32,0,0,0,32,32,0,0,0,32,32,32,0,0,32,32,0,30-08-21,30-08-21,09:17:16,Thu Sep 30 2021 09:17:16 GMT+0200 (Centraleuropæisk sommertid),The main experiment item,yes,0,0,/Users/ethan/Documents/GitHub/OpenSesame/Sternberg/experiment_files,0,0,0,no,mono,no,18,no,white,no,no,768,100,3.6.1,legacy,legacy,6 8 4,osweb,1.4.0,1,0,n,37,,0,left,,,space,right,right,left,512,,,9137,19169,34400,512,2,legacy,728,1366,24,768,24,0,0,1366,1632986294139,3,1024,2,48000,-16,experiment,0,even,Win32,1,252418,,,243403,80,250186,249152,80,9228,99746,254434,251201,254950,80,254434,Sternberg_updated,29,18479,33,yes,1024
88,88,563,563,black,no,experiment,Mozilla,Netscape,"5.0 (Windows NT 10.0; Win64; x64) AppleWebKit/537.36 (KHTML, like Gecko) Chrome/94.0.4606.61 Safari/537.36",legacy,legacy,legacy,0,uniform,1,1,left,33,33,33,33,0,0,0,33,33,0,0,0,33,33,33,0,0,33,33,0,30-08-21,30-08-21,09:17:16,Thu Sep 30 2021 09:17:16 GMT+0200 (Centraleuropæisk sommertid),The main experiment item,yes,0,0,/Users/ethan/Documents/GitHub/OpenSesame/Sternberg/experiment_files,0,0,0,no,mono,no,18,no,white,no,no,768,100,3.6.1,legacy,legacy,4 2 7 6 1 3,osweb,1.4.0,1,0,n,37,,0,left,,,space,right,right,left,673,,,9137,19169,34400,673,2,legacy,728,1366,24,768,24,0,0,1366,1632986294139,6,1024,2,48000,-16,experiment,0,even,Win32,8,258217,,,254952,80,255988,249152,80,9228,99746,260233,257000,260916,80,260233,Sternberg_updated,30,19152,34,yes,1024
89,89,577,577,black,no,experiment,Mozilla,Netscape,"5.0 (Windows NT 10.0; Win64; x64) AppleWebKit/537.36 (KHTML, like Gecko) Chrome/94.0.4606.61 Safari/537.36",legacy,legacy,legacy,0,uniform,1,1,right,34,34,34,34,0,0,0,34,34,0,0,0,34,34,34,0,0,34,34,0,30-08-21,30-08-21,09:17:16,Thu Sep 30 2021 09:17:16 GMT+0200 (Centraleuropæisk sommertid),The main experiment item,yes,0,0,/Users/ethan/Documents/GitHub/OpenSesame/Sternberg/experiment_files,0,0,0,no,mono,no,18,no,white,no,no,768,100,3.6.1,legacy,legacy,4 3 2 5 8,osweb,1.4.0,1,2,y,37,,0,right,,,space,right,right,right,1040,,,9137,19169,34400,1040,2,legacy,728,1366,24,768,24,0,0,1366,1632986294139,5,1024,2,48000,-16,experiment,0,even,Win32,3,264182,,,260917,80,261955,249152,80,9228,99746,266199,262966,267248,80,266199,Sternberg_updated,31,20192,35,yes,1024
89,89,573,573,black,no,experiment,Mozilla,Netscape,"5.0 (Windows NT 10.0; Win64; x64) AppleWebKit/537.36 (KHTML, like Gecko) Chrome/94.0.4606.61 Safari/537.36",legacy,legacy,legacy,0,uniform,1,1,left,35,35,35,35,0,0,0,35,35,0,0,0,35,35,35,0,0,35,35,0,30-08-21,30-08-21,09:17:16,Thu Sep 30 2021 09:17:16 GMT+0200 (Centraleuropæisk sommertid),The main experiment item,yes,0,0,/Users/ethan/Documents/GitHub/OpenSesame/Sternberg/experiment_files,0,0,0,no,mono,no,18,no,white,no,no,768,100,3.6.1,legacy,legacy,5 2,osweb,1.4.0,1,0,n,37,,0,left,,,space,right,right,left,431,,,9137,19169,34400,431,2,legacy,728,1366,24,768,24,0,0,1366,1632986294139,2,1024,2,48000,-16,experiment,0,even,Win32,7,270514,,,267250,80,268288,249152,80,9228,99746,272531,269298,272964,80,272531,Sternberg_updated,32,20623,36,yes,1024
89,89,569,569,black,no,experiment,Mozilla,Netscape,"5.0 (Windows NT 10.0; Win64; x64) AppleWebKit/537.36 (KHTML, like Gecko) Chrome/94.0.4606.61 Safari/537.36",legacy,legacy,legacy,0,uniform,1,1,right,36,36,36,36,0,0,0,36,36,0,0,0,36,36,36,0,0,36,36,0,30-08-21,30-08-21,09:17:16,Thu Sep 30 2021 09:17:16 GMT+0200 (Centraleuropæisk sommertid),The main experiment item,yes,0,0,/Users/ethan/Documents/GitHub/OpenSesame/Sternberg/experiment_files,0,0,0,no,mono,no,18,no,white,no,no,768,100,3.6.1,legacy,legacy,9 4 2,osweb,1.4.0,1,1,y,37,,0,right,,,space,right,right,right,438,,,9137,19169,34400,438,2,legacy,728,1366,24,768,24,0,0,1366,1632986294139,3,1024,2,48000,-16,experiment,0,even,Win32,9,276230,,,272965,80,274001,249152,80,9228,99746,278247,275014,278696,80,278247,Sternberg_updated,33,21061,37,yes,1024
87,87,567,567,black,no,experiment,Mozilla,Netscape,"5.0 (Windows NT 10.0; Win64; x64) AppleWebKit/537.36 (KHTML, like Gecko) Chrome/94.0.4606.61 Safari/537.36",legacy,legacy,legacy,0,uniform,0,0,left,37,37,37,37,0,0,0,37,37,0,0,0,37,37,37,0,0,37,37,0,30-08-21,30-08-21,09:17:16,Thu Sep 30 2021 09:17:16 GMT+0200 (Centraleuropæisk sommertid),The main experiment item,yes,0,0,/Users/ethan/Documents/GitHub/OpenSesame/Sternberg/experiment_files,0,0,0,no,mono,no,18,no,white,no,no,768,100,3.6.1,legacy,legacy,5 7 3,osweb,1.4.0,1,0,n,37,,0,right,,,space,right,right,right,502,,,9137,19169,34400,502,2,legacy,728,1366,24,768,24,0,0,1366,1632986294139,3,1024,2,48000,-16,experiment,0,even,Win32,9,281962,,,278698,80,279733,249152,80,9228,99746,283979,280746,284495,80,283979,Sternberg_updated,33,21563,38,yes,1024
87,87,564,564,black,no,experiment,Mozilla,Netscape,"5.0 (Windows NT 10.0; Win64; x64) AppleWebKit/537.36 (KHTML, like Gecko) Chrome/94.0.4606.61 Safari/537.36",legacy,legacy,legacy,0,uniform,1,1,right,38,38,38,38,0,0,0,38,38,0,0,0,38,38,38,0,0,38,38,0,30-08-21,30-08-21,09:17:16,Thu Sep 30 2021 09:17:16 GMT+0200 (Centraleuropæisk sommertid),The main experiment item,yes,0,0,/Users/ethan/Documents/GitHub/OpenSesame/Sternberg/experiment_files,0,0,0,no,mono,no,18,no,white,no,no,768,100,3.6.1,legacy,legacy,9 8 4,osweb,1.4.0,1,1,y,37,,0,right,,,space,right,right,right,421,,,9137,19169,34400,421,2,legacy,728,1366,24,768,24,0,0,1366,1632986294139,3,1024,2,48000,-16,experiment,0,even,Win32,9,287761,,,278698,80,285532,284496,80,9228,99746,289778,286545,290211,80,289778,Sternberg_updated,34,21984,39,yes,1024
85,85,565,565,black,no,experiment,Mozilla,Netscape,"5.0 (Windows NT 10.0; Win64; x64) AppleWebKit/537.36 (KHTML, like Gecko) Chrome/94.0.4606.61 Safari/537.36",legacy,legacy,legacy,0,uniform,0,0,right,39,39,39,39,0,0,0,39,39,0,0,0,39,39,39,0,0,39,39,0,30-08-21,30-08-21,09:17:16,Thu Sep 30 2021 09:17:16 GMT+0200 (Centraleuropæisk sommertid),The main experiment item,yes,0,0,/Users/ethan/Documents/GitHub/OpenSesame/Sternberg/experiment_files,0,0,0,no,mono,no,18,no,white,no,no,768,100,3.6.1,legacy,legacy,7 6,osweb,1.4.0,1,2,y,37,,0,left,,,space,right,right,left,598,,,9137,19169,34400,598,2,legacy,728,1366,24,768,24,0,0,1366,1632986294139,2,1024,2,48000,-16,experiment,0,even,Win32,6,293477,,,290212,80,291248,284496,80,9228,99746,295493,292261,296093,80,295493,Sternberg_updated,34,22582,40,yes,1024
85,85,569,569,black,no,experiment,Mozilla,Netscape,"5.0 (Windows NT 10.0; Win64; x64) AppleWebKit/537.36 (KHTML, like Gecko) Chrome/94.0.4606.61 Safari/537.36",legacy,legacy,legacy,0,uniform,1,1,right,40,40,40,40,0,0,0,40,40,0,0,0,40,40,40,0,0,40,40,0,30-08-21,30-08-21,09:17:16,Thu Sep 30 2021 09:17:16 GMT+0200 (Centraleuropæisk sommertid),The main experiment item,yes,0,0,/Users/ethan/Documents/GitHub/OpenSesame/Sternberg/experiment_files,0,0,0,no,mono,no,18,no,white,no,no,768,100,3.6.1,legacy,legacy,2 6 1 7 4,osweb,1.4.0,1,2,y,37,,0,right,,,space,right,right,right,754,,,9137,19169,34400,754,2,legacy,728,1366,24,768,24,0,0,1366,1632986294139,5,1024,2,48000,-16,experiment,0,even,Win32,6,299360,,,290212,80,297128,296095,80,9228,99746,301376,298143,302142,80,301376,Sternberg_updated,35,23336,41,yes,1024
86,86,569,569,black,no,experiment,Mozilla,Netscape,"5.0 (Windows NT 10.0; Win64; x64) AppleWebKit/537.36 (KHTML, like Gecko) Chrome/94.0.4606.61 Safari/537.36",legacy,legacy,legacy,0,uniform,1,1,right,41,41,41,41,0,0,0,41,41,0,0,0,41,41,41,0,0,41,41,0,30-08-21,30-08-21,09:17:16,Thu Sep 30 2021 09:17:16 GMT+0200 (Centraleuropæisk sommertid),The main experiment item,yes,0,0,/Users/ethan/Documents/GitHub/OpenSesame/Sternberg/experiment_files,0,0,0,no,mono,no,18,no,white,no,no,768,100,3.6.1,legacy,legacy,8 7 3,osweb,1.4.0,1,1,y,37,,0,right,,,space,right,right,right,580,,,9137,19169,34400,580,2,legacy,728,1366,24,768,24,0,0,1366,1632986294139,3,1024,2,48000,-16,experiment,0,even,Win32,8,305408,,,302143,80,303179,296095,80,9228,99746,307425,304192,308007,80,307425,Sternberg_updated,36,23916,42,yes,1024
86,86,570,570,black,no,experiment,Mozilla,Netscape,"5.0 (Windows NT 10.0; Win64; x64) AppleWebKit/537.36 (KHTML, like Gecko) Chrome/94.0.4606.61 Safari/537.36",legacy,legacy,legacy,0,uniform,1,1,right,42,42,42,42,0,0,0,42,42,0,0,0,42,42,42,0,0,42,42,0,30-08-21,30-08-21,09:17:16,Thu Sep 30 2021 09:17:16 GMT+0200 (Centraleuropæisk sommertid),The main experiment item,yes,0,0,/Users/ethan/Documents/GitHub/OpenSesame/Sternberg/experiment_files,0,0,0,no,mono,no,18,no,white,no,no,768,100,3.6.1,legacy,legacy,2 5 4 8 7,osweb,1.4.0,1,3,y,37,,0,right,,,space,right,right,right,606,,,9137,19169,34400,606,2,legacy,728,1366,24,768,24,0,0,1366,1632986294139,5,1024,2,48000,-16,experiment,0,even,Win32,4,311274,,,308008,80,309044,296095,80,9228,99746,313290,310058,313906,80,313290,Sternberg_updated,37,24522,43,yes,1024
86,86,573,573,black,no,experiment,Mozilla,Netscape,"5.0 (Windows NT 10.0; Win64; x64) AppleWebKit/537.36 (KHTML, like Gecko) Chrome/94.0.4606.61 Safari/537.36",legacy,legacy,legacy,0,uniform,1,1,left,43,43,43,43,0,0,0,43,43,0,0,0,43,43,43,0,0,43,43,0,30-08-21,30-08-21,09:17:16,Thu Sep 30 2021 09:17:16 GMT+0200 (Centraleuropæisk sommertid),The main experiment item,yes,0,0,/Users/ethan/Documents/GitHub/OpenSesame/Sternberg/experiment_files,0,0,0,no,mono,no,18,no,white,no,no,768,100,3.6.1,legacy,legacy,2 3 8 5 6 7,osweb,1.4.0,1,0,n,37,,0,left,,,space,right,right,left,702,,,9137,19169,34400,702,2,legacy,728,1366,24,768,24,0,0,1366,1632986294139,6,1024,2,48000,-16,experiment,0,even,Win32,1,317173,,,313907,80,314943,296095,80,9228,99746,319189,315957,319905,80,319189,Sternberg_updated,38,25224,44,yes,1024
87,87,570,570,black,no,experiment,Mozilla,Netscape,"5.0 (Windows NT 10.0; Win64; x64) AppleWebKit/537.36 (KHTML, like Gecko) Chrome/94.0.4606.61 Safari/537.36",legacy,legacy,legacy,0,uniform,1,1,right,44,44,44,44,0,0,0,44,44,0,0,0,44,44,44,0,0,44,44,0,30-08-21,30-08-21,09:17:16,Thu Sep 30 2021 09:17:16 GMT+0200 (Centraleuropæisk sommertid),The main experiment item,yes,0,0,/Users/ethan/Documents/GitHub/OpenSesame/Sternberg/experiment_files,0,0,0,no,mono,no,18,no,white,no,no,768,100,3.6.1,legacy,legacy,9 5 3 8 4,osweb,1.4.0,1,1,y,37,,0,right,,,space,right,right,right,404,,,9137,19169,34400,404,2,legacy,728,1366,24,768,24,0,0,1366,1632986294139,5,1024,2,48000,-16,experiment,0,even,Win32,9,323172,,,319906,80,320941,296095,80,9228,99746,325189,321955,325605,80,325189,Sternberg_updated,39,25628,45,yes,1024
85,85,575,575,black,no,experiment,Mozilla,Netscape,"5.0 (Windows NT 10.0; Win64; x64) AppleWebKit/537.36 (KHTML, like Gecko) Chrome/94.0.4606.61 Safari/537.36",legacy,legacy,legacy,0,uniform,0,0,right,45,45,45,45,0,0,0,45,45,0,0,0,45,45,45,0,0,45,45,0,30-08-21,30-08-21,09:17:16,Thu Sep 30 2021 09:17:16 GMT+0200 (Centraleuropæisk sommertid),The main experiment item,yes,0,0,/Users/ethan/Documents/GitHub/OpenSesame/Sternberg/experiment_files,0,0,0,no,mono,no,18,no,white,no,no,768,100,3.6.1,legacy,legacy,3 4 9 6 2 9,osweb,1.4.0,1,5,y,37,,0,left,,,space,right,right,left,806,,,9137,19169,34400,806,2,legacy,728,1366,24,768,24,0,0,1366,1632986294139,6,1024,2,48000,-16,experiment,0,even,Win32,2,328871,,,325606,80,326641,296095,80,9228,99746,330887,327654,331703,80,330887,Sternberg_updated,39,26434,46,yes,1024
85,85,573,573,black,no,experiment,Mozilla,Netscape,"5.0 (Windows NT 10.0; Win64; x64) AppleWebKit/537.36 (KHTML, like Gecko) Chrome/94.0.4606.61 Safari/537.36",legacy,legacy,legacy,0,uniform,1,1,right,46,46,46,46,0,0,0,46,46,0,0,0,46,46,46,0,0,46,46,0,30-08-21,30-08-21,09:17:16,Thu Sep 30 2021 09:17:16 GMT+0200 (Centraleuropæisk sommertid),The main experiment item,yes,0,0,/Users/ethan/Documents/GitHub/OpenSesame/Sternberg/experiment_files,0,0,0,no,mono,no,18,no,white,no,no,768,100,3.6.1,legacy,legacy,3 5 9 6 2 4,osweb,1.4.0,1,1,y,37,,0,right,,,space,right,right,right,500,,,9137,19169,34400,500,2,legacy,728,1366,24,768,24,0,0,1366,1632986294139,6,1024,2,48000,-16,experiment,0,even,Win32,3,334970,,,325606,80,332739,331704,80,9228,99746,336986,333753,337486,80,336986,Sternberg_updated,40,26934,47,yes,1024
85,85,569,569,black,no,experiment,Mozilla,Netscape,"5.0 (Windows NT 10.0; Win64; x64) AppleWebKit/537.36 (KHTML, like Gecko) Chrome/94.0.4606.61 Safari/537.36",legacy,legacy,legacy,0,uniform,1,1,right,47,47,47,47,0,0,0,47,47,0,0,0,47,47,47,0,0,47,47,0,30-08-21,30-08-21,09:17:16,Thu Sep 30 2021 09:17:16 GMT+0200 (Centraleuropæisk sommertid),The main experiment item,yes,0,0,/Users/ethan/Documents/GitHub/OpenSesame/Sternberg/experiment_files,0,0,0,no,mono,no,18,no,white,no,no,768,100,3.6.1,legacy,legacy,7,osweb,1.4.0,1,1,y,37,,0,right,,,space,right,right,right,379,,,9137,19169,34400,379,2,legacy,728,1366,24,768,24,0,0,1366,1632986294139,1,1024,2,48000,-16,experiment,0,even,Win32,7,340752,,,337488,80,338523,331704,80,9228,99746,342768,339536,343151,80,342768,Sternberg_updated,41,27313,48,yes,1024
86,86,567,567,black,no,experiment,Mozilla,Netscape,"5.0 (Windows NT 10.0; Win64; x64) AppleWebKit/537.36 (KHTML, like Gecko) Chrome/94.0.4606.61 Safari/537.36",legacy,legacy,legacy,0,uniform,1,1,left,48,48,48,48,0,0,0,48,48,0,0,0,48,48,48,0,0,48,48,0,30-08-21,30-08-21,09:17:16,Thu Sep 30 2021 09:17:16 GMT+0200 (Centraleuropæisk sommertid),The main experiment item,yes,0,0,/Users/ethan/Documents/GitHub/OpenSesame/Sternberg/experiment_files,0,0,0,no,mono,no,18,no,white,no,no,768,100,3.6.1,legacy,legacy,8 9,osweb,1.4.0,1,0,n,37,,0,left,,,space,right,right,left,458,,,9137,19169,34400,458,2,legacy,728,1366,24,768,24,0,0,1366,1632986294139,2,1024,2,48000,-16,experiment,0,even,Win32,5,346418,,,343153,80,344185,331704,80,9228,99746,348434,345202,348900,80,348434,Sternberg_updated,42,27771,49,yes,1024
86,86,568,568,black,no,experiment,Mozilla,Netscape,"5.0 (Windows NT 10.0; Win64; x64) AppleWebKit/537.36 (KHTML, like Gecko) Chrome/94.0.4606.61 Safari/537.36",legacy,legacy,legacy,0,uniform,1,1,left,49,49,49,49,0,0,0,49,49,0,0,0,49,49,49,0,0,49,49,0,30-08-21,30-08-21,09:17:16,Thu Sep 30 2021 09:17:16 GMT+0200 (Centraleuropæisk sommertid),The main experiment item,yes,0,0,/Users/ethan/Documents/GitHub/OpenSesame/Sternberg/experiment_files,0,0,0,no,mono,no,18,no,white,no,no,768,100,3.6.1,legacy,legacy,7 1 8 4 9 3,osweb,1.4.0,1,0,n,37,,0,left,,,space,right,right,left,614,,,9137,19169,34400,614,2,legacy,728,1366,24,768,24,0,0,1366,1632986294139,6,1024,2,48000,-16,experiment,0,even,Win32,6,352167,,,348901,80,349935,331704,80,9228,99746,354183,350951,354799,80,354183,Sternberg_updated,43,28385,50,yes,1024
86,86,570,570,black,no,experiment,Mozilla,Netscape,"5.0 (Windows NT 10.0; Win64; x64) AppleWebKit/537.36 (KHTML, like Gecko) Chrome/94.0.4606.61 Safari/537.36",legacy,legacy,legacy,0,uniform,1,1,right,50,50,50,50,0,0,0,50,50,0,0,0,50,50,50,0,0,50,50,0,30-08-21,30-08-21,09:17:16,Thu Sep 30 2021 09:17:16 GMT+0200 (Centraleuropæisk sommertid),The main experiment item,yes,0,0,/Users/ethan/Documents/GitHub/OpenSesame/Sternberg/experiment_files,0,0,0,no,mono,no,18,no,white,no,no,768,100,3.6.1,legacy,legacy,7 8 6 3 1,osweb,1.4.0,1,5,y,37,,0,right,,,space,right,right,right,675,,,9137,19169,34400,675,2,legacy,728,1366,24,768,24,0,0,1366,1632986294139,5,1024,2,48000,-16,experiment,0,even,Win32,1,358065,,,354800,80,355836,331704,80,9228,99746,360082,356850,360765,80,360082,Sternberg_updated,44,29060,51,yes,1024
87,87,568,568,black,no,experiment,Mozilla,Netscape,"5.0 (Windows NT 10.0; Win64; x64) AppleWebKit/537.36 (KHTML, like Gecko) Chrome/94.0.4606.61 Safari/537.36",legacy,legacy,legacy,0,uniform,1,1,left,51,51,51,51,0,0,0,51,51,0,0,0,51,51,51,0,0,51,51,0,30-08-21,30-08-21,09:17:16,Thu Sep 30 2021 09:17:16 GMT+0200 (Centraleuropæisk sommertid),The main experiment item,yes,0,0,/Users/ethan/Documents/GitHub/OpenSesame/Sternberg/experiment_files,0,0,0,no,mono,no,18,no,white,no,no,768,100,3.6.1,legacy,legacy,6 9 7 3 8 2,osweb,1.4.0,1,0,n,37,,0,left,,,space,right,right,left,496,,,9137,19169,34400,496,2,legacy,728,1366,24,768,24,0,0,1366,1632986294139,6,1024,2,48000,-16,experiment,0,even,Win32,5,364031,,,360766,80,361800,331704,80,9228,99746,366047,362815,366547,80,366047,Sternberg_updated,45,29556,52,yes,1024
87,87,565,565,black,no,experiment,Mozilla,Netscape,"5.0 (Windows NT 10.0; Win64; x64) AppleWebKit/537.36 (KHTML, like Gecko) Chrome/94.0.4606.61 Safari/537.36",legacy,legacy,legacy,0,uniform,1,1,right,52,52,52,52,0,0,0,52,52,0,0,0,52,52,52,0,0,52,52,0,30-08-21,30-08-21,09:17:16,Thu Sep 30 2021 09:17:16 GMT+0200 (Centraleuropæisk sommertid),The main experiment item,yes,0,0,/Users/ethan/Documents/GitHub/OpenSesame/Sternberg/experiment_files,0,0,0,no,mono,no,18,no,white,no,no,768,100,3.6.1,legacy,legacy,8 3,osweb,1.4.0,1,2,y,37,,0,right,,,space,right,right,right,404,,,9137,19169,34400,404,2,legacy,728,1366,24,768,24,0,0,1366,1632986294139,2,1024,2,48000,-16,experiment,0,even,Win32,3,369813,,,366548,80,367589,331704,80,9228,99746,371830,368597,372246,80,371830,Sternberg_updated,46,29960,53,yes,1024
87,87,563,563,black,no,experiment,Mozilla,Netscape,"5.0 (Windows NT 10.0; Win64; x64) AppleWebKit/537.36 (KHTML, like Gecko) Chrome/94.0.4606.61 Safari/537.36",legacy,legacy,legacy,0,uniform,1,1,right,53,53,53,53,0,0,0,53,53,0,0,0,53,53,53,0,0,53,53,0,30-08-21,30-08-21,09:17:16,Thu Sep 30 2021 09:17:16 GMT+0200 (Centraleuropæisk sommertid),The main experiment item,yes,0,0,/Users/ethan/Documents/GitHub/OpenSesame/Sternberg/experiment_files,0,0,0,no,mono,no,18,no,white,no,no,768,100,3.6.1,legacy,legacy,9 6 2 4 1,osweb,1.4.0,1,4,y,37,,0,right,,,space,right,right,right,461,,,9137,19169,34400,461,2,legacy,728,1366,24,768,24,0,0,1366,1632986294139,5,1024,2,48000,-16,experiment,0,even,Win32,4,375512,,,372247,80,373290,331704,80,9228,99746,377529,374296,377995,80,377529,Sternberg_updated,47,30421,54,yes,1024
87,87,563,563,black,no,experiment,Mozilla,Netscape,"5.0 (Windows NT 10.0; Win64; x64) AppleWebKit/537.36 (KHTML, like Gecko) Chrome/94.0.4606.61 Safari/537.36",legacy,legacy,legacy,0,uniform,1,1,left,54,54,54,54,0,0,0,54,54,0,0,0,54,54,54,0,0,54,54,0,30-08-21,30-08-21,09:17:16,Thu Sep 30 2021 09:17:16 GMT+0200 (Centraleuropæisk sommertid),The main experiment item,yes,0,0,/Users/ethan/Documents/GitHub/OpenSesame/Sternberg/experiment_files,0,0,0,no,mono,no,18,no,white,no,no,768,100,3.6.1,legacy,legacy,8 4 3 9,osweb,1.4.0,1,0,n,37,,0,left,,,space,right,right,left,533,,,9137,19169,34400,533,2,legacy,728,1366,24,768,24,0,0,1366,1632986294139,4,1024,2,48000,-16,experiment,0,even,Win32,5,381261,,,377998,80,379032,331704,80,9228,99746,383278,380045,383827,80,383278,Sternberg_updated,48,30954,55,yes,1024
88,88,561,561,black,no,experiment,Mozilla,Netscape,"5.0 (Windows NT 10.0; Win64; x64) AppleWebKit/537.36 (KHTML, like Gecko) Chrome/94.0.4606.61 Safari/537.36",legacy,legacy,legacy,0,uniform,1,1,left,55,55,55,55,0,0,0,55,55,0,0,0,55,55,55,0,0,55,55,0,30-08-21,30-08-21,09:17:16,Thu Sep 30 2021 09:17:16 GMT+0200 (Centraleuropæisk sommertid),The main experiment item,yes,0,0,/Users/ethan/Documents/GitHub/OpenSesame/Sternberg/experiment_files,0,0,0,no,mono,no,18,no,white,no,no,768,100,3.6.1,legacy,legacy,9,osweb,1.4.0,1,0,n,37,,0,left,right,,space,right,right,left,463,16015,,9137,19169,34400,463,2,legacy,728,1366,24,768,24,0,0,1366,1632986294139,1,1024,2,48000,-16,experiment,0,even,Win32,6,403124,384845,,383828,80,400894,331704,80,9228,99746,405141,401908,405607,80,405141,Sternberg_updated,49,31417,56,yes,1024
88,88,561,561,black,no,experiment,Mozilla,Netscape,"5.0 (Windows NT 10.0; Win64; x64) AppleWebKit/537.36 (KHTML, like Gecko) Chrome/94.0.4606.61 Safari/537.36",legacy,legacy,legacy,0,uniform,1,1,left,56,56,56,56,0,0,0,56,56,0,0,0,56,56,56,0,0,56,56,0,30-08-21,30-08-21,09:17:16,Thu Sep 30 2021 09:17:16 GMT+0200 (Centraleuropæisk sommertid),The main experiment item,yes,0,0,/Users/ethan/Documents/GitHub/OpenSesame/Sternberg/experiment_files,0,0,0,no,mono,no,18,no,white,no,no,768,100,3.6.1,legacy,legacy,3 4 9 6 7 8,osweb,1.4.0,1,0,n,37,,0,left,right,,space,right,right,left,554,16015,,9137,19169,34400,554,2,legacy,728,1366,24,768,24,0,0,1366,1632986294139,6,1024,2,48000,-16,experiment,0,even,Win32,2,408873,384845,,405609,80,406651,331704,80,9228,99746,410890,407657,411456,80,410890,Sternberg_updated,50,31971,57,yes,1024
88,88,562,562,black,no,experiment,Mozilla,Netscape,"5.0 (Windows NT 10.0; Win64; x64) AppleWebKit/537.36 (KHTML, like Gecko) Chrome/94.0.4606.61 Safari/537.36",legacy,legacy,legacy,0,uniform,1,1,left,57,57,57,57,0,0,0,57,57,0,0,0,57,57,57,0,0,57,57,0,30-08-21,30-08-21,09:17:16,Thu Sep 30 2021 09:17:16 GMT+0200 (Centraleuropæisk sommertid),The main experiment item,yes,0,0,/Users/ethan/Documents/GitHub/OpenSesame/Sternberg/experiment_files,0,0,0,no,mono,no,18,no,white,no,no,768,100,3.6.1,legacy,legacy,1 4 9 3,osweb,1.4.0,1,0,n,37,,0,left,right,,space,right,right,left,617,16015,,9137,19169,34400,617,2,legacy,728,1366,24,768,24,0,0,1366,1632986294139,4,1024,2,48000,-16,experiment,0,even,Win32,5,414722,384845,,411457,80,412491,331704,80,9228,99746,416739,413506,417372,80,416739,Sternberg_updated,51,32588,58,yes,1024
88,88,563,563,black,no,experiment,Mozilla,Netscape,"5.0 (Windows NT 10.0; Win64; x64) AppleWebKit/537.36 (KHTML, like Gecko) Chrome/94.0.4606.61 Safari/537.36",legacy,legacy,legacy,0,uniform,1,1,right,58,58,58,58,0,0,0,58,58,0,0,0,58,58,58,0,0,58,58,0,30-08-21,30-08-21,09:17:16,Thu Sep 30 2021 09:17:16 GMT+0200 (Centraleuropæisk sommertid),The main experiment item,yes,0,0,/Users/ethan/Documents/GitHub/OpenSesame/Sternberg/experiment_files,0,0,0,no,mono,no,18,no,white,no,no,768,100,3.6.1,legacy,legacy,6 9 3 1,osweb,1.4.0,1,4,y,37,,0,right,right,,space,right,right,right,643,16015,,9137,19169,34400,643,2,legacy,728,1366,24,768,24,0,0,1366,1632986294139,4,1024,2,48000,-16,experiment,0,even,Win32,1,420638,384845,,417373,80,418410,331704,80,9228,99746,422654,419421,423304,80,422654,Sternberg_updated,52,33231,59,yes,1024
88,88,562,562,black,no,experiment,Mozilla,Netscape,"5.0 (Windows NT 10.0; Win64; x64) AppleWebKit/537.36 (KHTML, like Gecko) Chrome/94.0.4606.61 Safari/537.36",legacy,legacy,legacy,0,uniform,1,1,left,59,59,59,59,0,0,0,59,59,0,0,0,59,59,59,0,0,59,59,0,30-08-21,30-08-21,09:17:16,Thu Sep 30 2021 09:17:16 GMT+0200 (Centraleuropæisk sommertid),The main experiment item,yes,0,0,/Users/ethan/Documents/GitHub/OpenSesame/Sternberg/experiment_files,0,0,0,no,mono,no,18,no,white,no,no,768,100,3.6.1,legacy,legacy,6 7 5 9,osweb,1.4.0,1,0,n,37,,0,left,right,,space,right,right,left,513,16015,,9137,19169,34400,513,2,legacy,728,1366,24,768,24,0,0,1366,1632986294139,4,1024,2,48000,-16,experiment,0,even,Win32,2,426570,384845,,423305,80,424344,331704,80,9228,99746,428587,425355,429103,80,428587,Sternberg_updated,53,33744,60,yes,1024
89,89,562,562,black,no,experiment,Mozilla,Netscape,"5.0 (Windows NT 10.0; Win64; x64) AppleWebKit/537.36 (KHTML, like Gecko) Chrome/94.0.4606.61 Safari/537.36",legacy,legacy,legacy,0,uniform,1,1,right,60,60,60,60,0,0,0,60,60,0,0,0,60,60,60,0,0,60,60,0,30-08-21,30-08-21,09:17:16,Thu Sep 30 2021 09:17:16 GMT+0200 (Centraleuropæisk sommertid),The main experiment item,yes,0,0,/Users/ethan/Documents/GitHub/OpenSesame/Sternberg/experiment_files,0,0,0,no,mono,no,18,no,white,no,no,768,100,3.6.1,legacy,legacy,5 2 9 6 1 7,osweb,1.4.0,1,3,y,37,,0,right,right,,space,right,right,right,562,16015,,9137,19169,34400,562,2,legacy,728,1366,24,768,24,0,0,1366,1632986294139,6,1024,2,48000,-16,experiment,0,even,Win32,9,432369,384845,,429104,80,430138,331704,80,9228,99746,434386,431153,434952,80,434386,Sternberg_updated,54,34306,61,yes,1024
89,89,563,563,black,no,experiment,Mozilla,Netscape,"5.0 (Windows NT 10.0; Win64; x64) AppleWebKit/537.36 (KHTML, like Gecko) Chrome/94.0.4606.61 Safari/537.36",legacy,legacy,legacy,0,uniform,1,1,left,61,61,61,61,0,0,0,61,61,0,0,0,61,61,61,0,0,61,61,0,30-08-21,30-08-21,09:17:16,Thu Sep 30 2021 09:17:16 GMT+0200 (Centraleuropæisk sommertid),The main experiment item,yes,0,0,/Users/ethan/Documents/GitHub/OpenSesame/Sternberg/experiment_files,0,0,0,no,mono,no,18,no,white,no,no,768,100,3.6.1,legacy,legacy,2 8 7 9 5 3,osweb,1.4.0,1,0,n,37,,0,left,right,,space,right,right,left,592,16015,,9137,19169,34400,592,2,legacy,728,1366,24,768,24,0,0,1366,1632986294139,6,1024,2,48000,-16,experiment,0,even,Win32,6,438218,384845,,434953,80,435989,331704,80,9228,99746,440235,437002,440834,80,440235,Sternberg_updated,55,34898,62,yes,1024
89,89,562,562,black,no,experiment,Mozilla,Netscape,"5.0 (Windows NT 10.0; Win64; x64) AppleWebKit/537.36 (KHTML, like Gecko) Chrome/94.0.4606.61 Safari/537.36",legacy,legacy,legacy,0,uniform,1,1,left,62,62,62,62,0,0,0,62,62,0,0,0,62,62,62,0,0,62,62,0,30-08-21,30-08-21,09:17:16,Thu Sep 30 2021 09:17:16 GMT+0200 (Centraleuropæisk sommertid),The main experiment item,yes,0,0,/Users/ethan/Documents/GitHub/OpenSesame/Sternberg/experiment_files,0,0,0,no,mono,no,18,no,white,no,no,768,100,3.6.1,legacy,legacy,6 2 9 3 8 4,osweb,1.4.0,1,0,n,37,,0,left,right,,space,right,right,left,526,16015,,9137,19169,34400,526,2,legacy,728,1366,24,768,24,0,0,1366,1632986294139,6,1024,2,48000,-16,experiment,0,even,Win32,1,444100,384845,,440836,80,441874,331704,80,9228,99746,446117,442884,446650,80,446117,Sternberg_updated,56,35424,63,yes,1024
89,89,562,562,black,no,experiment,Mozilla,Netscape,"5.0 (Windows NT 10.0; Win64; x64) AppleWebKit/537.36 (KHTML, like Gecko) Chrome/94.0.4606.61 Safari/537.36",legacy,legacy,legacy,0,uniform,1,1,left,63,63,63,63,0,0,0,63,63,0,0,0,63,63,63,0,0,63,63,0,30-08-21,30-08-21,09:17:16,Thu Sep 30 2021 09:17:16 GMT+0200 (Centraleuropæisk sommertid),The main experiment item,yes,0,0,/Users/ethan/Documents/GitHub/OpenSesame/Sternberg/experiment_files,0,0,0,no,mono,no,18,no,white,no,no,768,100,3.6.1,legacy,legacy,3 9 8 1 6 4,osweb,1.4.0,1,0,n,37,,0,left,right,,space,right,right,left,533,16015,,9137,19169,34400,533,2,legacy,728,1366,24,768,24,0,0,1366,1632986294139,6,1024,2,48000,-16,experiment,0,even,Win32,7,449916,384845,,446651,80,447689,331704,80,9228,99746,451933,448700,452482,80,451933,Sternberg_updated,57,35957,64,yes,1024
89,89,561,561,black,no,experiment,Mozilla,Netscape,"5.0 (Windows NT 10.0; Win64; x64) AppleWebKit/537.36 (KHTML, like Gecko) Chrome/94.0.4606.61 Safari/537.36",legacy,legacy,legacy,0,uniform,1,1,right,64,64,64,64,0,0,0,64,64,0,0,0,64,64,64,0,0,64,64,0,30-08-21,30-08-21,09:17:16,Thu Sep 30 2021 09:17:16 GMT+0200 (Centraleuropæisk sommertid),The main experiment item,yes,0,0,/Users/ethan/Documents/GitHub/OpenSesame/Sternberg/experiment_files,0,0,0,no,mono,no,18,no,white,no,no,768,100,3.6.1,legacy,legacy,8 5 3 7 4 6,osweb,1.4.0,1,6,y,37,,0,right,right,,space,right,right,right,509,16015,,9137,19169,34400,509,2,legacy,728,1366,24,768,24,0,0,1366,1632986294139,6,1024,2,48000,-16,experiment,0,even,Win32,6,455748,384845,,452483,80,453518,331704,80,9228,99746,457765,454532,458281,80,457765,Sternberg_updated,58,36466,65,yes,1024
89,89,564,564,black,no,experiment,Mozilla,Netscape,"5.0 (Windows NT 10.0; Win64; x64) AppleWebKit/537.36 (KHTML, like Gecko) Chrome/94.0.4606.61 Safari/537.36",legacy,legacy,legacy,0,uniform,1,1,left,65,65,65,65,0,0,0,65,65,0,0,0,65,65,65,0,0,65,65,0,30-08-21,30-08-21,09:17:16,Thu Sep 30 2021 09:17:16 GMT+0200 (Centraleuropæisk sommertid),The main experiment item,yes,0,0,/Users/ethan/Documents/GitHub/OpenSesame/Sternberg/experiment_files,0,0,0,no,mono,no,18,no,white,no,no,768,100,3.6.1,legacy,legacy,6 9 5,osweb,1.4.0,1,0,n,37,,0,left,right,,space,right,right,left,783,16015,,9137,19169,34400,783,2,legacy,728,1366,24,768,24,0,0,1366,1632986294139,3,1024,2,48000,-16,experiment,0,even,Win32,8,461547,384845,,458282,80,459320,331704,80,9228,99746,463564,460332,464363,80,463564,Sternberg_updated,59,37249,66,yes,1024
90,90,563,563,black,no,experiment,Mozilla,Netscape,"5.0 (Windows NT 10.0; Win64; x64) AppleWebKit/537.36 (KHTML, like Gecko) Chrome/94.0.4606.61 Safari/537.36",legacy,legacy,legacy,0,uniform,1,1,left,66,66,66,66,0,0,0,66,66,0,0,0,66,66,66,0,0,66,66,0,30-08-21,30-08-21,09:17:16,Thu Sep 30 2021 09:17:16 GMT+0200 (Centraleuropæisk sommertid),The main experiment item,yes,0,0,/Users/ethan/Documents/GitHub/OpenSesame/Sternberg/experiment_files,0,0,0,no,mono,no,18,no,white,no,no,768,100,3.6.1,legacy,legacy,1 7 5 2,osweb,1.4.0,1,0,n,37,,0,left,right,,space,right,right,left,504,16015,,9137,19169,34400,504,2,legacy,728,1366,24,768,24,0,0,1366,1632986294139,4,1024,2,48000,-16,experiment,0,even,Win32,3,467630,384845,,464364,80,465400,331704,80,9228,99746,469646,466413,470162,80,469646,Sternberg_updated,60,37753,67,yes,1024
90,90,562,562,black,no,experiment,Mozilla,Netscape,"5.0 (Windows NT 10.0; Win64; x64) AppleWebKit/537.36 (KHTML, like Gecko) Chrome/94.0.4606.61 Safari/537.36",legacy,legacy,legacy,0,uniform,1,1,left,67,67,67,67,0,0,0,67,67,0,0,0,67,67,67,0,0,67,67,0,30-08-21,30-08-21,09:17:16,Thu Sep 30 2021 09:17:16 GMT+0200 (Centraleuropæisk sommertid),The main experiment item,yes,0,0,/Users/ethan/Documents/GitHub/OpenSesame/Sternberg/experiment_files,0,0,0,no,mono,no,18,no,white,no,no,768,100,3.6.1,legacy,legacy,2 8 9 4 1,osweb,1.4.0,1,0,n,37,,0,left,right,,space,right,right,left,488,16015,,9137,19169,34400,488,2,legacy,728,1366,24,768,24,0,0,1366,1632986294139,5,1024,2,48000,-16,experiment,0,even,Win32,5,473429,384845,,470163,80,471202,331704,80,9228,99746,475445,472212,475945,80,475445,Sternberg_updated,61,38241,68,yes,1024
90,90,559,559,black,no,experiment,Mozilla,Netscape,"5.0 (Windows NT 10.0; Win64; x64) AppleWebKit/537.36 (KHTML, like Gecko) Chrome/94.0.4606.61 Safari/537.36",legacy,legacy,legacy,0,uniform,1,1,right,68,68,68,68,0,0,0,68,68,0,0,0,68,68,68,0,0,68,68,0,30-08-21,30-08-21,09:17:16,Thu Sep 30 2021 09:17:16 GMT+0200 (Centraleuropæisk sommertid),The main experiment item,yes,0,0,/Users/ethan/Documents/GitHub/OpenSesame/Sternberg/experiment_files,0,0,0,no,mono,no,18,no,white,no,no,768,100,3.6.1,legacy,legacy,7 2 3,osweb,1.4.0,1,3,y,37,,0,right,right,,space,right,right,right,361,16015,,9137,19169,34400,361,2,legacy,728,1366,24,768,24,0,0,1366,1632986294139,3,1024,2,48000,-16,experiment,0,even,Win32,3,479211,384845,,475947,80,476981,331704,80,9228,99746,481227,477995,481594,80,481227,Sternberg_updated,62,38602,69,yes,1024
90,90,559,559,black,no,experiment,Mozilla,Netscape,"5.0 (Windows NT 10.0; Win64; x64) AppleWebKit/537.36 (KHTML, like Gecko) Chrome/94.0.4606.61 Safari/537.36",legacy,legacy,legacy,0,uniform,1,1,left,69,69,69,69,0,0,0,69,69,0,0,0,69,69,69,0,0,69,69,0,30-08-21,30-08-21,09:17:16,Thu Sep 30 2021 09:17:16 GMT+0200 (Centraleuropæisk sommertid),The main experiment item,yes,0,0,/Users/ethan/Documents/GitHub/OpenSesame/Sternberg/experiment_files,0,0,0,no,mono,no,18,no,white,no,no,768,100,3.6.1,legacy,legacy,8 4 3 5,osweb,1.4.0,1,0,n,37,,0,left,right,,space,right,right,left,498,16015,,9137,19169,34400,498,2,legacy,728,1366,24,768,24,0,0,1366,1632986294139,4,1024,2,48000,-16,experiment,0,even,Win32,6,484860,384845,,481595,80,482629,331704,80,9228,99746,486877,483643,487376,80,486877,Sternberg_updated,63,39100,70,yes,1024
90,90,557,557,black,no,experiment,Mozilla,Netscape,"5.0 (Windows NT 10.0; Win64; x64) AppleWebKit/537.36 (KHTML, like Gecko) Chrome/94.0.4606.61 Safari/537.36",legacy,legacy,legacy,0,uniform,1,1,left,70,70,70,70,0,0,0,70,70,0,0,0,70,70,70,0,0,70,70,0,30-08-21,30-08-21,09:17:16,Thu Sep 30 2021 09:17:16 GMT+0200 (Centraleuropæisk sommertid),The main experiment item,yes,0,0,/Users/ethan/Documents/GitHub/OpenSesame/Sternberg/experiment_files,0,0,0,no,mono,no,18,no,white,no,no,768,100,3.6.1,legacy,legacy,3 9 1,osweb,1.4.0,1,0,n,37,,0,left,right,,space,right,right,left,459,16015,,9137,19169,34400,459,2,legacy,728,1366,24,768,24,0,0,1366,1632986294139,3,1024,2,48000,-16,experiment,0,even,Win32,7,490642,384845,,487379,80,488411,331704,80,9228,99746,492659,489426,493125,80,492659,Sternberg_updated,64,39559,71,yes,1024
89,89,557,557,black,no,experiment,Mozilla,Netscape,"5.0 (Windows NT 10.0; Win64; x64) AppleWebKit/537.36 (KHTML, like Gecko) Chrome/94.0.4606.61 Safari/537.36",legacy,legacy,legacy,0,uniform,0,0,right,71,71,71,71,0,0,0,71,71,0,0,0,71,71,71,0,0,71,71,0,30-08-21,30-08-21,09:17:16,Thu Sep 30 2021 09:17:16 GMT+0200 (Centraleuropæisk sommertid),The main experiment item,yes,0,0,/Users/ethan/Documents/GitHub/OpenSesame/Sternberg/experiment_files,0,0,0,no,mono,no,18,no,white,no,no,768,100,3.6.1,legacy,legacy,9 3 1 2 5,osweb,1.4.0,1,4,y,37,,0,left,right,,space,right,right,left,530,16015,,9137,19169,34400,530,2,legacy,728,1366,24,768,24,0,0,1366,1632986294139,5,1024,2,48000,-16,experiment,0,even,Win32,2,496391,384845,,493126,80,494162,331704,80,9228,99746,498408,495175,498940,80,498408,Sternberg_updated,64,40089,72,yes,1024
89,89,556,556,black,no,experiment,Mozilla,Netscape,"5.0 (Windows NT 10.0; Win64; x64) AppleWebKit/537.36 (KHTML, like Gecko) Chrome/94.0.4606.61 Safari/537.36",legacy,legacy,legacy,0,uniform,1,1,left,72,72,72,72,0,0,0,72,72,0,0,0,72,72,72,0,0,72,72,0,30-08-21,30-08-21,09:17:16,Thu Sep 30 2021 09:17:16 GMT+0200 (Centraleuropæisk sommertid),The main experiment item,yes,0,0,/Users/ethan/Documents/GitHub/OpenSesame/Sternberg/experiment_files,0,0,0,no,mono,no,18,no,white,no,no,768,100,3.6.1,legacy,legacy,5 3 8 7 2 4,osweb,1.4.0,1,0,n,37,,0,left,right,,space,right,right,left,499,16015,,9137,19169,34400,499,2,legacy,728,1366,24,768,24,0,0,1366,1632986294139,6,1024,2,48000,-16,experiment,0,even,Win32,9,502207,384845,,493126,80,499977,498941,80,9228,99746,504223,500991,504723,80,504223,Sternberg_updated,65,40588,73,yes,1024
88,88,556,556,black,no,experiment,Mozilla,Netscape,"5.0 (Windows NT 10.0; Win64; x64) AppleWebKit/537.36 (KHTML, like Gecko) Chrome/94.0.4606.61 Safari/537.36",legacy,legacy,legacy,0,uniform,0,0,right,73,73,73,73,0,0,0,73,73,0,0,0,73,73,73,0,0,73,73,0,30-08-21,30-08-21,09:17:16,Thu Sep 30 2021 09:17:16 GMT+0200 (Centraleuropæisk sommertid),The main experiment item,yes,0,0,/Users/ethan/Documents/GitHub/OpenSesame/Sternberg/experiment_files,0,0,0,no,mono,no,18,no,white,no,no,768,100,3.6.1,legacy,legacy,4 6 2 5 1,osweb,1.4.0,1,5,y,37,,0,left,right,,space,right,right,left,530,16015,,9137,19169,34400,530,2,legacy,728,1366,24,768,24,0,0,1366,1632986294139,5,1024,2,48000,-16,experiment,0,even,Win32,1,507989,384845,,504724,80,505758,498941,80,9228,99746,510006,506773,510538,80,510006,Sternberg_updated,65,41118,74,yes,1024
88,88,558,558,black,no,experiment,Mozilla,Netscape,"5.0 (Windows NT 10.0; Win64; x64) AppleWebKit/537.36 (KHTML, like Gecko) Chrome/94.0.4606.61 Safari/537.36",legacy,legacy,legacy,0,uniform,1,1,left,74,74,74,74,0,0,0,74,74,0,0,0,74,74,74,0,0,74,74,0,30-08-21,30-08-21,09:17:16,Thu Sep 30 2021 09:17:16 GMT+0200 (Centraleuropæisk sommertid),The main experiment item,yes,0,0,/Users/ethan/Documents/GitHub/OpenSesame/Sternberg/experiment_files,0,0,0,no,mono,no,18,no,white,no,no,768,100,3.6.1,legacy,legacy,5 3 2 6 9 8,osweb,1.4.0,1,0,n,37,,0,left,right,,space,right,right,left,729,16015,,9137,19169,34400,729,2,legacy,728,1366,24,768,24,0,0,1366,1632986294139,6,1024,2,48000,-16,experiment,0,even,Win32,4,513805,384845,,504724,80,511579,510540,80,9228,99746,515821,512589,516554,80,515821,Sternberg_updated,66,41847,75,yes,1024
88,88,558,558,black,no,experiment,Mozilla,Netscape,"5.0 (Windows NT 10.0; Win64; x64) AppleWebKit/537.36 (KHTML, like Gecko) Chrome/94.0.4606.61 Safari/537.36",legacy,legacy,legacy,0,uniform,1,1,right,75,75,75,75,0,0,0,75,75,0,0,0,75,75,75,0,0,75,75,0,30-08-21,30-08-21,09:17:16,Thu Sep 30 2021 09:17:16 GMT+0200 (Centraleuropæisk sommertid),The main experiment item,yes,0,0,/Users/ethan/Documents/GitHub/OpenSesame/Sternberg/experiment_files,0,0,0,no,mono,no,18,no,white,no,no,768,100,3.6.1,legacy,legacy,7 8 4 6 9 5,osweb,1.4.0,1,4,y,37,,0,right,right,,space,right,right,right,576,16015,,9137,19169,34400,576,2,legacy,728,1366,24,768,24,0,0,1366,1632986294139,6,1024,2,48000,-16,experiment,0,even,Win32,6,519821,384845,,516555,80,517591,510540,80,9228,99746,521837,518604,522420,80,521837,Sternberg_updated,67,42423,76,yes,1024
88,88,556,556,black,no,experiment,Mozilla,Netscape,"5.0 (Windows NT 10.0; Win64; x64) AppleWebKit/537.36 (KHTML, like Gecko) Chrome/94.0.4606.61 Safari/537.36",legacy,legacy,legacy,0,uniform,1,1,right,76,76,76,76,0,0,0,76,76,0,0,0,76,76,76,0,0,76,76,0,30-08-21,30-08-21,09:17:16,Thu Sep 30 2021 09:17:16 GMT+0200 (Centraleuropæisk sommertid),The main experiment item,yes,0,0,/Users/ethan/Documents/GitHub/OpenSesame/Sternberg/experiment_files,0,0,0,no,mono,no,18,no,white,no,no,768,100,3.6.1,legacy,legacy,3 4,osweb,1.4.0,1,1,y,37,,0,right,right,,space,right,right,right,397,16015,,9137,19169,34400,397,2,legacy,728,1366,24,768,24,0,0,1366,1632986294139,2,1024,2,48000,-16,experiment,0,even,Win32,3,525686,384845,,522421,80,523458,510540,80,9228,99746,527703,524470,528102,80,527703,Sternberg_updated,68,42820,77,yes,1024
88,88,555,555,black,no,experiment,Mozilla,Netscape,"5.0 (Windows NT 10.0; Win64; x64) AppleWebKit/537.36 (KHTML, like Gecko) Chrome/94.0.4606.61 Safari/537.36",legacy,legacy,legacy,0,uniform,1,1,left,77,77,77,77,0,0,0,77,77,0,0,0,77,77,77,0,0,77,77,0,30-08-21,30-08-21,09:17:16,Thu Sep 30 2021 09:17:16 GMT+0200 (Centraleuropæisk sommertid),The main experiment item,yes,0,0,/Users/ethan/Documents/GitHub/OpenSesame/Sternberg/experiment_files,0,0,0,no,mono,no,18,no,white,no,no,768,100,3.6.1,legacy,legacy,7 1 5 6 3,osweb,1.4.0,1,0,n,37,,0,left,right,,space,right,right,left,490,16015,,9137,19169,34400,490,2,legacy,728,1366,24,768,24,0,0,1366,1632986294139,5,1024,2,48000,-16,experiment,0,even,Win32,8,531369,384845,,528103,80,529136,510540,80,9228,99746,533385,530152,533884,80,533385,Sternberg_updated,69,43310,78,yes,1024
89,89,557,557,black,no,experiment,Mozilla,Netscape,"5.0 (Windows NT 10.0; Win64; x64) AppleWebKit/537.36 (KHTML, like Gecko) Chrome/94.0.4606.61 Safari/537.36",legacy,legacy,legacy,0,uniform,1,1,left,78,78,78,78,0,0,0,78,78,0,0,0,78,78,78,0,0,78,78,0,30-08-21,30-08-21,09:17:16,Thu Sep 30 2021 09:17:16 GMT+0200 (Centraleuropæisk sommertid),The main experiment item,yes,0,0,/Users/ethan/Documents/GitHub/OpenSesame/Sternberg/experiment_files,0,0,0,no,mono,no,18,no,white,no,no,768,100,3.6.1,legacy,legacy,9 7 4 5 8,osweb,1.4.0,1,0,n,37,,0,left,right,,space,right,right,left,677,16015,,9137,19169,34400,677,2,legacy,728,1366,24,768,24,0,0,1366,1632986294139,5,1024,2,48000,-16,experiment,0,even,Win32,6,537151,384845,,533885,80,534921,510540,80,9228,99746,539167,535934,539850,80,539167,Sternberg_updated,70,43987,79,yes,1024
89,89,555,555,black,no,experiment,Mozilla,Netscape,"5.0 (Windows NT 10.0; Win64; x64) AppleWebKit/537.36 (KHTML, like Gecko) Chrome/94.0.4606.61 Safari/537.36",legacy,legacy,legacy,0,uniform,1,1,left,79,79,79,79,0,0,0,79,79,0,0,0,79,79,79,0,0,79,79,0,30-08-21,30-08-21,09:17:16,Thu Sep 30 2021 09:17:16 GMT+0200 (Centraleuropæisk sommertid),The main experiment item,yes,0,0,/Users/ethan/Documents/GitHub/OpenSesame/Sternberg/experiment_files,0,0,0,no,mono,no,18,no,white,no,no,768,100,3.6.1,legacy,legacy,1 6 4,osweb,1.4.0,1,0,n,37,,0,left,right,,space,right,right,left,377,16015,,9137,19169,34400,377,2,legacy,728,1366,24,768,24,0,0,1366,1632986294139,3,1024,2,48000,-16,experiment,0,even,Win32,7,543116,384845,,539851,80,540888,510540,80,9228,99746,545133,541900,545516,80,545133,Sternberg_updated,71,44364,80,yes,1024
89,89,555,555,black,no,experiment,Mozilla,Netscape,"5.0 (Windows NT 10.0; Win64; x64) AppleWebKit/537.36 (KHTML, like Gecko) Chrome/94.0.4606.61 Safari/537.36",legacy,legacy,legacy,0,uniform,1,1,right,80,80,80,80,0,0,0,80,80,0,0,0,80,80,80,0,0,80,80,0,30-08-21,30-08-21,09:17:16,Thu Sep 30 2021 09:17:16 GMT+0200 (Centraleuropæisk sommertid),The main experiment item,yes,0,0,/Users/ethan/Documents/GitHub/OpenSesame/Sternberg/experiment_files,0,0,0,no,mono,no,18,no,white,no,no,768,100,3.6.1,legacy,legacy,8 9 5 7 1 6,osweb,1.4.0,1,4,y,37,,0,right,right,,space,right,right,right,593,16015,,9137,19169,34400,593,2,legacy,728,1366,24,768,24,0,0,1366,1632986294139,6,1024,2,48000,-16,experiment,0,even,Win32,7,548782,384845,,545516,80,546551,510540,80,9228,99746,550799,547566,551398,80,550799,Sternberg_updated,72,44957,81,yes,1024
89,89,556,556,black,no,experiment,Mozilla,Netscape,"5.0 (Windows NT 10.0; Win64; x64) AppleWebKit/537.36 (KHTML, like Gecko) Chrome/94.0.4606.61 Safari/537.36",legacy,legacy,legacy,0,uniform,1,1,right,81,81,81,81,0,0,0,81,81,0,0,0,81,81,81,0,0,81,81,0,30-08-21,30-08-21,09:17:16,Thu Sep 30 2021 09:17:16 GMT+0200 (Centraleuropæisk sommertid),The main experiment item,yes,0,0,/Users/ethan/Documents/GitHub/OpenSesame/Sternberg/experiment_files,0,0,0,no,mono,no,18,no,white,no,no,768,100,3.6.1,legacy,legacy,5 2 6,osweb,1.4.0,1,2,y,37,,0,right,right,,space,right,right,right,617,16015,,9137,19169,34400,617,2,legacy,728,1366,24,768,24,0,0,1366,1632986294139,3,1024,2,48000,-16,experiment,0,even,Win32,2,554664,384845,,551399,80,552438,510540,80,9228,99746,556681,553449,557314,80,556681,Sternberg_updated,73,45574,82,yes,1024
89,89,556,556,black,no,experiment,Mozilla,Netscape,"5.0 (Windows NT 10.0; Win64; x64) AppleWebKit/537.36 (KHTML, like Gecko) Chrome/94.0.4606.61 Safari/537.36",legacy,legacy,legacy,0,uniform,1,1,right,82,82,82,82,0,0,0,82,82,0,0,0,82,82,82,0,0,82,82,0,30-08-21,30-08-21,09:17:16,Thu Sep 30 2021 09:17:16 GMT+0200 (Centraleuropæisk sommertid),The main experiment item,yes,0,0,/Users/ethan/Documents/GitHub/OpenSesame/Sternberg/experiment_files,0,0,0,no,mono,no,18,no,white,no,no,768,100,3.6.1,legacy,legacy,4 7 6 8 2 3,osweb,1.4.0,1,6,y,37,,0,right,right,,space,right,right,right,553,16015,,9137,19169,34400,553,2,legacy,728,1366,24,768,24,0,0,1366,1632986294139,6,1024,2,48000,-16,experiment,0,even,Win32,3,560580,384845,,557315,80,558354,510540,80,9228,99746,562596,559364,563162,80,562596,Sternberg_updated,74,46127,83,yes,1024
89,89,555,555,black,no,experiment,Mozilla,Netscape,"5.0 (Windows NT 10.0; Win64; x64) AppleWebKit/537.36 (KHTML, like Gecko) Chrome/94.0.4606.61 Safari/537.36",legacy,legacy,legacy,0,uniform,1,1,right,83,83,83,83,0,0,0,83,83,0,0,0,83,83,83,0,0,83,83,0,30-08-21,30-08-21,09:17:16,Thu Sep 30 2021 09:17:16 GMT+0200 (Centraleuropæisk sommertid),The main experiment item,yes,0,0,/Users/ethan/Documents/GitHub/OpenSesame/Sternberg/experiment_files,0,0,0,no,mono,no,18,no,white,no,no,768,100,3.6.1,legacy,legacy,9 1 6 7 8,osweb,1.4.0,1,1,y,37,,0,right,right,,space,right,right,right,465,16015,,9137,19169,34400,465,2,legacy,728,1366,24,768,24,0,0,1366,1632986294139,5,1024,2,48000,-16,experiment,0,even,Win32,9,566429,384845,,563164,80,564206,510540,80,9228,99746,568446,565213,568911,80,568446,Sternberg_updated,75,46592,84,yes,1024
89,89,553,553,black,no,experiment,Mozilla,Netscape,"5.0 (Windows NT 10.0; Win64; x64) AppleWebKit/537.36 (KHTML, like Gecko) Chrome/94.0.4606.61 Safari/537.36",legacy,legacy,legacy,0,uniform,1,1,right,84,84,84,84,0,0,0,84,84,0,0,0,84,84,84,0,0,84,84,0,30-08-21,30-08-21,09:17:16,Thu Sep 30 2021 09:17:16 GMT+0200 (Centraleuropæisk sommertid),The main experiment item,yes,0,0,/Users/ethan/Documents/GitHub/OpenSesame/Sternberg/experiment_files,0,0,0,no,mono,no,18,no,white,no,no,768,100,3.6.1,legacy,legacy,6 5,osweb,1.4.0,1,2,y,37,,0,right,right,,space,right,right,right,417,16015,,9137,19169,34400,417,2,legacy,728,1366,24,768,24,0,0,1366,1632986294139,2,1024,2,48000,-16,experiment,0,even,Win32,5,572178,384845,,568912,80,569954,510540,80,9228,99746,574194,570962,574611,80,574194,Sternberg_updated,76,47009,85,yes,1024
90,90,553,553,black,no,experiment,Mozilla,Netscape,"5.0 (Windows NT 10.0; Win64; x64) AppleWebKit/537.36 (KHTML, like Gecko) Chrome/94.0.4606.61 Safari/537.36",legacy,legacy,legacy,0,uniform,1,1,right,85,85,85,85,0,0,0,85,85,0,0,0,85,85,85,0,0,85,85,0,30-08-21,30-08-21,09:17:16,Thu Sep 30 2021 09:17:16 GMT+0200 (Centraleuropæisk sommertid),The main experiment item,yes,0,0,/Users/ethan/Documents/GitHub/OpenSesame/Sternberg/experiment_files,0,0,0,no,mono,no,18,no,white,no,no,768,100,3.6.1,legacy,legacy,8 5 4 7 3 1,osweb,1.4.0,1,2,y,37,,0,right,right,,space,right,right,right,554,16015,,9137,19169,34400,554,2,legacy,728,1366,24,768,24,0,0,1366,1632986294139,6,1024,2,48000,-16,experiment,0,even,Win32,5,577877,384845,,574612,80,575647,510540,80,9228,99746,579893,576661,580460,80,579893,Sternberg_updated,77,47563,86,yes,1024
90,90,553,553,black,no,experiment,Mozilla,Netscape,"5.0 (Windows NT 10.0; Win64; x64) AppleWebKit/537.36 (KHTML, like Gecko) Chrome/94.0.4606.61 Safari/537.36",legacy,legacy,legacy,0,uniform,1,1,left,86,86,86,86,0,0,0,86,86,0,0,0,86,86,86,0,0,86,86,0,30-08-21,30-08-21,09:17:16,Thu Sep 30 2021 09:17:16 GMT+0200 (Centraleuropæisk sommertid),The main experiment item,yes,0,0,/Users/ethan/Documents/GitHub/OpenSesame/Sternberg/experiment_files,0,0,0,no,mono,no,18,no,white,no,no,768,100,3.6.1,legacy,legacy,6 3 1 7 9 8,osweb,1.4.0,1,0,n,37,,0,left,right,,space,right,right,left,548,16015,,9137,19169,34400,548,2,legacy,728,1366,24,768,24,0,0,1366,1632986294139,6,1024,2,48000,-16,experiment,0,even,Win32,4,583726,384845,,580461,80,581499,510540,80,9228,99746,585743,582510,586292,80,585742,Sternberg_updated,78,48111,87,yes,1024
90,90,551,551,black,no,experiment,Mozilla,Netscape,"5.0 (Windows NT 10.0; Win64; x64) AppleWebKit/537.36 (KHTML, like Gecko) Chrome/94.0.4606.61 Safari/537.36",legacy,legacy,legacy,0,uniform,1,1,right,87,87,87,87,0,0,0,87,87,0,0,0,87,87,87,0,0,87,87,0,30-08-21,30-08-21,09:17:16,Thu Sep 30 2021 09:17:16 GMT+0200 (Centraleuropæisk sommertid),The main experiment item,yes,0,0,/Users/ethan/Documents/GitHub/OpenSesame/Sternberg/experiment_files,0,0,0,no,mono,no,18,no,white,no,no,768,100,3.6.1,legacy,legacy,4 6 5 8,osweb,1.4.0,1,1,y,37,,0,right,right,,space,right,right,right,386,16015,,9137,19169,34400,386,2,legacy,728,1366,24,768,24,0,0,1366,1632986294139,4,1024,2,48000,-16,experiment,0,even,Win32,4,589558,384845,,586293,80,587328,510540,80,9228,99746,591575,588343,591974,80,591575,Sternberg_updated,79,48497,88,yes,1024
90,90,551,551,black,no,experiment,Mozilla,Netscape,"5.0 (Windows NT 10.0; Win64; x64) AppleWebKit/537.36 (KHTML, like Gecko) Chrome/94.0.4606.61 Safari/537.36",legacy,legacy,legacy,0,uniform,1,1,left,88,88,88,88,0,0,0,88,88,0,0,0,88,88,88,0,0,88,88,0,30-08-21,30-08-21,09:17:16,Thu Sep 30 2021 09:17:16 GMT+0200 (Centraleuropæisk sommertid),The main experiment item,yes,0,0,/Users/ethan/Documents/GitHub/OpenSesame/Sternberg/experiment_files,0,0,0,no,mono,no,18,no,white,no,no,768,100,3.6.1,legacy,legacy,1,osweb,1.4.0,1,0,n,37,,0,left,right,,space,right,right,left,499,16015,,9137,19169,34400,499,2,legacy,728,1366,24,768,24,0,0,1366,1632986294139,1,1024,2,48000,-16,experiment,0,even,Win32,7,595241,384845,,591975,80,593014,510540,80,9228,99746,597257,594024,597756,80,597257,Sternberg_updated,80,48996,89,yes,1024
89,89,554,554,black,no,experiment,Mozilla,Netscape,"5.0 (Windows NT 10.0; Win64; x64) AppleWebKit/537.36 (KHTML, like Gecko) Chrome/94.0.4606.61 Safari/537.36",legacy,legacy,legacy,0,uniform,0,0,right,89,89,89,89,0,0,0,89,89,0,0,0,89,89,89,0,0,89,89,0,30-08-21,30-08-21,09:17:16,Thu Sep 30 2021 09:17:16 GMT+0200 (Centraleuropæisk sommertid),The main experiment item,yes,0,0,/Users/ethan/Documents/GitHub/OpenSesame/Sternberg/experiment_files,0,0,0,no,mono,no,18,no,white,no,no,768,100,3.6.1,legacy,legacy,7 1 8 5 6 2,osweb,1.4.0,1,2,y,37,,0,left,right,,space,right,right,left,853,16015,,9137,19169,34400,853,2,legacy,728,1366,24,768,24,0,0,1366,1632986294139,6,1024,2,48000,-16,experiment,0,even,Win32,1,601023,384845,,597757,80,598792,510540,80,9228,99746,603039,599807,603905,80,603039,Sternberg_updated,80,49849,90,yes,1024
89,89,554,554,black,no,experiment,Mozilla,Netscape,"5.0 (Windows NT 10.0; Win64; x64) AppleWebKit/537.36 (KHTML, like Gecko) Chrome/94.0.4606.61 Safari/537.36",legacy,legacy,legacy,0,uniform,1,1,left,90,90,90,90,0,0,0,90,90,0,0,0,90,90,90,0,0,90,90,0,30-08-21,30-08-21,09:17:16,Thu Sep 30 2021 09:17:16 GMT+0200 (Centraleuropæisk sommertid),The main experiment item,yes,0,0,/Users/ethan/Documents/GitHub/OpenSesame/Sternberg/experiment_files,0,0,0,no,mono,no,18,no,white,no,no,768,100,3.6.1,legacy,legacy,2 6 4 3 9,osweb,1.4.0,1,0,n,37,,0,left,right,,space,right,right,left,574,16015,,9137,19169,34400,574,2,legacy,728,1366,24,768,24,0,0,1366,1632986294139,5,1024,2,48000,-16,experiment,0,even,Win32,1,607172,384845,,597757,80,604941,603906,80,9228,99746,609188,605956,609771,80,609188,Sternberg_updated,81,50423,91,yes,1024
89,89,553,553,black,no,experiment,Mozilla,Netscape,"5.0 (Windows NT 10.0; Win64; x64) AppleWebKit/537.36 (KHTML, like Gecko) Chrome/94.0.4606.61 Safari/537.36",legacy,legacy,legacy,0,uniform,1,1,right,91,91,91,91,0,0,0,91,91,0,0,0,91,91,91,0,0,91,91,0,30-08-21,30-08-21,09:17:16,Thu Sep 30 2021 09:17:16 GMT+0200 (Centraleuropæisk sommertid),The main experiment item,yes,0,0,/Users/ethan/Documents/GitHub/OpenSesame/Sternberg/experiment_files,0,0,0,no,mono,no,18,no,white,no,no,768,100,3.6.1,legacy,legacy,4 9 7 8 5 3,osweb,1.4.0,1,4,y,37,,0,right,right,,space,right,right,right,464,16015,,9137,19169,34400,464,2,legacy,728,1366,24,768,24,0,0,1366,1632986294139,6,1024,2,48000,-16,experiment,0,even,Win32,8,613038,384845,,609772,80,610817,603906,80,9228,99746,615054,611821,615520,80,615054,Sternberg_updated,82,50887,92,yes,1024
89,89,552,552,black,no,experiment,Mozilla,Netscape,"5.0 (Windows NT 10.0; Win64; x64) AppleWebKit/537.36 (KHTML, like Gecko) Chrome/94.0.4606.61 Safari/537.36",legacy,legacy,legacy,0,uniform,1,1,right,92,92,92,92,0,0,0,92,92,0,0,0,92,92,92,0,0,92,92,0,30-08-21,30-08-21,09:17:16,Thu Sep 30 2021 09:17:16 GMT+0200 (Centraleuropæisk sommertid),The main experiment item,yes,0,0,/Users/ethan/Documents/GitHub/OpenSesame/Sternberg/experiment_files,0,0,0,no,mono,no,18,no,white,no,no,768,100,3.6.1,legacy,legacy,8 1 6,osweb,1.4.0,1,3,y,37,,0,right,right,,space,right,right,right,489,16015,,9137,19169,34400,489,2,legacy,728,1366,24,768,24,0,0,1366,1632986294139,3,1024,2,48000,-16,experiment,0,even,Win32,6,618787,384845,,615521,80,616559,603906,80,9228,99746,620803,617570,621302,80,620803,Sternberg_updated,83,51376,93,yes,1024
89,89,551,551,black,no,experiment,Mozilla,Netscape,"5.0 (Windows NT 10.0; Win64; x64) AppleWebKit/537.36 (KHTML, like Gecko) Chrome/94.0.4606.61 Safari/537.36",legacy,legacy,legacy,0,uniform,1,1,left,93,93,93,93,0,0,0,93,93,0,0,0,93,93,93,0,0,93,93,0,30-08-21,30-08-21,09:17:16,Thu Sep 30 2021 09:17:16 GMT+0200 (Centraleuropæisk sommertid),The main experiment item,yes,0,0,/Users/ethan/Documents/GitHub/OpenSesame/Sternberg/experiment_files,0,0,0,no,mono,no,18,no,white,no,no,768,100,3.6.1,legacy,legacy,4 8 1 2,osweb,1.4.0,1,0,n,37,,0,left,right,,space,right,right,left,436,16015,,9137,19169,34400,436,2,legacy,728,1366,24,768,24,0,0,1366,1632986294139,4,1024,2,48000,-16,experiment,0,even,Win32,7,624569,384845,,621303,80,622342,603906,80,9228,99746,626585,623353,627035,80,626585,Sternberg_updated,84,51812,94,yes,1024
89,89,553,553,black,no,experiment,Mozilla,Netscape,"5.0 (Windows NT 10.0; Win64; x64) AppleWebKit/537.36 (KHTML, like Gecko) Chrome/94.0.4606.61 Safari/537.36",legacy,legacy,legacy,0,uniform,1,1,right,94,94,94,94,0,0,0,94,94,0,0,0,94,94,94,0,0,94,94,0,30-08-21,30-08-21,09:17:16,Thu Sep 30 2021 09:17:16 GMT+0200 (Centraleuropæisk sommertid),The main experiment item,yes,0,0,/Users/ethan/Documents/GitHub/OpenSesame/Sternberg/experiment_files,0,0,0,no,mono,no,18,no,white,no,no,768,100,3.6.1,legacy,legacy,2 4 6 9,osweb,1.4.0,1,3,y,37,,0,right,right,,space,right,right,right,705,16015,,9137,19169,34400,705,2,legacy,728,1366,24,768,24,0,0,1366,1632986294139,4,1024,2,48000,-16,experiment,0,even,Win32,6,630301,384845,,627036,80,628073,603906,80,9228,99746,632318,629085,633034,80,632318,Sternberg_updated,85,52517,95,yes,1024
90,90,555,555,black,no,experiment,Mozilla,Netscape,"5.0 (Windows NT 10.0; Win64; x64) AppleWebKit/537.36 (KHTML, like Gecko) Chrome/94.0.4606.61 Safari/537.36",legacy,legacy,legacy,0,uniform,1,1,left,95,95,95,95,0,0,0,95,95,0,0,0,95,95,95,0,0,95,95,0,30-08-21,30-08-21,09:17:16,Thu Sep 30 2021 09:17:16 GMT+0200 (Centraleuropæisk sommertid),The main experiment item,yes,0,0,/Users/ethan/Documents/GitHub/OpenSesame/Sternberg/experiment_files,0,0,0,no,mono,no,18,no,white,no,no,768,100,3.6.1,legacy,legacy,7 9,osweb,1.4.0,1,0,n,37,,0,left,right,,space,right,right,left,755,16015,,9137,19169,34400,755,2,legacy,728,1366,24,768,24,0,0,1366,1632986294139,2,1024,2,48000,-16,experiment,0,even,Win32,1,636300,384845,,633034,80,634072,603906,80,9228,99746,638317,635084,639082,80,638317,Sternberg_updated,86,53272,96,yes,1024
90,90,555,555,black,no,experiment,Mozilla,Netscape,"5.0 (Windows NT 10.0; Win64; x64) AppleWebKit/537.36 (KHTML, like Gecko) Chrome/94.0.4606.61 Safari/537.36",legacy,legacy,legacy,0,uniform,1,1,right,96,96,96,96,0,0,0,96,96,0,0,0,96,96,96,0,0,96,96,0,30-08-21,30-08-21,09:17:16,Thu Sep 30 2021 09:17:16 GMT+0200 (Centraleuropæisk sommertid),The main experiment item,yes,0,0,/Users/ethan/Documents/GitHub/OpenSesame/Sternberg/experiment_files,0,0,0,no,mono,no,18,no,white,no,no,768,100,3.6.1,legacy,legacy,6 8 9 3 4 9,osweb,1.4.0,1,5,y,37,,0,right,right,,space,right,right,right,601,16015,,9137,19169,34400,601,2,legacy,728,1366,24,768,24,0,0,1366,1632986294139,6,1024,2,48000,-16,experiment,0,even,Win32,4,642349,384845,,639084,80,640120,603906,80,9228,99746,644366,641133,644982,80,644365,Sternberg_updated,87,53873,97,yes,1024
90,90,556,556,black,no,experiment,Mozilla,Netscape,"5.0 (Windows NT 10.0; Win64; x64) AppleWebKit/537.36 (KHTML, like Gecko) Chrome/94.0.4606.61 Safari/537.36",legacy,legacy,legacy,0,uniform,1,1,left,97,97,97,97,0,0,0,97,97,0,0,0,97,97,97,0,0,97,97,0,30-08-21,30-08-21,09:17:16,Thu Sep 30 2021 09:17:16 GMT+0200 (Centraleuropæisk sommertid),The main experiment item,yes,0,0,/Users/ethan/Documents/GitHub/OpenSesame/Sternberg/experiment_files,0,0,0,no,mono,no,18,no,white,no,no,768,100,3.6.1,legacy,legacy,8 2 1 4 5 9,osweb,1.4.0,1,0,n,37,,0,left,right,right,space,right,right,left,605,16015,25748,9137,19169,34400,605,2,legacy,728,1366,24,768,24,0,0,1366,1632986294139,6,1024,2,48000,-16,experiment,0,even,Win32,7,674010,384845,645999,644983,80,671782,603906,80,9228,99746,676026,672794,676643,80,676026,Sternberg_updated,88,54478,98,yes,1024
90,90,554,554,black,no,experiment,Mozilla,Netscape,"5.0 (Windows NT 10.0; Win64; x64) AppleWebKit/537.36 (KHTML, like Gecko) Chrome/94.0.4606.61 Safari/537.36",legacy,legacy,legacy,0,uniform,1,1,left,98,98,98,98,0,0,0,98,98,0,0,0,98,98,98,0,0,98,98,0,30-08-21,30-08-21,09:17:16,Thu Sep 30 2021 09:17:16 GMT+0200 (Centraleuropæisk sommertid),The main experiment item,yes,0,0,/Users/ethan/Documents/GitHub/OpenSesame/Sternberg/experiment_files,0,0,0,no,mono,no,18,no,white,no,no,768,100,3.6.1,legacy,legacy,7 1,osweb,1.4.0,1,0,n,37,,0,left,right,right,space,right,right,left,353,16015,25748,9137,19169,34400,353,2,legacy,728,1366,24,768,24,0,0,1366,1632986294139,2,1024,2,48000,-16,experiment,0,even,Win32,8,679909,384845,645999,676644,80,677678,603906,80,9228,99746,681925,678693,682291,80,681925,Sternberg_updated,89,54831,99,yes,1024
90,90,553,553,black,no,experiment,Mozilla,Netscape,"5.0 (Windows NT 10.0; Win64; x64) AppleWebKit/537.36 (KHTML, like Gecko) Chrome/94.0.4606.61 Safari/537.36",legacy,legacy,legacy,0,uniform,1,1,right,99,99,99,99,0,0,0,99,99,0,0,0,99,99,99,0,0,99,99,0,30-08-21,30-08-21,09:17:16,Thu Sep 30 2021 09:17:16 GMT+0200 (Centraleuropæisk sommertid),The main experiment item,yes,0,0,/Users/ethan/Documents/GitHub/OpenSesame/Sternberg/experiment_files,0,0,0,no,mono,no,18,no,white,no,no,768,100,3.6.1,legacy,legacy,7 4 2 6 3 5,osweb,1.4.0,1,6,y,37,,0,right,right,right,space,right,right,right,465,16015,25748,9137,19169,34400,465,2,legacy,728,1366,24,768,24,0,0,1366,1632986294139,6,1024,2,48000,-16,experiment,0,even,Win32,5,685558,384845,645999,682292,80,683331,603906,80,9228,99746,687574,684342,688041,80,687574,Sternberg_updated,90,55296,100,yes,1024
90,90,552,552,black,no,experiment,Mozilla,Netscape,"5.0 (Windows NT 10.0; Win64; x64) AppleWebKit/537.36 (KHTML, like Gecko) Chrome/94.0.4606.61 Safari/537.36",legacy,legacy,legacy,0,uniform,1,1,right,100,100,100,100,0,0,0,100,100,0,0,0,100,100,100,0,0,100,100,0,30-08-21,30-08-21,09:17:16,Thu Sep 30 2021 09:17:16 GMT+0200 (Centraleuropæisk sommertid),The main experiment item,yes,0,0,/Users/ethan/Documents/GitHub/OpenSesame/Sternberg/experiment_files,0,0,0,no,mono,no,18,no,white,no,no,768,100,3.6.1,legacy,legacy,5 7 8 2 3 8,osweb,1.4.0,1,5,y,37,,0,right,right,right,space,right,right,right,496,16015,25748,9137,19169,34400,496,2,legacy,728,1366,24,768,24,0,0,1366,1632986294139,6,1024,2,48000,-16,experiment,0,even,Win32,3,691307,384845,645999,688042,80,689076,603906,80,9228,99746,693324,690091,693823,80,693323,Sternberg_updated,91,55792,101,yes,1024
89,89,554,554,black,no,experiment,Mozilla,Netscape,"5.0 (Windows NT 10.0; Win64; x64) AppleWebKit/537.36 (KHTML, like Gecko) Chrome/94.0.4606.61 Safari/537.36",legacy,legacy,legacy,0,uniform,0,0,left,101,101,101,101,0,0,0,101,101,0,0,0,101,101,101,0,0,101,101,0,30-08-21,30-08-21,09:17:16,Thu Sep 30 2021 09:17:16 GMT+0200 (Centraleuropæisk sommertid),The main experiment item,yes,0,0,/Users/ethan/Documents/GitHub/OpenSesame/Sternberg/experiment_files,0,0,0,no,mono,no,18,no,white,no,no,768,100,3.6.1,legacy,legacy,8 5 4 2 9 6,osweb,1.4.0,1,0,n,37,,0,right,right,right,space,right,right,right,733,16015,25748,9137,19169,34400,733,2,legacy,728,1366,24,768,24,0,0,1366,1632986294139,6,1024,2,48000,-16,experiment,0,even,Win32,3,697089,384845,645999,693824,80,694864,603906,80,9228,99746,699106,695873,699856,80,699106,Sternberg_updated,91,56525,102,yes,1024
89,89,554,554,black,no,experiment,Mozilla,Netscape,"5.0 (Windows NT 10.0; Win64; x64) AppleWebKit/537.36 (KHTML, like Gecko) Chrome/94.0.4606.61 Safari/537.36",legacy,legacy,legacy,0,uniform,1,1,left,102,102,102,102,0,0,0,102,102,0,0,0,102,102,102,0,0,102,102,0,30-08-21,30-08-21,09:17:16,Thu Sep 30 2021 09:17:16 GMT+0200 (Centraleuropæisk sommertid),The main experiment item,yes,0,0,/Users/ethan/Documents/GitHub/OpenSesame/Sternberg/experiment_files,0,0,0,no,mono,no,18,no,white,no,no,768,100,3.6.1,legacy,legacy,1 8 7,osweb,1.4.0,1,0,n,37,,0,left,right,right,space,right,right,left,518,16015,25748,9137,19169,34400,518,2,legacy,728,1366,24,768,24,0,0,1366,1632986294139,3,1024,2,48000,-16,experiment,0,even,Win32,4,703121,384845,645999,693824,80,700891,699858,80,9228,99746,705138,701905,705671,80,705138,Sternberg_updated,92,57043,103,yes,1024
89,89,555,555,black,no,experiment,Mozilla,Netscape,"5.0 (Windows NT 10.0; Win64; x64) AppleWebKit/537.36 (KHTML, like Gecko) Chrome/94.0.4606.61 Safari/537.36",legacy,legacy,legacy,0,uniform,1,1,right,103,103,103,103,0,0,0,103,103,0,0,0,103,103,103,0,0,103,103,0,30-08-21,30-08-21,09:17:16,Thu Sep 30 2021 09:17:16 GMT+0200 (Centraleuropæisk sommertid),The main experiment item,yes,0,0,/Users/ethan/Documents/GitHub/OpenSesame/Sternberg/experiment_files,0,0,0,no,mono,no,18,no,white,no,no,768,100,3.6.1,legacy,legacy,6 7 9 3 1 2,osweb,1.4.0,1,1,y,37,,0,right,right,right,space,right,right,right,701,16015,25748,9137,19169,34400,701,2,legacy,728,1366,24,768,24,0,0,1366,1632986294139,6,1024,2,48000,-16,experiment,0,even,Win32,6,708937,384845,645999,705672,80,706712,699858,80,9228,99746,710954,707721,711670,80,710954,Sternberg_updated,93,57744,104,yes,1024
90,90,555,555,black,no,experiment,Mozilla,Netscape,"5.0 (Windows NT 10.0; Win64; x64) AppleWebKit/537.36 (KHTML, like Gecko) Chrome/94.0.4606.61 Safari/537.36",legacy,legacy,legacy,0,uniform,1,1,left,104,104,104,104,0,0,0,104,104,0,0,0,104,104,104,0,0,104,104,0,30-08-21,30-08-21,09:17:16,Thu Sep 30 2021 09:17:16 GMT+0200 (Centraleuropæisk sommertid),The main experiment item,yes,0,0,/Users/ethan/Documents/GitHub/OpenSesame/Sternberg/experiment_files,0,0,0,no,mono,no,18,no,white,no,no,768,100,3.6.1,legacy,legacy,1 5 3 2 8,osweb,1.4.0,1,0,n,37,,0,left,right,right,space,right,right,left,543,16015,25748,9137,19169,34400,543,2,legacy,728,1366,24,768,24,0,0,1366,1632986294139,5,1024,2,48000,-16,experiment,0,even,Win32,4,714936,384845,645999,711671,80,712709,699858,80,9228,99746,716953,713720,717502,80,716953,Sternberg_updated,94,58287,105,yes,1024
90,90,555,555,black,no,experiment,Mozilla,Netscape,"5.0 (Windows NT 10.0; Win64; x64) AppleWebKit/537.36 (KHTML, like Gecko) Chrome/94.0.4606.61 Safari/537.36",legacy,legacy,legacy,0,uniform,1,1,left,105,105,105,105,0,0,0,105,105,0,0,0,105,105,105,0,0,105,105,0,30-08-21,30-08-21,09:17:16,Thu Sep 30 2021 09:17:16 GMT+0200 (Centraleuropæisk sommertid),The main experiment item,yes,0,0,/Users/ethan/Documents/GitHub/OpenSesame/Sternberg/experiment_files,0,0,0,no,mono,no,18,no,white,no,no,768,100,3.6.1,legacy,legacy,8 6 3 4 7,osweb,1.4.0,1,0,n,37,,0,left,right,right,space,right,right,left,527,16015,25748,9137,19169,34400,527,2,legacy,728,1366,24,768,24,0,0,1366,1632986294139,5,1024,2,48000,-16,experiment,0,even,Win32,1,720768,384845,645999,717503,80,718541,699858,80,9228,99746,722785,719552,723318,80,722785,Sternberg_updated,95,58814,106,yes,1024
90,90,554,554,black,no,experiment,Mozilla,Netscape,"5.0 (Windows NT 10.0; Win64; x64) AppleWebKit/537.36 (KHTML, like Gecko) Chrome/94.0.4606.61 Safari/537.36",legacy,legacy,legacy,0,uniform,1,1,left,106,106,106,106,0,0,0,106,106,0,0,0,106,106,106,0,0,106,106,0,30-08-21,30-08-21,09:17:16,Thu Sep 30 2021 09:17:16 GMT+0200 (Centraleuropæisk sommertid),The main experiment item,yes,0,0,/Users/ethan/Documents/GitHub/OpenSesame/Sternberg/experiment_files,0,0,0,no,mono,no,18,no,white,no,no,768,100,3.6.1,legacy,legacy,8 5 7 3 6,osweb,1.4.0,1,0,n,37,,0,left,right,right,space,right,right,left,501,16015,25748,9137,19169,34400,501,2,legacy,728,1366,24,768,24,0,0,1366,1632986294139,5,1024,2,48000,-16,experiment,0,even,Win32,9,726584,384845,645999,723319,80,724361,699858,80,9228,99746,728600,725368,729101,80,728600,Sternberg_updated,96,59315,107,yes,1024
90,90,553,553,black,no,experiment,Mozilla,Netscape,"5.0 (Windows NT 10.0; Win64; x64) AppleWebKit/537.36 (KHTML, like Gecko) Chrome/94.0.4606.61 Safari/537.36",legacy,legacy,legacy,0,uniform,1,1,right,107,107,107,107,0,0,0,107,107,0,0,0,107,107,107,0,0,107,107,0,30-08-21,30-08-21,09:17:16,Thu Sep 30 2021 09:17:16 GMT+0200 (Centraleuropæisk sommertid),The main experiment item,yes,0,0,/Users/ethan/Documents/GitHub/OpenSesame/Sternberg/experiment_files,0,0,0,no,mono,no,18,no,white,no,no,768,100,3.6.1,legacy,legacy,7 1 3,osweb,1.4.0,1,2,y,37,,0,right,right,right,space,right,right,right,370,16015,25748,9137,19169,34400,370,2,legacy,728,1366,24,768,24,0,0,1366,1632986294139,3,1024,2,48000,-16,experiment,0,even,Win32,1,732367,384845,645999,729102,80,730138,699858,80,9228,99746,734383,731150,734766,80,734383,Sternberg_updated,97,59685,108,yes,1024
90,90,553,553,black,no,experiment,Mozilla,Netscape,"5.0 (Windows NT 10.0; Win64; x64) AppleWebKit/537.36 (KHTML, like Gecko) Chrome/94.0.4606.61 Safari/537.36",legacy,legacy,legacy,0,uniform,1,1,left,108,108,108,108,0,0,0,108,108,0,0,0,108,108,108,0,0,108,108,0,30-08-21,30-08-21,09:17:16,Thu Sep 30 2021 09:17:16 GMT+0200 (Centraleuropæisk sommertid),The main experiment item,yes,0,0,/Users/ethan/Documents/GitHub/OpenSesame/Sternberg/experiment_files,0,0,0,no,mono,no,18,no,white,no,no,768,100,3.6.1,legacy,legacy,2 5 1 4,osweb,1.4.0,1,0,n,37,,0,left,right,right,space,right,right,left,559,16015,25748,9137,19169,34400,559,2,legacy,728,1366,24,768,24,0,0,1366,1632986294139,4,1024,2,48000,-16,experiment,0,even,Win32,6,738032,384845,645999,734769,80,735802,699858,80,9228,99746,740049,736816,740615,80,740048,Sternberg_updated,98,60244,109,yes,1024
89,89,553,553,black,no,experiment,Mozilla,Netscape,"5.0 (Windows NT 10.0; Win64; x64) AppleWebKit/537.36 (KHTML, like Gecko) Chrome/94.0.4606.61 Safari/537.36",legacy,legacy,legacy,0,uniform,0,0,right,109,109,109,109,0,0,0,109,109,0,0,0,109,109,109,0,0,109,109,0,30-08-21,30-08-21,09:17:16,Thu Sep 30 2021 09:17:16 GMT+0200 (Centraleuropæisk sommertid),The main experiment item,yes,0,0,/Users/ethan/Documents/GitHub/OpenSesame/Sternberg/experiment_files,0,0,0,no,mono,no,18,no,white,no,no,768,100,3.6.1,legacy,legacy,2 4 8 5 1 3,osweb,1.4.0,1,1,y,37,,0,left,right,right,space,right,right,left,574,16015,25748,9137,19169,34400,574,2,legacy,728,1366,24,768,24,0,0,1366,1632986294139,6,1024,2,48000,-16,experiment,0,even,Win32,2,743881,384845,645999,740616,80,741651,699858,80,9228,99746,745897,742665,746480,80,745897,Sternberg_updated,98,60818,110,yes,1024
89,89,552,552,black,no,experiment,Mozilla,Netscape,"5.0 (Windows NT 10.0; Win64; x64) AppleWebKit/537.36 (KHTML, like Gecko) Chrome/94.0.4606.61 Safari/537.36",legacy,legacy,legacy,0,uniform,1,1,right,110,110,110,110,0,0,0,110,110,0,0,0,110,110,110,0,0,110,110,0,30-08-21,30-08-21,09:17:16,Thu Sep 30 2021 09:17:16 GMT+0200 (Centraleuropæisk sommertid),The main experiment item,yes,0,0,/Users/ethan/Documents/GitHub/OpenSesame/Sternberg/experiment_files,0,0,0,no,mono,no,18,no,white,no,no,768,100,3.6.1,legacy,legacy,3 2 1 4 7,osweb,1.4.0,1,2,y,37,,0,right,right,right,space,right,right,right,506,16015,25748,9137,19169,34400,506,2,legacy,728,1366,24,768,24,0,0,1366,1632986294139,5,1024,2,48000,-16,experiment,0,even,Win32,2,749747,384845,645999,740616,80,747517,746481,80,9228,99746,751763,748530,752279,80,751763,Sternberg_updated,99,61324,111,yes,1024
89,89,551,551,black,no,experiment,Mozilla,Netscape,"5.0 (Windows NT 10.0; Win64; x64) AppleWebKit/537.36 (KHTML, like Gecko) Chrome/94.0.4606.61 Safari/537.36",legacy,legacy,legacy,0,uniform,1,1,right,111,111,111,111,0,0,0,111,111,0,0,0,111,111,111,0,0,111,111,0,30-08-21,30-08-21,09:17:16,Thu Sep 30 2021 09:17:16 GMT+0200 (Centraleuropæisk sommertid),The main experiment item,yes,0,0,/Users/ethan/Documents/GitHub/OpenSesame/Sternberg/experiment_files,0,0,0,no,mono,no,18,no,white,no,no,768,100,3.6.1,legacy,legacy,9 3 8 2 1 4,osweb,1.4.0,1,3,y,37,,0,right,right,right,space,right,right,right,374,16015,25748,9137,19169,34400,374,2,legacy,728,1366,24,768,24,0,0,1366,1632986294139,6,1024,2,48000,-16,experiment,0,even,Win32,8,755546,384845,645999,752280,80,753314,746481,80,9228,99746,757562,754329,757945,80,757562,Sternberg_updated,100,61698,112,yes,1024
89,89,549,549,black,no,experiment,Mozilla,Netscape,"5.0 (Windows NT 10.0; Win64; x64) AppleWebKit/537.36 (KHTML, like Gecko) Chrome/94.0.4606.61 Safari/537.36",legacy,legacy,legacy,0,uniform,1,1,right,112,112,112,112,0,0,0,112,112,0,0,0,112,112,112,0,0,112,112,0,30-08-21,30-08-21,09:17:16,Thu Sep 30 2021 09:17:16 GMT+0200 (Centraleuropæisk sommertid),The main experiment item,yes,0,0,/Users/ethan/Documents/GitHub/OpenSesame/Sternberg/experiment_files,0,0,0,no,mono,no,18,no,white,no,no,768,100,3.6.1,legacy,legacy,2 3 7 4,osweb,1.4.0,1,1,y,37,,0,right,right,right,space,right,right,right,381,16015,25748,9137,19169,34400,381,2,legacy,728,1366,24,768,24,0,0,1366,1632986294139,4,1024,2,48000,-16,experiment,0,even,Win32,2,761212,384845,645999,757946,80,758979,746481,80,9228,99746,763228,759996,763611,80,763228,Sternberg_updated,101,62079,113,yes,1024
89,89,549,549,black,no,experiment,Mozilla,Netscape,"5.0 (Windows NT 10.0; Win64; x64) AppleWebKit/537.36 (KHTML, like Gecko) Chrome/94.0.4606.61 Safari/537.36",legacy,legacy,legacy,0,uniform,1,1,left,113,113,113,113,0,0,0,113,113,0,0,0,113,113,113,0,0,113,113,0,30-08-21,30-08-21,09:17:16,Thu Sep 30 2021 09:17:16 GMT+0200 (Centraleuropæisk sommertid),The main experiment item,yes,0,0,/Users/ethan/Documents/GitHub/OpenSesame/Sternberg/experiment_files,0,0,0,no,mono,no,18,no,white,no,no,768,100,3.6.1,legacy,legacy,1 4 3 6 5,osweb,1.4.0,1,0,n,37,,0,left,right,right,space,right,right,left,544,16015,25748,9137,19169,34400,544,2,legacy,728,1366,24,768,24,0,0,1366,1632986294139,5,1024,2,48000,-16,experiment,0,even,Win32,8,766877,384845,645999,763612,80,764647,746481,80,9228,99746,768894,765661,769443,80,768894,Sternberg_updated,102,62623,114,yes,1024
90,90,551,551,black,no,experiment,Mozilla,Netscape,"5.0 (Windows NT 10.0; Win64; x64) AppleWebKit/537.36 (KHTML, like Gecko) Chrome/94.0.4606.61 Safari/537.36",legacy,legacy,legacy,0,uniform,1,1,left,114,114,114,114,0,0,0,114,114,0,0,0,114,114,114,0,0,114,114,0,30-08-21,30-08-21,09:17:16,Thu Sep 30 2021 09:17:16 GMT+0200 (Centraleuropæisk sommertid),The main experiment item,yes,0,0,/Users/ethan/Documents/GitHub/OpenSesame/Sternberg/experiment_files,0,0,0,no,mono,no,18,no,white,no,no,768,100,3.6.1,legacy,legacy,5,osweb,1.4.0,1,0,n,37,,0,left,right,right,space,right,right,left,754,16015,25748,9137,19169,34400,754,2,legacy,728,1366,24,768,24,0,0,1366,1632986294139,1,1024,2,48000,-16,experiment,0,even,Win32,8,772709,384845,645999,769444,80,770478,746481,80,9228,99746,774726,771493,775492,80,774726,Sternberg_updated,103,63377,115,yes,1024
90,90,550,550,black,no,experiment,Mozilla,Netscape,"5.0 (Windows NT 10.0; Win64; x64) AppleWebKit/537.36 (KHTML, like Gecko) Chrome/94.0.4606.61 Safari/537.36",legacy,legacy,legacy,0,uniform,1,1,right,115,115,115,115,0,0,0,115,115,0,0,0,115,115,115,0,0,115,115,0,30-08-21,30-08-21,09:17:16,Thu Sep 30 2021 09:17:16 GMT+0200 (Centraleuropæisk sommertid),The main experiment item,yes,0,0,/Users/ethan/Documents/GitHub/OpenSesame/Sternberg/experiment_files,0,0,0,no,mono,no,18,no,white,no,no,768,100,3.6.1,legacy,legacy,8 5 1 3 9,osweb,1.4.0,1,4,y,37,,0,right,right,right,space,right,right,right,445,16015,25748,9137,19169,34400,445,2,legacy,728,1366,24,768,24,0,0,1366,1632986294139,5,1024,2,48000,-16,experiment,0,even,Win32,3,778758,384845,645999,775493,80,776529,746481,80,9228,99746,780775,777542,781224,80,780775,Sternberg_updated,104,63822,116,yes,1024
90,90,548,548,black,no,experiment,Mozilla,Netscape,"5.0 (Windows NT 10.0; Win64; x64) AppleWebKit/537.36 (KHTML, like Gecko) Chrome/94.0.4606.61 Safari/537.36",legacy,legacy,legacy,0,uniform,1,1,right,116,116,116,116,0,0,0,116,116,0,0,0,116,116,116,0,0,116,116,0,30-08-21,30-08-21,09:17:16,Thu Sep 30 2021 09:17:16 GMT+0200 (Centraleuropæisk sommertid),The main experiment item,yes,0,0,/Users/ethan/Documents/GitHub/OpenSesame/Sternberg/experiment_files,0,0,0,no,mono,no,18,no,white,no,no,768,100,3.6.1,legacy,legacy,6 1 2,osweb,1.4.0,1,3,y,37,,0,right,right,right,space,right,right,right,339,16015,25748,9137,19169,34400,339,2,legacy,728,1366,24,768,24,0,0,1366,1632986294139,3,1024,2,48000,-16,experiment,0,even,Win32,2,784491,384845,645999,781225,80,782263,746481,80,9228,99746,786513,783274,786857,80,786513,Sternberg_updated,105,64161,117,yes,1024
90,90,548,548,black,no,experiment,Mozilla,Netscape,"5.0 (Windows NT 10.0; Win64; x64) AppleWebKit/537.36 (KHTML, like Gecko) Chrome/94.0.4606.61 Safari/537.36",legacy,legacy,legacy,0,uniform,1,1,left,117,117,117,117,0,0,0,117,117,0,0,0,117,117,117,0,0,117,117,0,30-08-21,30-08-21,09:17:16,Thu Sep 30 2021 09:17:16 GMT+0200 (Centraleuropæisk sommertid),The main experiment item,yes,0,0,/Users/ethan/Documents/GitHub/OpenSesame/Sternberg/experiment_files,0,0,0,no,mono,no,18,no,white,no,no,768,100,3.6.1,legacy,legacy,2 8 9,osweb,1.4.0,1,0,n,37,,0,left,right,right,space,right,right,left,556,16015,25748,9137,19169,34400,556,2,legacy,728,1366,24,768,24,0,0,1366,1632986294139,3,1024,2,48000,-16,experiment,0,even,Win32,6,790123,384845,645999,786858,80,787893,746481,80,9228,99746,792139,788907,792706,80,792139,Sternberg_updated,106,64717,118,yes,1024
90,90,548,548,black,no,experiment,Mozilla,Netscape,"5.0 (Windows NT 10.0; Win64; x64) AppleWebKit/537.36 (KHTML, like Gecko) Chrome/94.0.4606.61 Safari/537.36",legacy,legacy,legacy,0,uniform,1,1,right,118,118,118,118,0,0,0,118,118,0,0,0,118,118,118,0,0,118,118,0,30-08-21,30-08-21,09:17:16,Thu Sep 30 2021 09:17:16 GMT+0200 (Centraleuropæisk sommertid),The main experiment item,yes,0,0,/Users/ethan/Documents/GitHub/OpenSesame/Sternberg/experiment_files,0,0,0,no,mono,no,18,no,white,no,no,768,100,3.6.1,legacy,legacy,5 7 3 6 2,osweb,1.4.0,1,5,y,37,,0,right,right,right,space,right,right,right,453,16015,25748,9137,19169,34400,453,2,legacy,728,1366,24,768,24,0,0,1366,1632986294139,5,1024,2,48000,-16,experiment,0,even,Win32,2,795972,384845,645999,792706,80,793740,746481,80,9228,99746,797988,794755,798455,80,797988,Sternberg_updated,107,65170,119,yes,1024
