acc,accuracy,average_response_time,avg_rt,background,bidi,block,browser_codename,browser_name,browser_version,canvas_backend,clock_backend,color_backend,compensation,coordinates,correct,correct_keyboard_response,correct_response,count_ISI,count_break1,count_break_2,count_correct_feedback,count_credits,count_experiment,count_experimentLoop,count_fixation,count_incorrect_feedback,count_instructions1a,count_instructions1b,count_instructions2,count_keyboard_response,count_memory_set,count_new_logger,count_osweb,count_practiceLoop,count_practiceSequence,count_probe,count_thankYou,date_startdate,date_startdateUTC,date_starttime,datetime,description,disable_garbage_collection,experiment_debug,experiment_parameters,experiment_path,experiment_pilot,experiment_taskname,experiment_taskversion,font_bold,font_family,font_italic,font_size,font_underline,foreground,form_clicks,fullscreen,height,jatosStudyResultId,jatosVersion,keyboard_backend,mouse_backend,numberSet,opensesame_codename,opensesame_version,penwidth,posInSet,present,queryParams_batchId,queryParams_generalMultiple,repeat_cycle,response,response_break1,response_break_2,response_instructions1a,response_instructions1b,response_instructions2,response_keyboard_response,response_time,response_time_break1,response_time_break_2,response_time_instructions1a,response_time_instructions1b,response_time_instructions2,response_time_keyboard_response,round_decimals,sampler_backend,screen_availableHeight,screen_availableWidth,screen_colorDepth,screen_height,screen_pixelDepth,screen_screenX,screen_screenY,screen_width,sessionid,setSize,sound_buf_size,sound_channels,sound_freq,sound_sample_size,start,subject_nr,subject_parity,system_os,target,time_ISI,time_break1,time_break_2,time_correct_feedback,time_experimentLoop,time_fixation,time_incorrect_feedback,time_instructions1a,time_instructions1b,time_instructions2,time_keyboard_response,time_memory_set,time_new_logger,time_practiceLoop,time_probe,title,total_correct,total_response_time,total_responses,uniform_coordinates,width
100,100,1483,1483,black,no,practice,Mozilla,Netscape,"5.0 (Windows NT 10.0; Win64; x64) AppleWebKit/537.36 (KHTML, like Gecko) Chrome/94.0.4606.61 Safari/537.36",legacy,legacy,legacy,0,uniform,1,1,left,0,0,0,0,0,0,0,0,0,0,0,0,0,0,0,0,0,0,0,0,30-08-21,30-08-21,09:17:17,Thu Sep 30 2021 09:17:17 GMT+0200 (Central European Summer Time),The main experiment item,yes,0,0,/Users/ethan/Documents/GitHub/OpenSesame/Sternberg/experiment_files,0,0,0,no,mono,no,18,no,white,no,no,768,102,3.6.1,legacy,legacy,5 7 8 4 1 2,osweb,1.4.0,1,0,n,37,,0,left,,,space,up,,left,1483,,,7987,24429,,1483,2,legacy,824,1536,24,864,24,0,0,1536,1632986326510,6,1024,2,48000,-16,experiment,0,even,Win32,6,34809,,,,84,32591,,84,8078,,36827,33593,38324,84,36825,Sternberg_updated,1,1483,1,yes,1024
100,100,1644,1644,black,no,practice,Mozilla,Netscape,"5.0 (Windows NT 10.0; Win64; x64) AppleWebKit/537.36 (KHTML, like Gecko) Chrome/94.0.4606.61 Safari/537.36",legacy,legacy,legacy,0,uniform,1,1,left,1,1,1,1,0,0,0,1,1,0,0,0,1,1,1,0,0,1,1,0,30-08-21,30-08-21,09:17:17,Thu Sep 30 2021 09:17:17 GMT+0200 (Central European Summer Time),The main experiment item,yes,0,0,/Users/ethan/Documents/GitHub/OpenSesame/Sternberg/experiment_files,0,0,0,no,mono,no,18,no,white,no,no,768,102,3.6.1,legacy,legacy,3 1 9 4,osweb,1.4.0,1,0,n,37,,0,left,,,space,up,,left,1804,,,7987,24429,,1804,2,legacy,824,1536,24,864,24,0,0,1536,1632986326510,4,1024,2,48000,-16,experiment,0,even,Win32,6,41641,,,38341,84,39407,,84,8078,,43657,40425,45472,84,43657,Sternberg_updated,2,3287,2,yes,1024
100,100,1417,1417,black,no,practice,Mozilla,Netscape,"5.0 (Windows NT 10.0; Win64; x64) AppleWebKit/537.36 (KHTML, like Gecko) Chrome/94.0.4606.61 Safari/537.36",legacy,legacy,legacy,0,uniform,1,1,right,2,2,2,2,0,0,0,2,2,0,0,0,2,2,2,0,0,2,2,0,30-08-21,30-08-21,09:17:17,Thu Sep 30 2021 09:17:17 GMT+0200 (Central European Summer Time),The main experiment item,yes,0,0,/Users/ethan/Documents/GitHub/OpenSesame/Sternberg/experiment_files,0,0,0,no,mono,no,18,no,white,no,no,768,102,3.6.1,legacy,legacy,1 7 9 8 5,osweb,1.4.0,1,4,y,37,,0,right,,,space,up,,right,964,,,7987,24429,,964,2,legacy,824,1536,24,864,24,0,0,1536,1632986326510,5,1024,2,48000,-16,experiment,0,even,Win32,8,48755,,,45474,84,46529,,84,8078,,50772,47540,51739,84,50772,Sternberg_updated,3,4251,3,yes,1024
75,75,1305,1305,black,no,practice,Mozilla,Netscape,"5.0 (Windows NT 10.0; Win64; x64) AppleWebKit/537.36 (KHTML, like Gecko) Chrome/94.0.4606.61 Safari/537.36",legacy,legacy,legacy,0,uniform,0,0,right,3,3,3,3,0,0,0,3,3,0,0,0,3,3,3,0,0,3,3,0,30-08-21,30-08-21,09:17:17,Thu Sep 30 2021 09:17:17 GMT+0200 (Central European Summer Time),The main experiment item,yes,0,0,/Users/ethan/Documents/GitHub/OpenSesame/Sternberg/experiment_files,0,0,0,no,mono,no,18,no,white,no,no,768,102,3.6.1,legacy,legacy,4 3 1 7 9 8,osweb,1.4.0,1,1,y,37,,0,left,,,space,up,,left,967,,,7987,24429,,967,2,legacy,824,1536,24,864,24,0,0,1536,1632986326510,6,1024,2,48000,-16,experiment,0,even,Win32,4,55021,,,51741,84,52795,,84,8078,,57037,53804,58019,84,57037,Sternberg_updated,3,5218,4,yes,1024
80,80,1202,1202,black,no,practice,Mozilla,Netscape,"5.0 (Windows NT 10.0; Win64; x64) AppleWebKit/537.36 (KHTML, like Gecko) Chrome/94.0.4606.61 Safari/537.36",legacy,legacy,legacy,0,uniform,1,1,right,4,4,4,4,0,0,0,4,4,0,0,0,4,4,4,0,0,4,4,0,30-08-21,30-08-21,09:17:17,Thu Sep 30 2021 09:17:17 GMT+0200 (Central European Summer Time),The main experiment item,yes,0,0,/Users/ethan/Documents/GitHub/OpenSesame/Sternberg/experiment_files,0,0,0,no,mono,no,18,no,white,no,no,768,102,3.6.1,legacy,legacy,2 9 4,osweb,1.4.0,1,3,y,37,,0,right,,,space,up,,right,791,,,7987,24429,,791,2,legacy,824,1536,24,864,24,0,0,1536,1632986326510,3,1024,2,48000,-16,experiment,0,even,Win32,4,61302,,,51741,84,59076,58021,84,8078,,63319,60086,64118,84,63319,Sternberg_updated,4,6009,5,yes,1024
83,83,1178,1178,black,no,practice,Mozilla,Netscape,"5.0 (Windows NT 10.0; Win64; x64) AppleWebKit/537.36 (KHTML, like Gecko) Chrome/94.0.4606.61 Safari/537.36",legacy,legacy,legacy,0,uniform,1,1,left,5,5,5,5,0,0,0,5,5,0,0,0,5,5,5,0,0,5,5,0,30-08-21,30-08-21,09:17:17,Thu Sep 30 2021 09:17:17 GMT+0200 (Central European Summer Time),The main experiment item,yes,0,0,/Users/ethan/Documents/GitHub/OpenSesame/Sternberg/experiment_files,0,0,0,no,mono,no,18,no,white,no,no,768,102,3.6.1,legacy,legacy,9 6 7 4 5,osweb,1.4.0,1,0,n,37,,0,left,,,space,up,,left,1057,,,7987,24429,,1057,2,legacy,824,1536,24,864,24,0,0,1536,1632986326510,5,1024,2,48000,-16,experiment,0,even,Win32,3,67401,,,64120,84,65174,58021,84,8078,,69417,66185,70483,84,69417,Sternberg_updated,5,7066,6,yes,1024
86,86,1183,1183,black,no,practice,Mozilla,Netscape,"5.0 (Windows NT 10.0; Win64; x64) AppleWebKit/537.36 (KHTML, like Gecko) Chrome/94.0.4606.61 Safari/537.36",legacy,legacy,legacy,0,uniform,1,1,right,6,6,6,6,0,0,0,6,6,0,0,0,6,6,6,0,0,6,6,0,30-08-21,30-08-21,09:17:17,Thu Sep 30 2021 09:17:17 GMT+0200 (Central European Summer Time),The main experiment item,yes,0,0,/Users/ethan/Documents/GitHub/OpenSesame/Sternberg/experiment_files,0,0,0,no,mono,no,18,no,white,no,no,768,102,3.6.1,legacy,legacy,6,osweb,1.4.0,1,1,y,37,,0,right,,,space,up,,right,1215,,,7987,24429,,1215,2,legacy,824,1536,24,864,24,0,0,1536,1632986326510,1,1024,2,48000,-16,experiment,0,even,Win32,6,73766,,,70485,84,71534,58021,84,8078,,75783,72550,76999,84,75783,Sternberg_updated,6,8281,7,yes,1024
88,88,1143,1143,black,no,practice,Mozilla,Netscape,"5.0 (Windows NT 10.0; Win64; x64) AppleWebKit/537.36 (KHTML, like Gecko) Chrome/94.0.4606.61 Safari/537.36",legacy,legacy,legacy,0,uniform,1,1,left,7,7,7,7,0,0,0,7,7,0,0,0,7,7,7,0,0,7,7,0,30-08-21,30-08-21,09:17:17,Thu Sep 30 2021 09:17:17 GMT+0200 (Central European Summer Time),The main experiment item,yes,0,0,/Users/ethan/Documents/GitHub/OpenSesame/Sternberg/experiment_files,0,0,0,no,mono,no,18,no,white,no,no,768,102,3.6.1,legacy,legacy,4 1 5,osweb,1.4.0,1,0,n,37,,0,left,,,space,up,,left,865,,,7987,24429,,865,2,legacy,824,1536,24,864,24,0,0,1536,1632986326510,3,1024,2,48000,-16,experiment,0,even,Win32,2,80281,,,77001,84,78048,58021,84,8078,,82297,79065,83163,84,82297,Sternberg_updated,7,9146,8,yes,1024
89,89,1090,1090,black,no,practice,Mozilla,Netscape,"5.0 (Windows NT 10.0; Win64; x64) AppleWebKit/537.36 (KHTML, like Gecko) Chrome/94.0.4606.61 Safari/537.36",legacy,legacy,legacy,0,uniform,1,1,left,8,8,8,8,0,0,0,8,8,0,0,0,8,8,8,0,0,8,8,0,30-08-21,30-08-21,09:17:17,Thu Sep 30 2021 09:17:17 GMT+0200 (Central European Summer Time),The main experiment item,yes,0,0,/Users/ethan/Documents/GitHub/OpenSesame/Sternberg/experiment_files,0,0,0,no,mono,no,18,no,white,no,no,768,102,3.6.1,legacy,legacy,2 1,osweb,1.4.0,1,0,n,37,,0,left,,,space,up,,left,660,,,7987,24429,,660,2,legacy,824,1536,24,864,24,0,0,1536,1632986326510,2,1024,2,48000,-16,experiment,0,even,Win32,5,86446,,,83165,84,84218,58021,84,8078,,88463,85230,89128,84,88463,Sternberg_updated,8,9806,9,yes,1024
90,90,1058,1058,black,no,practice,Mozilla,Netscape,"5.0 (Windows NT 10.0; Win64; x64) AppleWebKit/537.36 (KHTML, like Gecko) Chrome/94.0.4606.61 Safari/537.36",legacy,legacy,legacy,0,uniform,1,1,left,9,9,9,9,0,0,0,9,9,0,0,0,9,9,9,0,0,9,9,0,30-08-21,30-08-21,09:17:17,Thu Sep 30 2021 09:17:17 GMT+0200 (Central European Summer Time),The main experiment item,yes,0,0,/Users/ethan/Documents/GitHub/OpenSesame/Sternberg/experiment_files,0,0,0,no,mono,no,18,no,white,no,no,768,102,3.6.1,legacy,legacy,5,osweb,1.4.0,1,0,n,37,,0,left,,,space,up,,left,777,,,7987,24429,,777,2,legacy,824,1536,24,864,24,0,0,1536,1632986326510,1,1024,2,48000,-16,experiment,0,even,Win32,3,92411,,,89130,84,90181,58021,84,8078,,94430,91195,95210,84,94430,Sternberg_updated,9,10583,10,yes,1024
91,91,1055,1055,black,no,practice,Mozilla,Netscape,"5.0 (Windows NT 10.0; Win64; x64) AppleWebKit/537.36 (KHTML, like Gecko) Chrome/94.0.4606.61 Safari/537.36",legacy,legacy,legacy,0,uniform,1,1,right,10,10,10,10,0,0,0,10,10,0,0,0,10,10,10,0,0,10,10,0,30-08-21,30-08-21,09:17:17,Thu Sep 30 2021 09:17:17 GMT+0200 (Central European Summer Time),The main experiment item,yes,0,0,/Users/ethan/Documents/GitHub/OpenSesame/Sternberg/experiment_files,0,0,0,no,mono,no,18,no,white,no,no,768,102,3.6.1,legacy,legacy,1 5 2 9,osweb,1.4.0,1,2,y,37,,0,right,,,space,up,,right,1017,,,7987,24429,,1017,2,legacy,824,1536,24,864,24,0,0,1536,1632986326510,4,1024,2,48000,-16,experiment,0,even,Win32,5,98493,,,95213,84,96264,58021,84,8078,,100510,97277,101542,84,100510,Sternberg_updated,10,11600,11,yes,1024
92,92,1035,1035,black,no,practice,Mozilla,Netscape,"5.0 (Windows NT 10.0; Win64; x64) AppleWebKit/537.36 (KHTML, like Gecko) Chrome/94.0.4606.61 Safari/537.36",legacy,legacy,legacy,0,uniform,1,1,right,11,11,11,11,0,0,0,11,11,0,0,0,11,11,11,0,0,11,11,0,30-08-21,30-08-21,09:17:17,Thu Sep 30 2021 09:17:17 GMT+0200 (Central European Summer Time),The main experiment item,yes,0,0,/Users/ethan/Documents/GitHub/OpenSesame/Sternberg/experiment_files,0,0,0,no,mono,no,18,no,white,no,no,768,102,3.6.1,legacy,legacy,4 8,osweb,1.4.0,1,1,y,37,,0,right,,,space,up,,right,819,,,7987,24429,,819,2,legacy,824,1536,24,864,24,0,0,1536,1632986326510,2,1024,2,48000,-16,experiment,0,even,Win32,4,104825,,,101544,84,102592,58021,84,8078,,106841,103610,107674,84,106841,Sternberg_updated,11,12419,12,yes,1024
92,92,1051,1051,black,no,experiment,Mozilla,Netscape,"5.0 (Windows NT 10.0; Win64; x64) AppleWebKit/537.36 (KHTML, like Gecko) Chrome/94.0.4606.61 Safari/537.36",legacy,legacy,legacy,0,uniform,1,1,left,12,12,12,12,0,0,0,12,12,0,0,0,12,12,12,0,0,12,12,0,30-08-21,30-08-21,09:17:17,Thu Sep 30 2021 09:17:17 GMT+0200 (Central European Summer Time),The main experiment item,yes,0,0,/Users/ethan/Documents/GitHub/OpenSesame/Sternberg/experiment_files,0,0,0,no,mono,no,18,no,white,no,no,768,102,3.6.1,legacy,legacy,7 1,osweb,1.4.0,1,0,n,37,,0,left,,,space,up,left meta,left,1246,,,7987,24429,3998,1246,2,legacy,824,1536,24,864,24,0,0,1536,1632986326510,2,1024,2,48000,-16,experiment,0,even,Win32,8,114972,,,107676,84,112741,58021,84,8078,108695,116989,113756,118239,84,116989,Sternberg_updated,12,13665,13,yes,1024
93,93,1060,1060,black,no,experiment,Mozilla,Netscape,"5.0 (Windows NT 10.0; Win64; x64) AppleWebKit/537.36 (KHTML, like Gecko) Chrome/94.0.4606.61 Safari/537.36",legacy,legacy,legacy,0,uniform,1,1,right,13,13,13,13,0,0,0,13,13,0,0,0,13,13,13,0,0,13,13,0,30-08-21,30-08-21,09:17:17,Thu Sep 30 2021 09:17:17 GMT+0200 (Central European Summer Time),The main experiment item,yes,0,0,/Users/ethan/Documents/GitHub/OpenSesame/Sternberg/experiment_files,0,0,0,no,mono,no,18,no,white,no,no,768,102,3.6.1,legacy,legacy,6 8 9 3 4 9,osweb,1.4.0,1,5,y,37,,0,right,,,space,up,left meta,right,1172,,,7987,24429,3998,1172,2,legacy,824,1536,24,864,24,0,0,1536,1632986326510,6,1024,2,48000,-16,experiment,0,even,Win32,4,121520,,,118240,84,119292,58021,84,8078,108695,123537,120304,124720,84,123537,Sternberg_updated,13,14837,14,yes,1024
93,93,1055,1055,black,no,experiment,Mozilla,Netscape,"5.0 (Windows NT 10.0; Win64; x64) AppleWebKit/537.36 (KHTML, like Gecko) Chrome/94.0.4606.61 Safari/537.36",legacy,legacy,legacy,0,uniform,1,1,left,14,14,14,14,0,0,0,14,14,0,0,0,14,14,14,0,0,14,14,0,30-08-21,30-08-21,09:17:17,Thu Sep 30 2021 09:17:17 GMT+0200 (Central European Summer Time),The main experiment item,yes,0,0,/Users/ethan/Documents/GitHub/OpenSesame/Sternberg/experiment_files,0,0,0,no,mono,no,18,no,white,no,no,768,102,3.6.1,legacy,legacy,8 5 4 2 9 6,osweb,1.4.0,1,0,n,37,,0,left,,,space,up,left meta,left,983,,,7987,24429,3998,983,2,legacy,824,1536,24,864,24,0,0,1536,1632986326510,6,1024,2,48000,-16,experiment,0,even,Win32,3,128003,,,124722,84,125770,58021,84,8078,108695,130019,126786,131018,84,130019,Sternberg_updated,14,15820,15,yes,1024
94,94,1070,1070,black,no,experiment,Mozilla,Netscape,"5.0 (Windows NT 10.0; Win64; x64) AppleWebKit/537.36 (KHTML, like Gecko) Chrome/94.0.4606.61 Safari/537.36",legacy,legacy,legacy,0,uniform,1,1,left,15,15,15,15,0,0,0,15,15,0,0,0,15,15,15,0,0,15,15,0,30-08-21,30-08-21,09:17:17,Thu Sep 30 2021 09:17:17 GMT+0200 (Central European Summer Time),The main experiment item,yes,0,0,/Users/ethan/Documents/GitHub/OpenSesame/Sternberg/experiment_files,0,0,0,no,mono,no,18,no,white,no,no,768,102,3.6.1,legacy,legacy,1 6 4 3 9 7,osweb,1.4.0,1,0,n,37,,0,left,,,space,up,left meta,left,1302,,,7987,24429,3998,1302,2,legacy,824,1536,24,864,24,0,0,1536,1632986326510,6,1024,2,48000,-16,experiment,0,even,Win32,8,134301,,,131020,84,132074,58021,84,8078,108695,136319,133085,137633,84,136319,Sternberg_updated,15,17122,16,yes,1024
94,94,1058,1058,black,no,experiment,Mozilla,Netscape,"5.0 (Windows NT 10.0; Win64; x64) AppleWebKit/537.36 (KHTML, like Gecko) Chrome/94.0.4606.61 Safari/537.36",legacy,legacy,legacy,0,uniform,1,1,left,16,16,16,16,0,0,0,16,16,0,0,0,16,16,16,0,0,16,16,0,30-08-21,30-08-21,09:17:17,Thu Sep 30 2021 09:17:17 GMT+0200 (Central European Summer Time),The main experiment item,yes,0,0,/Users/ethan/Documents/GitHub/OpenSesame/Sternberg/experiment_files,0,0,0,no,mono,no,18,no,white,no,no,768,102,3.6.1,legacy,legacy,1 7 5 2,osweb,1.4.0,1,0,n,37,,0,left,,,space,up,left meta,left,872,,,7987,24429,3998,872,2,legacy,824,1536,24,864,24,0,0,1536,1632986326510,4,1024,2,48000,-16,experiment,0,even,Win32,3,140916,,,137635,84,138691,58021,84,8078,108695,142933,139700,143815,84,142933,Sternberg_updated,16,17994,17,yes,1024
94,94,1063,1063,black,no,experiment,Mozilla,Netscape,"5.0 (Windows NT 10.0; Win64; x64) AppleWebKit/537.36 (KHTML, like Gecko) Chrome/94.0.4606.61 Safari/537.36",legacy,legacy,legacy,0,uniform,1,1,right,17,17,17,17,0,0,0,17,17,0,0,0,17,17,17,0,0,17,17,0,30-08-21,30-08-21,09:17:17,Thu Sep 30 2021 09:17:17 GMT+0200 (Central European Summer Time),The main experiment item,yes,0,0,/Users/ethan/Documents/GitHub/OpenSesame/Sternberg/experiment_files,0,0,0,no,mono,no,18,no,white,no,no,768,102,3.6.1,legacy,legacy,5 2 6,osweb,1.4.0,1,2,y,37,,0,right,,,space,up,left meta,right,1140,,,7987,24429,3998,1140,2,legacy,824,1536,24,864,24,0,0,1536,1632986326510,3,1024,2,48000,-16,experiment,0,even,Win32,2,147098,,,143817,84,144869,58021,84,8078,108695,149114,145882,150264,84,149114,Sternberg_updated,17,19134,18,yes,1024
95,95,1049,1049,black,no,experiment,Mozilla,Netscape,"5.0 (Windows NT 10.0; Win64; x64) AppleWebKit/537.36 (KHTML, like Gecko) Chrome/94.0.4606.61 Safari/537.36",legacy,legacy,legacy,0,uniform,1,1,left,18,18,18,18,0,0,0,18,18,0,0,0,18,18,18,0,0,18,18,0,30-08-21,30-08-21,09:17:17,Thu Sep 30 2021 09:17:17 GMT+0200 (Central European Summer Time),The main experiment item,yes,0,0,/Users/ethan/Documents/GitHub/OpenSesame/Sternberg/experiment_files,0,0,0,no,mono,no,18,no,white,no,no,768,102,3.6.1,legacy,legacy,7 6 4 8 1 2,osweb,1.4.0,1,0,n,37,,0,left,,,space,up,left meta,left,792,,,7987,24429,3998,792,2,legacy,824,1536,24,864,24,0,0,1536,1632986326510,6,1024,2,48000,-16,experiment,0,even,Win32,9,153546,,,150265,84,151315,58021,84,8078,108695,155563,152330,156362,84,155563,Sternberg_updated,18,19926,19,yes,1024
95,95,1043,1043,black,no,experiment,Mozilla,Netscape,"5.0 (Windows NT 10.0; Win64; x64) AppleWebKit/537.36 (KHTML, like Gecko) Chrome/94.0.4606.61 Safari/537.36",legacy,legacy,legacy,0,uniform,1,1,right,19,19,19,19,0,0,0,19,19,0,0,0,19,19,19,0,0,19,19,0,30-08-21,30-08-21,09:17:17,Thu Sep 30 2021 09:17:17 GMT+0200 (Central European Summer Time),The main experiment item,yes,0,0,/Users/ethan/Documents/GitHub/OpenSesame/Sternberg/experiment_files,0,0,0,no,mono,no,18,no,white,no,no,768,102,3.6.1,legacy,legacy,3 4,osweb,1.4.0,1,1,y,37,,0,right,,,space,up,left meta,right,926,,,7987,24429,3998,926,2,legacy,824,1536,24,864,24,0,0,1536,1632986326510,2,1024,2,48000,-16,experiment,0,even,Win32,3,159627,,,156364,84,157399,58021,84,8078,108695,161645,158411,162577,84,161645,Sternberg_updated,19,20852,20,yes,1024
95,95,1027,1027,black,no,experiment,Mozilla,Netscape,"5.0 (Windows NT 10.0; Win64; x64) AppleWebKit/537.36 (KHTML, like Gecko) Chrome/94.0.4606.61 Safari/537.36",legacy,legacy,legacy,0,uniform,1,1,right,20,20,20,20,0,0,0,20,20,0,0,0,20,20,20,0,0,20,20,0,30-08-21,30-08-21,09:17:17,Thu Sep 30 2021 09:17:17 GMT+0200 (Central European Summer Time),The main experiment item,yes,0,0,/Users/ethan/Documents/GitHub/OpenSesame/Sternberg/experiment_files,0,0,0,no,mono,no,18,no,white,no,no,768,102,3.6.1,legacy,legacy,4 9 7 8 5 3,osweb,1.4.0,1,4,y,37,,0,right,,,space,up,left meta,right,721,,,7987,24429,3998,721,2,legacy,824,1536,24,864,24,0,0,1536,1632986326510,6,1024,2,48000,-16,experiment,0,even,Win32,8,165877,,,162578,84,163644,58021,84,8078,108695,167893,164660,168625,84,167893,Sternberg_updated,20,21573,21,yes,1024
91,91,1023,1023,black,no,experiment,Mozilla,Netscape,"5.0 (Windows NT 10.0; Win64; x64) AppleWebKit/537.36 (KHTML, like Gecko) Chrome/94.0.4606.61 Safari/537.36",legacy,legacy,legacy,0,uniform,0,0,left,21,21,21,21,0,0,0,21,21,0,0,0,21,21,21,0,0,21,21,0,30-08-21,30-08-21,09:17:17,Thu Sep 30 2021 09:17:17 GMT+0200 (Central European Summer Time),The main experiment item,yes,0,0,/Users/ethan/Documents/GitHub/OpenSesame/Sternberg/experiment_files,0,0,0,no,mono,no,18,no,white,no,no,768,102,3.6.1,legacy,legacy,2 8 7 9 5 3,osweb,1.4.0,1,0,n,37,,0,right,,,space,up,left meta,right,937,,,7987,24429,3998,937,2,legacy,824,1536,24,864,24,0,0,1536,1632986326510,6,1024,2,48000,-16,experiment,0,even,Win32,6,171909,,,168627,84,169678,58021,84,8078,108695,173924,170693,174874,84,173924,Sternberg_updated,20,22510,22,yes,1024
91,91,1012,1012,black,no,experiment,Mozilla,Netscape,"5.0 (Windows NT 10.0; Win64; x64) AppleWebKit/537.36 (KHTML, like Gecko) Chrome/94.0.4606.61 Safari/537.36",legacy,legacy,legacy,0,uniform,1,1,left,22,22,22,22,0,0,0,22,22,0,0,0,22,22,22,0,0,22,22,0,30-08-21,30-08-21,09:17:17,Thu Sep 30 2021 09:17:17 GMT+0200 (Central European Summer Time),The main experiment item,yes,0,0,/Users/ethan/Documents/GitHub/OpenSesame/Sternberg/experiment_files,0,0,0,no,mono,no,18,no,white,no,no,768,102,3.6.1,legacy,legacy,3 4 9 6 7 8,osweb,1.4.0,1,0,n,37,,0,left,,,space,up,left meta,left,769,,,7987,24429,3998,769,2,legacy,824,1536,24,864,24,0,0,1536,1632986326510,6,1024,2,48000,-16,experiment,0,even,Win32,2,178157,,,168627,84,175924,174876,84,8078,108695,180174,176941,180956,84,180173,Sternberg_updated,21,23279,23,yes,1024
92,92,1012,1012,black,no,experiment,Mozilla,Netscape,"5.0 (Windows NT 10.0; Win64; x64) AppleWebKit/537.36 (KHTML, like Gecko) Chrome/94.0.4606.61 Safari/537.36",legacy,legacy,legacy,0,uniform,1,1,right,23,23,23,23,0,0,0,23,23,0,0,0,23,23,23,0,0,23,23,0,30-08-21,30-08-21,09:17:17,Thu Sep 30 2021 09:17:17 GMT+0200 (Central European Summer Time),The main experiment item,yes,0,0,/Users/ethan/Documents/GitHub/OpenSesame/Sternberg/experiment_files,0,0,0,no,mono,no,18,no,white,no,no,768,102,3.6.1,legacy,legacy,2 4 8 5 1 3,osweb,1.4.0,1,1,y,37,,0,right,,,space,up,left meta,right,1017,,,7987,24429,3998,1017,2,legacy,824,1536,24,864,24,0,0,1536,1632986326510,6,1024,2,48000,-16,experiment,0,even,Win32,2,184238,,,180958,84,182006,174876,84,8078,108695,186255,183023,187288,84,186255,Sternberg_updated,22,24296,24,yes,1024
92,92,1005,1005,black,no,experiment,Mozilla,Netscape,"5.0 (Windows NT 10.0; Win64; x64) AppleWebKit/537.36 (KHTML, like Gecko) Chrome/94.0.4606.61 Safari/537.36",legacy,legacy,legacy,0,uniform,1,1,right,24,24,24,24,0,0,0,24,24,0,0,0,24,24,24,0,0,24,24,0,30-08-21,30-08-21,09:17:17,Thu Sep 30 2021 09:17:17 GMT+0200 (Central European Summer Time),The main experiment item,yes,0,0,/Users/ethan/Documents/GitHub/OpenSesame/Sternberg/experiment_files,0,0,0,no,mono,no,18,no,white,no,no,768,102,3.6.1,legacy,legacy,7 1 3,osweb,1.4.0,1,2,y,37,,0,right,,,space,up,left meta,right,823,,,7987,24429,3998,823,2,legacy,824,1536,24,864,24,0,0,1536,1632986326510,3,1024,2,48000,-16,experiment,0,even,Win32,1,190571,,,187289,84,188341,174876,84,8078,108695,192587,189355,193420,84,192587,Sternberg_updated,23,25119,25,yes,1024
92,92,1003,1003,black,no,experiment,Mozilla,Netscape,"5.0 (Windows NT 10.0; Win64; x64) AppleWebKit/537.36 (KHTML, like Gecko) Chrome/94.0.4606.61 Safari/537.36",legacy,legacy,legacy,0,uniform,1,1,left,25,25,25,25,0,0,0,25,25,0,0,0,25,25,25,0,0,25,25,0,30-08-21,30-08-21,09:17:17,Thu Sep 30 2021 09:17:17 GMT+0200 (Central European Summer Time),The main experiment item,yes,0,0,/Users/ethan/Documents/GitHub/OpenSesame/Sternberg/experiment_files,0,0,0,no,mono,no,18,no,white,no,no,768,102,3.6.1,legacy,legacy,4 8 1 2,osweb,1.4.0,1,0,n,37,,0,left,,,space,up,left meta,left,971,,,7987,24429,3998,971,2,legacy,824,1536,24,864,24,0,0,1536,1632986326510,4,1024,2,48000,-16,experiment,0,even,Win32,7,196702,,,193421,84,194469,174876,84,8078,108695,198719,195486,199701,84,198719,Sternberg_updated,24,26090,26,yes,1024
93,93,1016,1016,black,no,experiment,Mozilla,Netscape,"5.0 (Windows NT 10.0; Win64; x64) AppleWebKit/537.36 (KHTML, like Gecko) Chrome/94.0.4606.61 Safari/537.36",legacy,legacy,legacy,0,uniform,1,1,left,26,26,26,26,0,0,0,26,26,0,0,0,26,26,26,0,0,26,26,0,30-08-21,30-08-21,09:17:17,Thu Sep 30 2021 09:17:17 GMT+0200 (Central European Summer Time),The main experiment item,yes,0,0,/Users/ethan/Documents/GitHub/OpenSesame/Sternberg/experiment_files,0,0,0,no,mono,no,18,no,white,no,no,768,102,3.6.1,legacy,legacy,2 8 6 3 1,osweb,1.4.0,1,0,n,37,,0,left,,,space,up,left meta,left,1353,,,7987,24429,3998,1353,2,legacy,824,1536,24,864,24,0,0,1536,1632986326510,5,1024,2,48000,-16,experiment,0,even,Win32,7,202984,,,199703,84,200755,174876,84,8078,108695,205001,201768,206366,84,205001,Sternberg_updated,25,27443,27,yes,1024
93,93,1026,1026,black,no,experiment,Mozilla,Netscape,"5.0 (Windows NT 10.0; Win64; x64) AppleWebKit/537.36 (KHTML, like Gecko) Chrome/94.0.4606.61 Safari/537.36",legacy,legacy,legacy,0,uniform,1,1,left,27,27,27,27,0,0,0,27,27,0,0,0,27,27,27,0,0,27,27,0,30-08-21,30-08-21,09:17:17,Thu Sep 30 2021 09:17:17 GMT+0200 (Central European Summer Time),The main experiment item,yes,0,0,/Users/ethan/Documents/GitHub/OpenSesame/Sternberg/experiment_files,0,0,0,no,mono,no,18,no,white,no,no,768,102,3.6.1,legacy,legacy,6 3 1 7 9 8,osweb,1.4.0,1,0,n,37,,0,left,,,space,up,left meta,left,1291,,,7987,24429,3998,1291,2,legacy,824,1536,24,864,24,0,0,1536,1632986326510,6,1024,2,48000,-16,experiment,0,even,Win32,4,209649,,,206368,84,207420,174876,84,8078,108695,211666,208433,212965,84,211666,Sternberg_updated,26,28734,28,yes,1024
93,93,1025,1025,black,no,experiment,Mozilla,Netscape,"5.0 (Windows NT 10.0; Win64; x64) AppleWebKit/537.36 (KHTML, like Gecko) Chrome/94.0.4606.61 Safari/537.36",legacy,legacy,legacy,0,uniform,1,1,right,28,28,28,28,0,0,0,28,28,0,0,0,28,28,28,0,0,28,28,0,30-08-21,30-08-21,09:17:17,Thu Sep 30 2021 09:17:17 GMT+0200 (Central European Summer Time),The main experiment item,yes,0,0,/Users/ethan/Documents/GitHub/OpenSesame/Sternberg/experiment_files,0,0,0,no,mono,no,18,no,white,no,no,768,102,3.6.1,legacy,legacy,9 6 2 4 1,osweb,1.4.0,1,4,y,37,,0,right,,,space,up,left meta,right,979,,,7987,24429,3998,979,2,legacy,824,1536,24,864,24,0,0,1536,1632986326510,5,1024,2,48000,-16,experiment,0,even,Win32,4,216264,,,212966,84,214041,174876,84,8078,108695,218281,215048,219263,84,218281,Sternberg_updated,27,29713,29,yes,1024
90,90,1039,1039,black,no,experiment,Mozilla,Netscape,"5.0 (Windows NT 10.0; Win64; x64) AppleWebKit/537.36 (KHTML, like Gecko) Chrome/94.0.4606.61 Safari/537.36",legacy,legacy,legacy,0,uniform,0,0,right,29,29,29,29,0,0,0,29,29,0,0,0,29,29,29,0,0,29,29,0,30-08-21,30-08-21,09:17:17,Thu Sep 30 2021 09:17:17 GMT+0200 (Central European Summer Time),The main experiment item,yes,0,0,/Users/ethan/Documents/GitHub/OpenSesame/Sternberg/experiment_files,0,0,0,no,mono,no,18,no,white,no,no,768,102,3.6.1,legacy,legacy,7 1 8 5 6 2,osweb,1.4.0,1,2,y,37,,0,left,,,space,up,left meta,left,1456,,,7987,24429,3998,1456,2,legacy,824,1536,24,864,24,0,0,1536,1632986326510,6,1024,2,48000,-16,experiment,0,even,Win32,1,222546,,,219266,84,220314,174876,84,8078,108695,224562,221330,226028,84,224562,Sternberg_updated,27,31169,30,yes,1024
90,90,1066,1066,black,no,experiment,Mozilla,Netscape,"5.0 (Windows NT 10.0; Win64; x64) AppleWebKit/537.36 (KHTML, like Gecko) Chrome/94.0.4606.61 Safari/537.36",legacy,legacy,legacy,0,uniform,1,1,left,30,30,30,30,0,0,0,30,30,0,0,0,30,30,30,0,0,30,30,0,30-08-21,30-08-21,09:17:17,Thu Sep 30 2021 09:17:17 GMT+0200 (Central European Summer Time),The main experiment item,yes,0,0,/Users/ethan/Documents/GitHub/OpenSesame/Sternberg/experiment_files,0,0,0,no,mono,no,18,no,white,no,no,768,102,3.6.1,legacy,legacy,1 4 9 3,osweb,1.4.0,1,0,n,37,,0,left,,,space,up,left meta,left,1884,,,7987,24429,3998,1884,2,legacy,824,1536,24,864,24,0,0,1536,1632986326510,4,1024,2,48000,-16,experiment,0,even,Win32,5,229311,,,219266,84,227078,226030,84,8078,108695,231328,228095,233227,84,231328,Sternberg_updated,28,33053,31,yes,1024
91,91,1058,1058,black,no,experiment,Mozilla,Netscape,"5.0 (Windows NT 10.0; Win64; x64) AppleWebKit/537.36 (KHTML, like Gecko) Chrome/94.0.4606.61 Safari/537.36",legacy,legacy,legacy,0,uniform,1,1,left,31,31,31,31,0,0,0,31,31,0,0,0,31,31,31,0,0,31,31,0,30-08-21,30-08-21,09:17:17,Thu Sep 30 2021 09:17:17 GMT+0200 (Central European Summer Time),The main experiment item,yes,0,0,/Users/ethan/Documents/GitHub/OpenSesame/Sternberg/experiment_files,0,0,0,no,mono,no,18,no,white,no,no,768,102,3.6.1,legacy,legacy,8 4 3 5,osweb,1.4.0,1,0,n,37,,0,left,,,space,up,left meta,left,802,,,7987,24429,3998,802,2,legacy,824,1536,24,864,24,0,0,1536,1632986326510,4,1024,2,48000,-16,experiment,0,even,Win32,6,236509,,,233228,84,234280,226030,84,8078,108695,238526,235294,239342,84,238526,Sternberg_updated,29,33855,32,yes,1024
91,91,1052,1052,black,no,experiment,Mozilla,Netscape,"5.0 (Windows NT 10.0; Win64; x64) AppleWebKit/537.36 (KHTML, like Gecko) Chrome/94.0.4606.61 Safari/537.36",legacy,legacy,legacy,0,uniform,1,1,left,32,32,32,32,0,0,0,32,32,0,0,0,32,32,32,0,0,32,32,0,30-08-21,30-08-21,09:17:17,Thu Sep 30 2021 09:17:17 GMT+0200 (Central European Summer Time),The main experiment item,yes,0,0,/Users/ethan/Documents/GitHub/OpenSesame/Sternberg/experiment_files,0,0,0,no,mono,no,18,no,white,no,no,768,102,3.6.1,legacy,legacy,9 5 3 2 8 6,osweb,1.4.0,1,0,n,37,,0,left,,,space,up,left meta,left,861,,,7987,24429,3998,861,2,legacy,824,1536,24,864,24,0,0,1536,1632986326510,6,1024,2,48000,-16,experiment,0,even,Win32,7,242608,,,239343,84,240390,226030,84,8078,108695,244624,241392,245490,84,244624,Sternberg_updated,30,34716,33,yes,1024
91,91,1045,1045,black,no,experiment,Mozilla,Netscape,"5.0 (Windows NT 10.0; Win64; x64) AppleWebKit/537.36 (KHTML, like Gecko) Chrome/94.0.4606.61 Safari/537.36",legacy,legacy,legacy,0,uniform,1,1,left,33,33,33,33,0,0,0,33,33,0,0,0,33,33,33,0,0,33,33,0,30-08-21,30-08-21,09:17:17,Thu Sep 30 2021 09:17:17 GMT+0200 (Central European Summer Time),The main experiment item,yes,0,0,/Users/ethan/Documents/GitHub/OpenSesame/Sternberg/experiment_files,0,0,0,no,mono,no,18,no,white,no,no,768,102,3.6.1,legacy,legacy,4 2 7 6 1 3,osweb,1.4.0,1,0,n,37,,0,left,,,space,up,left meta,left,799,,,7987,24429,3998,799,2,legacy,824,1536,24,864,24,0,0,1536,1632986326510,6,1024,2,48000,-16,experiment,0,even,Win32,8,248773,,,245492,84,246541,226030,84,8078,108695,250789,247557,251589,84,250789,Sternberg_updated,31,35515,34,yes,1024
91,91,1034,1034,black,no,experiment,Mozilla,Netscape,"5.0 (Windows NT 10.0; Win64; x64) AppleWebKit/537.36 (KHTML, like Gecko) Chrome/94.0.4606.61 Safari/537.36",legacy,legacy,legacy,0,uniform,1,1,left,34,34,34,34,0,0,0,34,34,0,0,0,34,34,34,0,0,34,34,0,30-08-21,30-08-21,09:17:17,Thu Sep 30 2021 09:17:17 GMT+0200 (Central European Summer Time),The main experiment item,yes,0,0,/Users/ethan/Documents/GitHub/OpenSesame/Sternberg/experiment_files,0,0,0,no,mono,no,18,no,white,no,no,768,102,3.6.1,legacy,legacy,1 6 4,osweb,1.4.0,1,0,n,37,,0,left,,,space,up,left meta,left,671,,,7987,24429,3998,671,2,legacy,824,1536,24,864,24,0,0,1536,1632986326510,3,1024,2,48000,-16,experiment,0,even,Win32,7,254871,,,251591,84,252638,226030,84,8078,108695,256888,253655,257570,84,256888,Sternberg_updated,32,36186,35,yes,1024
92,92,1031,1031,black,no,experiment,Mozilla,Netscape,"5.0 (Windows NT 10.0; Win64; x64) AppleWebKit/537.36 (KHTML, like Gecko) Chrome/94.0.4606.61 Safari/537.36",legacy,legacy,legacy,0,uniform,1,1,right,35,35,35,35,0,0,0,35,35,0,0,0,35,35,35,0,0,35,35,0,30-08-21,30-08-21,09:17:17,Thu Sep 30 2021 09:17:17 GMT+0200 (Central European Summer Time),The main experiment item,yes,0,0,/Users/ethan/Documents/GitHub/OpenSesame/Sternberg/experiment_files,0,0,0,no,mono,no,18,no,white,no,no,768,102,3.6.1,legacy,legacy,6 7 8 5,osweb,1.4.0,1,3,y,37,,0,right,,,space,up,left meta,right,924,,,7987,24429,3998,924,2,legacy,824,1536,24,864,24,0,0,1536,1632986326510,4,1024,2,48000,-16,experiment,0,even,Win32,8,260853,,,257573,84,258620,226030,84,8078,108695,262870,259637,263802,84,262870,Sternberg_updated,33,37110,36,yes,1024
92,92,1038,1038,black,no,experiment,Mozilla,Netscape,"5.0 (Windows NT 10.0; Win64; x64) AppleWebKit/537.36 (KHTML, like Gecko) Chrome/94.0.4606.61 Safari/537.36",legacy,legacy,legacy,0,uniform,1,1,left,36,36,36,36,0,0,0,36,36,0,0,0,36,36,36,0,0,36,36,0,30-08-21,30-08-21,09:17:17,Thu Sep 30 2021 09:17:17 GMT+0200 (Central European Summer Time),The main experiment item,yes,0,0,/Users/ethan/Documents/GitHub/OpenSesame/Sternberg/experiment_files,0,0,0,no,mono,no,18,no,white,no,no,768,102,3.6.1,legacy,legacy,1 7 5 2 9,osweb,1.4.0,1,0,n,37,,0,left,,,space,up,left meta,left,1294,,,7987,24429,3998,1294,2,legacy,824,1536,24,864,24,0,0,1536,1632986326510,5,1024,2,48000,-16,experiment,0,even,Win32,3,267085,,,263804,84,264858,226030,84,8078,108695,269102,265869,270401,84,269102,Sternberg_updated,34,38404,37,yes,1024
92,92,1032,1032,black,no,experiment,Mozilla,Netscape,"5.0 (Windows NT 10.0; Win64; x64) AppleWebKit/537.36 (KHTML, like Gecko) Chrome/94.0.4606.61 Safari/537.36",legacy,legacy,legacy,0,uniform,1,1,right,37,37,37,37,0,0,0,37,37,0,0,0,37,37,37,0,0,37,37,0,30-08-21,30-08-21,09:17:17,Thu Sep 30 2021 09:17:17 GMT+0200 (Central European Summer Time),The main experiment item,yes,0,0,/Users/ethan/Documents/GitHub/OpenSesame/Sternberg/experiment_files,0,0,0,no,mono,no,18,no,white,no,no,768,102,3.6.1,legacy,legacy,3 5 4 7,osweb,1.4.0,1,1,y,37,,0,right,,,space,up,left meta,right,830,,,7987,24429,3998,830,2,legacy,824,1536,24,864,24,0,0,1536,1632986326510,4,1024,2,48000,-16,experiment,0,even,Win32,3,273667,,,270402,84,271449,226030,84,8078,108695,275683,272451,276516,84,275683,Sternberg_updated,35,39234,38,yes,1024
92,92,1025,1025,black,no,experiment,Mozilla,Netscape,"5.0 (Windows NT 10.0; Win64; x64) AppleWebKit/537.36 (KHTML, like Gecko) Chrome/94.0.4606.61 Safari/537.36",legacy,legacy,legacy,0,uniform,1,1,right,38,38,38,38,0,0,0,38,38,0,0,0,38,38,38,0,0,38,38,0,30-08-21,30-08-21,09:17:17,Thu Sep 30 2021 09:17:17 GMT+0200 (Central European Summer Time),The main experiment item,yes,0,0,/Users/ethan/Documents/GitHub/OpenSesame/Sternberg/experiment_files,0,0,0,no,mono,no,18,no,white,no,no,768,102,3.6.1,legacy,legacy,3 2 1 4 7,osweb,1.4.0,1,2,y,37,,0,right,,,space,up,left meta,right,751,,,7987,24429,3998,751,2,legacy,824,1536,24,864,24,0,0,1536,1632986326510,5,1024,2,48000,-16,experiment,0,even,Win32,2,279799,,,276517,84,277569,226030,84,8078,108695,281815,278583,282581,84,281815,Sternberg_updated,36,39985,39,yes,1024
93,93,1024,1024,black,no,experiment,Mozilla,Netscape,"5.0 (Windows NT 10.0; Win64; x64) AppleWebKit/537.36 (KHTML, like Gecko) Chrome/94.0.4606.61 Safari/537.36",legacy,legacy,legacy,0,uniform,1,1,left,39,39,39,39,0,0,0,39,39,0,0,0,39,39,39,0,0,39,39,0,30-08-21,30-08-21,09:17:17,Thu Sep 30 2021 09:17:17 GMT+0200 (Central European Summer Time),The main experiment item,yes,0,0,/Users/ethan/Documents/GitHub/OpenSesame/Sternberg/experiment_files,0,0,0,no,mono,no,18,no,white,no,no,768,102,3.6.1,legacy,legacy,1 4 9 2 5,osweb,1.4.0,1,0,n,37,,0,left,,,space,up,left meta,left,964,,,7987,24429,3998,964,2,legacy,824,1536,24,864,24,0,0,1536,1632986326510,5,1024,2,48000,-16,experiment,0,even,Win32,7,285864,,,282583,84,283636,226030,84,8078,108695,287880,284648,288846,84,287880,Sternberg_updated,37,40949,40,yes,1024
93,93,1019,1019,black,no,experiment,Mozilla,Netscape,"5.0 (Windows NT 10.0; Win64; x64) AppleWebKit/537.36 (KHTML, like Gecko) Chrome/94.0.4606.61 Safari/537.36",legacy,legacy,legacy,0,uniform,1,1,left,40,40,40,40,0,0,0,40,40,0,0,0,40,40,40,0,0,40,40,0,30-08-21,30-08-21,09:17:17,Thu Sep 30 2021 09:17:17 GMT+0200 (Central European Summer Time),The main experiment item,yes,0,0,/Users/ethan/Documents/GitHub/OpenSesame/Sternberg/experiment_files,0,0,0,no,mono,no,18,no,white,no,no,768,102,3.6.1,legacy,legacy,7 3 2 8,osweb,1.4.0,1,0,n,37,,0,left,,,space,up,left meta,left,834,,,7987,24429,3998,834,2,legacy,824,1536,24,864,24,0,0,1536,1632986326510,4,1024,2,48000,-16,experiment,0,even,Win32,4,292129,,,288848,84,289899,226030,84,8078,108695,294146,290913,294995,84,294146,Sternberg_updated,38,41783,41,yes,1024
93,93,1011,1011,black,no,experiment,Mozilla,Netscape,"5.0 (Windows NT 10.0; Win64; x64) AppleWebKit/537.36 (KHTML, like Gecko) Chrome/94.0.4606.61 Safari/537.36",legacy,legacy,legacy,0,uniform,1,1,right,41,41,41,41,0,0,0,41,41,0,0,0,41,41,41,0,0,41,41,0,30-08-21,30-08-21,09:17:17,Thu Sep 30 2021 09:17:17 GMT+0200 (Central European Summer Time),The main experiment item,yes,0,0,/Users/ethan/Documents/GitHub/OpenSesame/Sternberg/experiment_files,0,0,0,no,mono,no,18,no,white,no,no,768,102,3.6.1,legacy,legacy,4 1 8 7 5,osweb,1.4.0,1,3,y,37,,0,right,,,space,up,left meta,right,698,,,7987,24429,3998,698,2,legacy,824,1536,24,864,24,0,0,1536,1632986326510,5,1024,2,48000,-16,experiment,0,even,Win32,8,298277,,,294998,84,296044,226030,84,8078,108695,300294,297061,300993,84,300294,Sternberg_updated,39,42481,42,yes,1024
93,93,1003,1003,black,no,experiment,Mozilla,Netscape,"5.0 (Windows NT 10.0; Win64; x64) AppleWebKit/537.36 (KHTML, like Gecko) Chrome/94.0.4606.61 Safari/537.36",legacy,legacy,legacy,0,uniform,1,1,left,42,42,42,42,0,0,0,42,42,0,0,0,42,42,42,0,0,42,42,0,30-08-21,30-08-21,09:17:17,Thu Sep 30 2021 09:17:17 GMT+0200 (Central European Summer Time),The main experiment item,yes,0,0,/Users/ethan/Documents/GitHub/OpenSesame/Sternberg/experiment_files,0,0,0,no,mono,no,18,no,white,no,no,768,102,3.6.1,legacy,legacy,2 8 9,osweb,1.4.0,1,0,n,37,,0,left,,,space,up,left meta,left,628,,,7987,24429,3998,628,2,legacy,824,1536,24,864,24,0,0,1536,1632986326510,3,1024,2,48000,-16,experiment,0,even,Win32,6,304276,,,300995,84,302044,226030,84,8078,108695,306292,303060,306925,84,306292,Sternberg_updated,40,43109,43,yes,1024
93,93,1006,1006,black,no,experiment,Mozilla,Netscape,"5.0 (Windows NT 10.0; Win64; x64) AppleWebKit/537.36 (KHTML, like Gecko) Chrome/94.0.4606.61 Safari/537.36",legacy,legacy,legacy,0,uniform,1,1,right,43,43,43,43,0,0,0,43,43,0,0,0,43,43,43,0,0,43,43,0,30-08-21,30-08-21,09:17:17,Thu Sep 30 2021 09:17:17 GMT+0200 (Central European Summer Time),The main experiment item,yes,0,0,/Users/ethan/Documents/GitHub/OpenSesame/Sternberg/experiment_files,0,0,0,no,mono,no,18,no,white,no,no,768,102,3.6.1,legacy,legacy,8 5 1 3 9,osweb,1.4.0,1,4,y,37,,0,right,,,space,up,left meta,right,1153,,,7987,24429,3998,1153,2,legacy,824,1536,24,864,24,0,0,1536,1632986326510,5,1024,2,48000,-16,experiment,0,even,Win32,3,310208,,,306927,84,307974,226030,84,8078,108695,312225,308992,313390,84,312224,Sternberg_updated,41,44262,44,yes,1024
93,93,1005,1005,black,no,experiment,Mozilla,Netscape,"5.0 (Windows NT 10.0; Win64; x64) AppleWebKit/537.36 (KHTML, like Gecko) Chrome/94.0.4606.61 Safari/537.36",legacy,legacy,legacy,0,uniform,1,1,left,44,44,44,44,0,0,0,44,44,0,0,0,44,44,44,0,0,44,44,0,30-08-21,30-08-21,09:17:17,Thu Sep 30 2021 09:17:17 GMT+0200 (Central European Summer Time),The main experiment item,yes,0,0,/Users/ethan/Documents/GitHub/OpenSesame/Sternberg/experiment_files,0,0,0,no,mono,no,18,no,white,no,no,768,102,3.6.1,legacy,legacy,2 5 1 4,osweb,1.4.0,1,0,n,37,,0,left,,,space,up,left meta,left,966,,,7987,24429,3998,966,2,legacy,824,1536,24,864,24,0,0,1536,1632986326510,4,1024,2,48000,-16,experiment,0,even,Win32,6,316673,,,313392,84,314440,226030,84,8078,108695,318689,315457,319672,84,318689,Sternberg_updated,42,45228,45,yes,1024
93,93,1000,1000,black,no,experiment,Mozilla,Netscape,"5.0 (Windows NT 10.0; Win64; x64) AppleWebKit/537.36 (KHTML, like Gecko) Chrome/94.0.4606.61 Safari/537.36",legacy,legacy,legacy,0,uniform,1,1,left,45,45,45,45,0,0,0,45,45,0,0,0,45,45,45,0,0,45,45,0,30-08-21,30-08-21,09:17:17,Thu Sep 30 2021 09:17:17 GMT+0200 (Central European Summer Time),The main experiment item,yes,0,0,/Users/ethan/Documents/GitHub/OpenSesame/Sternberg/experiment_files,0,0,0,no,mono,no,18,no,white,no,no,768,102,3.6.1,legacy,legacy,6 7 5 9,osweb,1.4.0,1,0,n,37,,0,left,,,space,up,left meta,left,759,,,7987,24429,3998,759,2,legacy,824,1536,24,864,24,0,0,1536,1632986326510,4,1024,2,48000,-16,experiment,0,even,Win32,2,322955,,,319674,84,320727,226030,84,8078,108695,324971,321739,325737,84,324971,Sternberg_updated,43,45987,46,yes,1024
94,94,1001,1001,black,no,experiment,Mozilla,Netscape,"5.0 (Windows NT 10.0; Win64; x64) AppleWebKit/537.36 (KHTML, like Gecko) Chrome/94.0.4606.61 Safari/537.36",legacy,legacy,legacy,0,uniform,1,1,left,46,46,46,46,0,0,0,46,46,0,0,0,46,46,46,0,0,46,46,0,30-08-21,30-08-21,09:17:17,Thu Sep 30 2021 09:17:17 GMT+0200 (Central European Summer Time),The main experiment item,yes,0,0,/Users/ethan/Documents/GitHub/OpenSesame/Sternberg/experiment_files,0,0,0,no,mono,no,18,no,white,no,no,768,102,3.6.1,legacy,legacy,7 1 8 4 9 3,osweb,1.4.0,1,0,n,37,,0,left,,,space,up,left meta,left,1059,,,7987,24429,3998,1059,2,legacy,824,1536,24,864,24,0,0,1536,1632986326510,6,1024,2,48000,-16,experiment,0,even,Win32,6,329020,,,325739,84,326787,226030,84,8078,108695,331036,327804,332102,84,331036,Sternberg_updated,44,47046,47,yes,1024
94,94,999,999,black,no,experiment,Mozilla,Netscape,"5.0 (Windows NT 10.0; Win64; x64) AppleWebKit/537.36 (KHTML, like Gecko) Chrome/94.0.4606.61 Safari/537.36",legacy,legacy,legacy,0,uniform,1,1,right,47,47,47,47,0,0,0,47,47,0,0,0,47,47,47,0,0,47,47,0,30-08-21,30-08-21,09:17:17,Thu Sep 30 2021 09:17:17 GMT+0200 (Central European Summer Time),The main experiment item,yes,0,0,/Users/ethan/Documents/GitHub/OpenSesame/Sternberg/experiment_files,0,0,0,no,mono,no,18,no,white,no,no,768,102,3.6.1,legacy,legacy,4 7 6 8 2 3,osweb,1.4.0,1,6,y,37,,0,right,,,space,up,left meta,right,904,,,7987,24429,3998,904,2,legacy,824,1536,24,864,24,0,0,1536,1632986326510,6,1024,2,48000,-16,experiment,0,even,Win32,3,335385,,,332104,84,333155,226030,84,8078,108695,337401,334169,338317,84,337401,Sternberg_updated,45,47950,48,yes,1024
94,94,995,995,black,no,experiment,Mozilla,Netscape,"5.0 (Windows NT 10.0; Win64; x64) AppleWebKit/537.36 (KHTML, like Gecko) Chrome/94.0.4606.61 Safari/537.36",legacy,legacy,legacy,0,uniform,1,1,left,48,48,48,48,0,0,0,48,48,0,0,0,48,48,48,0,0,48,48,0,30-08-21,30-08-21,09:17:17,Thu Sep 30 2021 09:17:17 GMT+0200 (Central European Summer Time),The main experiment item,yes,0,0,/Users/ethan/Documents/GitHub/OpenSesame/Sternberg/experiment_files,0,0,0,no,mono,no,18,no,white,no,no,768,102,3.6.1,legacy,legacy,8 5 7 3 6,osweb,1.4.0,1,0,n,37,,0,left,,,space,up,left meta,left,782,,,7987,24429,3998,782,2,legacy,824,1536,24,864,24,0,0,1536,1632986326510,5,1024,2,48000,-16,experiment,0,even,Win32,9,341600,,,338319,84,339369,226030,84,8078,108695,343617,340384,344399,84,343617,Sternberg_updated,46,48732,49,yes,1024
94,94,992,992,black,no,experiment,Mozilla,Netscape,"5.0 (Windows NT 10.0; Win64; x64) AppleWebKit/537.36 (KHTML, like Gecko) Chrome/94.0.4606.61 Safari/537.36",legacy,legacy,legacy,0,uniform,1,1,left,49,49,49,49,0,0,0,49,49,0,0,0,49,49,49,0,0,49,49,0,30-08-21,30-08-21,09:17:17,Thu Sep 30 2021 09:17:17 GMT+0200 (Central European Summer Time),The main experiment item,yes,0,0,/Users/ethan/Documents/GitHub/OpenSesame/Sternberg/experiment_files,0,0,0,no,mono,no,18,no,white,no,no,768,102,3.6.1,legacy,legacy,3 9 8 1 6 4,osweb,1.4.0,1,0,n,37,,0,left,,,space,up,left meta,left,873,,,7987,24429,3998,873,2,legacy,824,1536,24,864,24,0,0,1536,1632986326510,6,1024,2,48000,-16,experiment,0,even,Win32,7,347682,,,344401,84,345449,226030,84,8078,108695,349698,346466,350581,84,349698,Sternberg_updated,47,49605,50,yes,1024
92,92,996,996,black,no,experiment,Mozilla,Netscape,"5.0 (Windows NT 10.0; Win64; x64) AppleWebKit/537.36 (KHTML, like Gecko) Chrome/94.0.4606.61 Safari/537.36",legacy,legacy,legacy,0,uniform,0,0,left,50,50,50,50,0,0,0,50,50,0,0,0,50,50,50,0,0,50,50,0,30-08-21,30-08-21,09:17:17,Thu Sep 30 2021 09:17:17 GMT+0200 (Central European Summer Time),The main experiment item,yes,0,0,/Users/ethan/Documents/GitHub/OpenSesame/Sternberg/experiment_files,0,0,0,no,mono,no,18,no,white,no,no,768,102,3.6.1,legacy,legacy,6 9 4 5 3 2,osweb,1.4.0,1,0,n,37,,0,right,,,space,up,left meta,right,1182,,,7987,24429,3998,1182,2,legacy,824,1536,24,864,24,0,0,1536,1632986326510,6,1024,2,48000,-16,experiment,0,even,Win32,8,353881,,,350583,84,351653,226030,84,8078,108695,355897,352664,357096,84,355897,Sternberg_updated,47,50787,51,yes,1024
92,92,995,995,black,no,experiment,Mozilla,Netscape,"5.0 (Windows NT 10.0; Win64; x64) AppleWebKit/537.36 (KHTML, like Gecko) Chrome/94.0.4606.61 Safari/537.36",legacy,legacy,legacy,0,uniform,1,1,right,51,51,51,51,0,0,0,51,51,0,0,0,51,51,51,0,0,51,51,0,30-08-21,30-08-21,09:17:17,Thu Sep 30 2021 09:17:17 GMT+0200 (Central European Summer Time),The main experiment item,yes,0,0,/Users/ethan/Documents/GitHub/OpenSesame/Sternberg/experiment_files,0,0,0,no,mono,no,18,no,white,no,no,768,102,3.6.1,legacy,legacy,5 7 8 2 3 8,osweb,1.4.0,1,5,y,37,,0,right,,,space,up,left meta,right,967,,,7987,24429,3998,967,2,legacy,824,1536,24,864,24,0,0,1536,1632986326510,6,1024,2,48000,-16,experiment,0,even,Win32,3,360379,,,350583,84,358158,357098,84,8078,108695,362395,359163,363378,84,362395,Sternberg_updated,48,51754,52,yes,1024
92,92,991,991,black,no,experiment,Mozilla,Netscape,"5.0 (Windows NT 10.0; Win64; x64) AppleWebKit/537.36 (KHTML, like Gecko) Chrome/94.0.4606.61 Safari/537.36",legacy,legacy,legacy,0,uniform,1,1,right,52,52,52,52,0,0,0,52,52,0,0,0,52,52,52,0,0,52,52,0,30-08-21,30-08-21,09:17:17,Thu Sep 30 2021 09:17:17 GMT+0200 (Central European Summer Time),The main experiment item,yes,0,0,/Users/ethan/Documents/GitHub/OpenSesame/Sternberg/experiment_files,0,0,0,no,mono,no,18,no,white,no,no,768,102,3.6.1,legacy,legacy,3 9 7 6 4,osweb,1.4.0,1,3,y,37,,0,right,,,space,up,left meta,right,762,,,7987,24429,3998,762,2,legacy,824,1536,24,864,24,0,0,1536,1632986326510,5,1024,2,48000,-16,experiment,0,even,Win32,7,366661,,,363379,84,364431,357098,84,8078,108695,368677,365445,369443,84,368677,Sternberg_updated,49,52516,53,yes,1024
93,93,986,986,black,no,experiment,Mozilla,Netscape,"5.0 (Windows NT 10.0; Win64; x64) AppleWebKit/537.36 (KHTML, like Gecko) Chrome/94.0.4606.61 Safari/537.36",legacy,legacy,legacy,0,uniform,1,1,right,53,53,53,53,0,0,0,53,53,0,0,0,53,53,53,0,0,53,53,0,30-08-21,30-08-21,09:17:17,Thu Sep 30 2021 09:17:17 GMT+0200 (Central European Summer Time),The main experiment item,yes,0,0,/Users/ethan/Documents/GitHub/OpenSesame/Sternberg/experiment_files,0,0,0,no,mono,no,18,no,white,no,no,768,102,3.6.1,legacy,legacy,2 3,osweb,1.4.0,1,1,y,37,,0,right,,,space,up,left meta,right,709,,,7987,24429,3998,709,2,legacy,824,1536,24,864,24,0,0,1536,1632986326510,2,1024,2,48000,-16,experiment,0,even,Win32,2,372726,,,369444,84,370492,357098,84,8078,108695,374745,371510,375458,84,374745,Sternberg_updated,50,53225,54,yes,1024
93,93,990,990,black,no,experiment,Mozilla,Netscape,"5.0 (Windows NT 10.0; Win64; x64) AppleWebKit/537.36 (KHTML, like Gecko) Chrome/94.0.4606.61 Safari/537.36",legacy,legacy,legacy,0,uniform,1,1,right,54,54,54,54,0,0,0,54,54,0,0,0,54,54,54,0,0,54,54,0,30-08-21,30-08-21,09:17:17,Thu Sep 30 2021 09:17:17 GMT+0200 (Central European Summer Time),The main experiment item,yes,0,0,/Users/ethan/Documents/GitHub/OpenSesame/Sternberg/experiment_files,0,0,0,no,mono,no,18,no,white,no,no,768,102,3.6.1,legacy,legacy,8 3,osweb,1.4.0,1,2,y,37,,0,right,,,space,up,left meta,right,1239,,,7987,24429,3998,1239,2,legacy,824,1536,24,864,24,0,0,1536,1632986326510,2,1024,2,48000,-16,experiment,0,even,Win32,3,378742,,,375464,84,376507,357098,84,8078,108695,380757,377525,382007,84,380757,Sternberg_updated,51,54464,55,yes,1024
93,93,987,987,black,no,experiment,Mozilla,Netscape,"5.0 (Windows NT 10.0; Win64; x64) AppleWebKit/537.36 (KHTML, like Gecko) Chrome/94.0.4606.61 Safari/537.36",legacy,legacy,legacy,0,uniform,1,1,right,55,55,55,55,0,0,0,55,55,0,0,0,55,55,55,0,0,55,55,0,30-08-21,30-08-21,09:17:17,Thu Sep 30 2021 09:17:17 GMT+0200 (Central European Summer Time),The main experiment item,yes,0,0,/Users/ethan/Documents/GitHub/OpenSesame/Sternberg/experiment_files,0,0,0,no,mono,no,18,no,white,no,no,768,102,3.6.1,legacy,legacy,3 5 7 1,osweb,1.4.0,1,3,y,37,,0,right,up,,space,up,left meta,right,802,150853,,7987,24429,3998,802,2,legacy,824,1536,24,864,24,0,0,1536,1632986326510,4,1024,2,48000,-16,experiment,0,even,Win32,7,536153,383024,,382009,84,533921,357098,84,8078,108695,538169,534936,538984,84,538169,Sternberg_updated,52,55266,56,yes,1024
93,93,982,982,black,no,experiment,Mozilla,Netscape,"5.0 (Windows NT 10.0; Win64; x64) AppleWebKit/537.36 (KHTML, like Gecko) Chrome/94.0.4606.61 Safari/537.36",legacy,legacy,legacy,0,uniform,1,1,right,56,56,56,56,0,0,0,56,56,0,0,0,56,56,56,0,0,56,56,0,30-08-21,30-08-21,09:17:17,Thu Sep 30 2021 09:17:17 GMT+0200 (Central European Summer Time),The main experiment item,yes,0,0,/Users/ethan/Documents/GitHub/OpenSesame/Sternberg/experiment_files,0,0,0,no,mono,no,18,no,white,no,no,768,102,3.6.1,legacy,legacy,5 2 9 6 1 7,osweb,1.4.0,1,3,y,37,,0,right,up,,space,up,left meta,right,727,150853,,7987,24429,3998,727,2,legacy,824,1536,24,864,24,0,0,1536,1632986326510,6,1024,2,48000,-16,experiment,0,even,Win32,9,542268,383024,,538986,84,540034,357098,84,8078,108695,544284,541051,545016,84,544284,Sternberg_updated,53,55993,57,yes,1024
93,93,977,977,black,no,experiment,Mozilla,Netscape,"5.0 (Windows NT 10.0; Win64; x64) AppleWebKit/537.36 (KHTML, like Gecko) Chrome/94.0.4606.61 Safari/537.36",legacy,legacy,legacy,0,uniform,1,1,right,57,57,57,57,0,0,0,57,57,0,0,0,57,57,57,0,0,57,57,0,30-08-21,30-08-21,09:17:17,Thu Sep 30 2021 09:17:17 GMT+0200 (Central European Summer Time),The main experiment item,yes,0,0,/Users/ethan/Documents/GitHub/OpenSesame/Sternberg/experiment_files,0,0,0,no,mono,no,18,no,white,no,no,768,102,3.6.1,legacy,legacy,8,osweb,1.4.0,1,1,y,37,,0,right,up,,space,up,left meta,right,667,150853,,7987,24429,3998,667,2,legacy,824,1536,24,864,24,0,0,1536,1632986326510,1,1024,2,48000,-16,experiment,0,even,Win32,8,548299,383024,,545018,84,546069,357098,84,8078,108695,550316,547083,550998,84,550316,Sternberg_updated,54,56660,58,yes,1024
93,93,979,979,black,no,experiment,Mozilla,Netscape,"5.0 (Windows NT 10.0; Win64; x64) AppleWebKit/537.36 (KHTML, like Gecko) Chrome/94.0.4606.61 Safari/537.36",legacy,legacy,legacy,0,uniform,1,1,left,58,58,58,58,0,0,0,58,58,0,0,0,58,58,58,0,0,58,58,0,30-08-21,30-08-21,09:17:17,Thu Sep 30 2021 09:17:17 GMT+0200 (Central European Summer Time),The main experiment item,yes,0,0,/Users/ethan/Documents/GitHub/OpenSesame/Sternberg/experiment_files,0,0,0,no,mono,no,18,no,white,no,no,768,102,3.6.1,legacy,legacy,1 4 3 6 5,osweb,1.4.0,1,0,n,37,,0,left,up,,space,up,left meta,left,1076,150853,,7987,24429,3998,1076,2,legacy,824,1536,24,864,24,0,0,1536,1632986326510,5,1024,2,48000,-16,experiment,0,even,Win32,8,554281,383024,,551000,84,552051,357098,84,8078,108695,556298,553065,557380,84,556298,Sternberg_updated,55,57736,59,yes,1024
92,92,979,979,black,no,experiment,Mozilla,Netscape,"5.0 (Windows NT 10.0; Win64; x64) AppleWebKit/537.36 (KHTML, like Gecko) Chrome/94.0.4606.61 Safari/537.36",legacy,legacy,legacy,0,uniform,0,0,left,59,59,59,59,0,0,0,59,59,0,0,0,59,59,59,0,0,59,59,0,30-08-21,30-08-21,09:17:17,Thu Sep 30 2021 09:17:17 GMT+0200 (Central European Summer Time),The main experiment item,yes,0,0,/Users/ethan/Documents/GitHub/OpenSesame/Sternberg/experiment_files,0,0,0,no,mono,no,18,no,white,no,no,768,102,3.6.1,legacy,legacy,8 9,osweb,1.4.0,1,0,n,37,,0,right,up,,space,up,left meta,right,1004,150853,,7987,24429,3998,1004,2,legacy,824,1536,24,864,24,0,0,1536,1632986326510,2,1024,2,48000,-16,experiment,0,even,Win32,5,560663,383024,,557382,84,558429,357098,84,8078,108695,562680,559448,563695,84,562680,Sternberg_updated,55,58740,60,yes,1024
92,92,977,977,black,no,experiment,Mozilla,Netscape,"5.0 (Windows NT 10.0; Win64; x64) AppleWebKit/537.36 (KHTML, like Gecko) Chrome/94.0.4606.61 Safari/537.36",legacy,legacy,legacy,0,uniform,1,1,left,60,60,60,60,0,0,0,60,60,0,0,0,60,60,60,0,0,60,60,0,30-08-21,30-08-21,09:17:17,Thu Sep 30 2021 09:17:17 GMT+0200 (Central European Summer Time),The main experiment item,yes,0,0,/Users/ethan/Documents/GitHub/OpenSesame/Sternberg/experiment_files,0,0,0,no,mono,no,18,no,white,no,no,768,102,3.6.1,legacy,legacy,9,osweb,1.4.0,1,0,n,37,,0,left,up,,space,up,left meta,left,851,150853,,7987,24429,3998,851,2,legacy,824,1536,24,864,24,0,0,1536,1632986326510,1,1024,2,48000,-16,experiment,0,even,Win32,6,566978,383024,,557382,84,564745,563697,84,8078,108695,568995,565762,569861,84,568995,Sternberg_updated,56,59591,61,yes,1024
92,92,975,975,black,no,experiment,Mozilla,Netscape,"5.0 (Windows NT 10.0; Win64; x64) AppleWebKit/537.36 (KHTML, like Gecko) Chrome/94.0.4606.61 Safari/537.36",legacy,legacy,legacy,0,uniform,1,1,right,61,61,61,61,0,0,0,61,61,0,0,0,61,61,61,0,0,61,61,0,30-08-21,30-08-21,09:17:17,Thu Sep 30 2021 09:17:17 GMT+0200 (Central European Summer Time),The main experiment item,yes,0,0,/Users/ethan/Documents/GitHub/OpenSesame/Sternberg/experiment_files,0,0,0,no,mono,no,18,no,white,no,no,768,102,3.6.1,legacy,legacy,2 5 4 8 7,osweb,1.4.0,1,3,y,37,,0,right,up,,space,up,left meta,right,852,150853,,7987,24429,3998,852,2,legacy,824,1536,24,864,24,0,0,1536,1632986326510,5,1024,2,48000,-16,experiment,0,even,Win32,4,573143,383024,,569862,84,570918,563697,84,8078,108695,575160,571927,576025,84,575159,Sternberg_updated,57,60443,62,yes,1024
92,92,972,972,black,no,experiment,Mozilla,Netscape,"5.0 (Windows NT 10.0; Win64; x64) AppleWebKit/537.36 (KHTML, like Gecko) Chrome/94.0.4606.61 Safari/537.36",legacy,legacy,legacy,0,uniform,1,1,left,62,62,62,62,0,0,0,62,62,0,0,0,62,62,62,0,0,62,62,0,30-08-21,30-08-21,09:17:17,Thu Sep 30 2021 09:17:17 GMT+0200 (Central European Summer Time),The main experiment item,yes,0,0,/Users/ethan/Documents/GitHub/OpenSesame/Sternberg/experiment_files,0,0,0,no,mono,no,18,no,white,no,no,768,102,3.6.1,legacy,legacy,2 7 5,osweb,1.4.0,1,0,n,37,,0,left,up,,space,up,left meta,left,785,150853,,7987,24429,3998,785,2,legacy,824,1536,24,864,24,0,0,1536,1632986326510,3,1024,2,48000,-16,experiment,0,even,Win32,8,579308,383024,,576027,84,577084,563697,84,8078,108695,581325,578092,582123,84,581325,Sternberg_updated,58,61228,63,yes,1024
91,91,970,970,black,no,experiment,Mozilla,Netscape,"5.0 (Windows NT 10.0; Win64; x64) AppleWebKit/537.36 (KHTML, like Gecko) Chrome/94.0.4606.61 Safari/537.36",legacy,legacy,legacy,0,uniform,0,0,right,63,63,63,63,0,0,0,63,63,0,0,0,63,63,63,0,0,63,63,0,30-08-21,30-08-21,09:17:17,Thu Sep 30 2021 09:17:17 GMT+0200 (Central European Summer Time),The main experiment item,yes,0,0,/Users/ethan/Documents/GitHub/OpenSesame/Sternberg/experiment_files,0,0,0,no,mono,no,18,no,white,no,no,768,102,3.6.1,legacy,legacy,9 4 2,osweb,1.4.0,1,1,y,37,,0,left,up,,space,up,left meta,left,853,150853,,7987,24429,3998,853,2,legacy,824,1536,24,864,24,0,0,1536,1632986326510,3,1024,2,48000,-16,experiment,0,even,Win32,9,585407,383024,,582124,84,583186,563697,84,8078,108695,587423,584191,588289,84,587423,Sternberg_updated,58,62081,64,yes,1024
91,91,967,967,black,no,experiment,Mozilla,Netscape,"5.0 (Windows NT 10.0; Win64; x64) AppleWebKit/537.36 (KHTML, like Gecko) Chrome/94.0.4606.61 Safari/537.36",legacy,legacy,legacy,0,uniform,1,1,right,64,64,64,64,0,0,0,64,64,0,0,0,64,64,64,0,0,64,64,0,30-08-21,30-08-21,09:17:17,Thu Sep 30 2021 09:17:17 GMT+0200 (Central European Summer Time),The main experiment item,yes,0,0,/Users/ethan/Documents/GitHub/OpenSesame/Sternberg/experiment_files,0,0,0,no,mono,no,18,no,white,no,no,768,102,3.6.1,legacy,legacy,3 4 9 6 2 9,osweb,1.4.0,1,5,y,37,,0,right,up,,space,up,left meta,right,745,150853,,7987,24429,3998,745,2,legacy,824,1536,24,864,24,0,0,1536,1632986326510,6,1024,2,48000,-16,experiment,0,even,Win32,2,591555,383024,,582124,84,589335,588291,84,8078,108695,593572,590339,594321,84,593571,Sternberg_updated,59,62826,65,yes,1024
91,91,962,962,black,no,experiment,Mozilla,Netscape,"5.0 (Windows NT 10.0; Win64; x64) AppleWebKit/537.36 (KHTML, like Gecko) Chrome/94.0.4606.61 Safari/537.36",legacy,legacy,legacy,0,uniform,1,1,right,65,65,65,65,0,0,0,65,65,0,0,0,65,65,65,0,0,65,65,0,30-08-21,30-08-21,09:17:17,Thu Sep 30 2021 09:17:17 GMT+0200 (Central European Summer Time),The main experiment item,yes,0,0,/Users/ethan/Documents/GitHub/OpenSesame/Sternberg/experiment_files,0,0,0,no,mono,no,18,no,white,no,no,768,102,3.6.1,legacy,legacy,9 8 4,osweb,1.4.0,1,1,y,37,,0,right,up,,space,up,left meta,right,664,150853,,7987,24429,3998,664,2,legacy,824,1536,24,864,24,0,0,1536,1632986326510,3,1024,2,48000,-16,experiment,0,even,Win32,9,597604,383024,,594323,84,595376,588291,84,8078,108695,599621,596388,600286,84,599621,Sternberg_updated,60,63490,66,yes,1024
91,91,964,964,black,no,experiment,Mozilla,Netscape,"5.0 (Windows NT 10.0; Win64; x64) AppleWebKit/537.36 (KHTML, like Gecko) Chrome/94.0.4606.61 Safari/537.36",legacy,legacy,legacy,0,uniform,1,1,right,66,66,66,66,0,0,0,66,66,0,0,0,66,66,66,0,0,66,66,0,30-08-21,30-08-21,09:17:17,Thu Sep 30 2021 09:17:17 GMT+0200 (Central European Summer Time),The main experiment item,yes,0,0,/Users/ethan/Documents/GitHub/OpenSesame/Sternberg/experiment_files,0,0,0,no,mono,no,18,no,white,no,no,768,102,3.6.1,legacy,legacy,4 6 2 5 1,osweb,1.4.0,1,5,y,37,,0,right,up,,space,up,left meta,right,1095,150853,,7987,24429,3998,1095,2,legacy,824,1536,24,864,24,0,0,1536,1632986326510,5,1024,2,48000,-16,experiment,0,even,Win32,1,603553,383024,,600288,84,601335,588291,84,8078,108695,605569,602336,606668,84,605569,Sternberg_updated,61,64585,67,yes,1024
91,91,974,974,black,no,experiment,Mozilla,Netscape,"5.0 (Windows NT 10.0; Win64; x64) AppleWebKit/537.36 (KHTML, like Gecko) Chrome/94.0.4606.61 Safari/537.36",legacy,legacy,legacy,0,uniform,1,1,left,67,67,67,67,0,0,0,67,67,0,0,0,67,67,67,0,0,67,67,0,30-08-21,30-08-21,09:17:17,Thu Sep 30 2021 09:17:17 GMT+0200 (Central European Summer Time),The main experiment item,yes,0,0,/Users/ethan/Documents/GitHub/OpenSesame/Sternberg/experiment_files,0,0,0,no,mono,no,18,no,white,no,no,768,102,3.6.1,legacy,legacy,1 7 8 3 9,osweb,1.4.0,1,0,n,37,,0,left,up,,space,up,left meta,left,1643,150853,,7987,24429,3998,1643,2,legacy,824,1536,24,864,24,0,0,1536,1632986326510,5,1024,2,48000,-16,experiment,0,even,Win32,2,609951,383024,,606670,84,607718,588291,84,8078,108695,611967,608735,613616,84,611967,Sternberg_updated,62,66228,68,yes,1024
91,91,970,970,black,no,experiment,Mozilla,Netscape,"5.0 (Windows NT 10.0; Win64; x64) AppleWebKit/537.36 (KHTML, like Gecko) Chrome/94.0.4606.61 Safari/537.36",legacy,legacy,legacy,0,uniform,1,1,right,68,68,68,68,0,0,0,68,68,0,0,0,68,68,68,0,0,68,68,0,30-08-21,30-08-21,09:17:17,Thu Sep 30 2021 09:17:17 GMT+0200 (Central European Summer Time),The main experiment item,yes,0,0,/Users/ethan/Documents/GitHub/OpenSesame/Sternberg/experiment_files,0,0,0,no,mono,no,18,no,white,no,no,768,102,3.6.1,legacy,legacy,4,osweb,1.4.0,1,1,y,37,,0,right,up,,space,up,left meta,right,690,150853,,7987,24429,3998,690,2,legacy,824,1536,24,864,24,0,0,1536,1632986326510,1,1024,2,48000,-16,experiment,0,even,Win32,4,616899,383024,,613618,84,614669,588291,84,8078,108695,618916,615683,619615,84,618915,Sternberg_updated,63,66918,69,yes,1024
91,91,967,967,black,no,experiment,Mozilla,Netscape,"5.0 (Windows NT 10.0; Win64; x64) AppleWebKit/537.36 (KHTML, like Gecko) Chrome/94.0.4606.61 Safari/537.36",legacy,legacy,legacy,0,uniform,1,1,left,69,69,69,69,0,0,0,69,69,0,0,0,69,69,69,0,0,69,69,0,30-08-21,30-08-21,09:17:17,Thu Sep 30 2021 09:17:17 GMT+0200 (Central European Summer Time),The main experiment item,yes,0,0,/Users/ethan/Documents/GitHub/OpenSesame/Sternberg/experiment_files,0,0,0,no,mono,no,18,no,white,no,no,768,102,3.6.1,legacy,legacy,1,osweb,1.4.0,1,0,n,37,,0,left,up,,space,up,left meta,left,768,150853,,7987,24429,3998,768,2,legacy,824,1536,24,864,24,0,0,1536,1632986326510,1,1024,2,48000,-16,experiment,0,even,Win32,7,622898,383024,,619616,84,620664,588291,84,8078,108695,624914,621682,625696,84,624914,Sternberg_updated,64,67686,70,yes,1024
92,92,969,969,black,no,experiment,Mozilla,Netscape,"5.0 (Windows NT 10.0; Win64; x64) AppleWebKit/537.36 (KHTML, like Gecko) Chrome/94.0.4606.61 Safari/537.36",legacy,legacy,legacy,0,uniform,1,1,right,70,70,70,70,0,0,0,70,70,0,0,0,70,70,70,0,0,70,70,0,30-08-21,30-08-21,09:17:17,Thu Sep 30 2021 09:17:17 GMT+0200 (Central European Summer Time),The main experiment item,yes,0,0,/Users/ethan/Documents/GitHub/OpenSesame/Sternberg/experiment_files,0,0,0,no,mono,no,18,no,white,no,no,768,102,3.6.1,legacy,legacy,7 2 3,osweb,1.4.0,1,3,y,37,,0,right,up,,space,up,left meta,right,1085,150853,,7987,24429,3998,1085,2,legacy,824,1536,24,864,24,0,0,1536,1632986326510,3,1024,2,48000,-16,experiment,0,even,Win32,3,628979,383024,,625698,84,626747,588291,84,8078,108695,630996,627763,632095,84,630996,Sternberg_updated,65,68771,71,yes,1024
92,92,966,966,black,no,experiment,Mozilla,Netscape,"5.0 (Windows NT 10.0; Win64; x64) AppleWebKit/537.36 (KHTML, like Gecko) Chrome/94.0.4606.61 Safari/537.36",legacy,legacy,legacy,0,uniform,1,1,left,71,71,71,71,0,0,0,71,71,0,0,0,71,71,71,0,0,71,71,0,30-08-21,30-08-21,09:17:17,Thu Sep 30 2021 09:17:17 GMT+0200 (Central European Summer Time),The main experiment item,yes,0,0,/Users/ethan/Documents/GitHub/OpenSesame/Sternberg/experiment_files,0,0,0,no,mono,no,18,no,white,no,no,768,102,3.6.1,legacy,legacy,7 9 1 6,osweb,1.4.0,1,0,n,37,,0,left,up,,space,up,left meta,left,748,150853,,7987,24429,3998,748,2,legacy,824,1536,24,864,24,0,0,1536,1632986326510,4,1024,2,48000,-16,experiment,0,even,Win32,4,635378,383024,,632097,84,633146,588291,84,8078,108695,637395,634162,638144,84,637394,Sternberg_updated,66,69519,72,yes,1024
92,92,964,964,black,no,experiment,Mozilla,Netscape,"5.0 (Windows NT 10.0; Win64; x64) AppleWebKit/537.36 (KHTML, like Gecko) Chrome/94.0.4606.61 Safari/537.36",legacy,legacy,legacy,0,uniform,1,1,right,72,72,72,72,0,0,0,72,72,0,0,0,72,72,72,0,0,72,72,0,30-08-21,30-08-21,09:17:17,Thu Sep 30 2021 09:17:17 GMT+0200 (Central European Summer Time),The main experiment item,yes,0,0,/Users/ethan/Documents/GitHub/OpenSesame/Sternberg/experiment_files,0,0,0,no,mono,no,18,no,white,no,no,768,102,3.6.1,legacy,legacy,1 4 9 3 2 5,osweb,1.4.0,1,3,y,37,,0,right,up,,space,up,left meta,right,866,150853,,7987,24429,3998,866,2,legacy,824,1536,24,864,24,0,0,1536,1632986326510,6,1024,2,48000,-16,experiment,0,even,Win32,9,641410,383024,,638145,84,639192,588291,84,8078,108695,643426,640194,644292,84,643426,Sternberg_updated,67,70385,73,yes,1024
92,92,964,964,black,no,experiment,Mozilla,Netscape,"5.0 (Windows NT 10.0; Win64; x64) AppleWebKit/537.36 (KHTML, like Gecko) Chrome/94.0.4606.61 Safari/537.36",legacy,legacy,legacy,0,uniform,1,1,left,73,73,73,73,0,0,0,73,73,0,0,0,73,73,73,0,0,73,73,0,30-08-21,30-08-21,09:17:17,Thu Sep 30 2021 09:17:17 GMT+0200 (Central European Summer Time),The main experiment item,yes,0,0,/Users/ethan/Documents/GitHub/OpenSesame/Sternberg/experiment_files,0,0,0,no,mono,no,18,no,white,no,no,768,102,3.6.1,legacy,legacy,8 6 3 4 7,osweb,1.4.0,1,0,n,37,,0,left,up,,space,up,left meta,left,978,150853,,7987,24429,3998,978,2,legacy,824,1536,24,864,24,0,0,1536,1632986326510,5,1024,2,48000,-16,experiment,0,even,Win32,1,647575,383024,,644294,84,645344,588291,84,8078,108695,649591,646359,650574,84,649591,Sternberg_updated,68,71363,74,yes,1024
91,91,969,969,black,no,experiment,Mozilla,Netscape,"5.0 (Windows NT 10.0; Win64; x64) AppleWebKit/537.36 (KHTML, like Gecko) Chrome/94.0.4606.61 Safari/537.36",legacy,legacy,legacy,0,uniform,0,0,left,74,74,74,74,0,0,0,74,74,0,0,0,74,74,74,0,0,74,74,0,30-08-21,30-08-21,09:17:17,Thu Sep 30 2021 09:17:17 GMT+0200 (Central European Summer Time),The main experiment item,yes,0,0,/Users/ethan/Documents/GitHub/OpenSesame/Sternberg/experiment_files,0,0,0,no,mono,no,18,no,white,no,no,768,102,3.6.1,legacy,legacy,6 9 4 5 2,osweb,1.4.0,1,0,n,37,,0,right,up,,space,up,left meta,right,1287,150853,,7987,24429,3998,1287,2,legacy,824,1536,24,864,24,0,0,1536,1632986326510,5,1024,2,48000,-16,experiment,0,even,Win32,1,653857,383024,,650576,84,651635,588291,84,8078,108695,655873,652641,657172,84,655873,Sternberg_updated,68,72650,75,yes,1024
91,91,968,968,black,no,experiment,Mozilla,Netscape,"5.0 (Windows NT 10.0; Win64; x64) AppleWebKit/537.36 (KHTML, like Gecko) Chrome/94.0.4606.61 Safari/537.36",legacy,legacy,legacy,0,uniform,1,1,right,75,75,75,75,0,0,0,75,75,0,0,0,75,75,75,0,0,75,75,0,30-08-21,30-08-21,09:17:17,Thu Sep 30 2021 09:17:17 GMT+0200 (Central European Summer Time),The main experiment item,yes,0,0,/Users/ethan/Documents/GitHub/OpenSesame/Sternberg/experiment_files,0,0,0,no,mono,no,18,no,white,no,no,768,102,3.6.1,legacy,legacy,8 9 5 6 7,osweb,1.4.0,1,1,y,37,,0,right,up,,space,up,left meta,right,918,150853,,7987,24429,3998,918,2,legacy,824,1536,24,864,24,0,0,1536,1632986326510,5,1024,2,48000,-16,experiment,0,even,Win32,8,660455,383024,,650576,84,658222,657174,84,8078,108695,662472,659239,663404,84,662472,Sternberg_updated,69,73568,76,yes,1024
91,91,968,968,black,no,experiment,Mozilla,Netscape,"5.0 (Windows NT 10.0; Win64; x64) AppleWebKit/537.36 (KHTML, like Gecko) Chrome/94.0.4606.61 Safari/537.36",legacy,legacy,legacy,0,uniform,1,1,left,76,76,76,76,0,0,0,76,76,0,0,0,76,76,76,0,0,76,76,0,30-08-21,30-08-21,09:17:17,Thu Sep 30 2021 09:17:17 GMT+0200 (Central European Summer Time),The main experiment item,yes,0,0,/Users/ethan/Documents/GitHub/OpenSesame/Sternberg/experiment_files,0,0,0,no,mono,no,18,no,white,no,no,768,102,3.6.1,legacy,legacy,7 8 6 1,osweb,1.4.0,1,0,n,37,,0,left,up,,space,up,left meta,left,987,150853,,7987,24429,3998,987,2,legacy,824,1536,24,864,24,0,0,1536,1632986326510,4,1024,2,48000,-16,experiment,0,even,Win32,3,666687,383024,,663405,84,664453,657174,84,8078,108695,668703,665471,669702,84,668703,Sternberg_updated,70,74555,77,yes,1024
91,91,965,965,black,no,experiment,Mozilla,Netscape,"5.0 (Windows NT 10.0; Win64; x64) AppleWebKit/537.36 (KHTML, like Gecko) Chrome/94.0.4606.61 Safari/537.36",legacy,legacy,legacy,0,uniform,1,1,right,77,77,77,77,0,0,0,77,77,0,0,0,77,77,77,0,0,77,77,0,30-08-21,30-08-21,09:17:17,Thu Sep 30 2021 09:17:17 GMT+0200 (Central European Summer Time),The main experiment item,yes,0,0,/Users/ethan/Documents/GitHub/OpenSesame/Sternberg/experiment_files,0,0,0,no,mono,no,18,no,white,no,no,768,102,3.6.1,legacy,legacy,9 3 8 2 1 4,osweb,1.4.0,1,3,y,37,,0,right,up,,space,up,left meta,right,727,150853,,7987,24429,3998,727,2,legacy,824,1536,24,864,24,0,0,1536,1632986326510,6,1024,2,48000,-16,experiment,0,even,Win32,8,672985,383024,,669704,84,670753,657174,84,8078,108695,675002,671769,675735,84,675002,Sternberg_updated,71,75282,78,yes,1024
91,91,966,966,black,no,experiment,Mozilla,Netscape,"5.0 (Windows NT 10.0; Win64; x64) AppleWebKit/537.36 (KHTML, like Gecko) Chrome/94.0.4606.61 Safari/537.36",legacy,legacy,legacy,0,uniform,1,1,right,78,78,78,78,0,0,0,78,78,0,0,0,78,78,78,0,0,78,78,0,30-08-21,30-08-21,09:17:17,Thu Sep 30 2021 09:17:17 GMT+0200 (Central European Summer Time),The main experiment item,yes,0,0,/Users/ethan/Documents/GitHub/OpenSesame/Sternberg/experiment_files,0,0,0,no,mono,no,18,no,white,no,no,768,102,3.6.1,legacy,legacy,6 7 9 3 1 2,osweb,1.4.0,1,1,y,37,,0,right,up,,space,up,left meta,right,1055,150853,,7987,24429,3998,1055,2,legacy,824,1536,24,864,24,0,0,1536,1632986326510,6,1024,2,48000,-16,experiment,0,even,Win32,6,679017,383024,,675736,84,676784,657174,84,8078,108695,681034,677801,682099,84,681034,Sternberg_updated,72,76337,79,yes,1024
91,91,969,969,black,no,experiment,Mozilla,Netscape,"5.0 (Windows NT 10.0; Win64; x64) AppleWebKit/537.36 (KHTML, like Gecko) Chrome/94.0.4606.61 Safari/537.36",legacy,legacy,legacy,0,uniform,1,1,left,79,79,79,79,0,0,0,79,79,0,0,0,79,79,79,0,0,79,79,0,30-08-21,30-08-21,09:17:17,Thu Sep 30 2021 09:17:17 GMT+0200 (Central European Summer Time),The main experiment item,yes,0,0,/Users/ethan/Documents/GitHub/OpenSesame/Sternberg/experiment_files,0,0,0,no,mono,no,18,no,white,no,no,768,102,3.6.1,legacy,legacy,7 4 2 8 1 9,osweb,1.4.0,1,0,n,37,,0,left,up,,space,up,left meta,left,1171,150853,,7987,24429,3998,1171,2,legacy,824,1536,24,864,24,0,0,1536,1632986326510,6,1024,2,48000,-16,experiment,0,even,Win32,5,685366,383024,,682101,84,683147,657174,84,8078,108695,687382,684150,688564,84,687382,Sternberg_updated,73,77508,80,yes,1024
91,91,972,972,black,no,experiment,Mozilla,Netscape,"5.0 (Windows NT 10.0; Win64; x64) AppleWebKit/537.36 (KHTML, like Gecko) Chrome/94.0.4606.61 Safari/537.36",legacy,legacy,legacy,0,uniform,1,1,right,80,80,80,80,0,0,0,80,80,0,0,0,80,80,80,0,0,80,80,0,30-08-21,30-08-21,09:17:17,Thu Sep 30 2021 09:17:17 GMT+0200 (Central European Summer Time),The main experiment item,yes,0,0,/Users/ethan/Documents/GitHub/OpenSesame/Sternberg/experiment_files,0,0,0,no,mono,no,18,no,white,no,no,768,102,3.6.1,legacy,legacy,8 9 6 1,osweb,1.4.0,1,2,y,37,,0,right,up,,space,up,left meta,right,1222,150853,,7987,24429,3998,1222,2,legacy,824,1536,24,864,24,0,0,1536,1632986326510,4,1024,2,48000,-16,experiment,0,even,Win32,9,691831,383024,,688566,84,689613,657174,84,8078,108695,693847,690615,695080,84,693847,Sternberg_updated,74,78730,81,yes,1024
91,91,970,970,black,no,experiment,Mozilla,Netscape,"5.0 (Windows NT 10.0; Win64; x64) AppleWebKit/537.36 (KHTML, like Gecko) Chrome/94.0.4606.61 Safari/537.36",legacy,legacy,legacy,0,uniform,1,1,right,81,81,81,81,0,0,0,81,81,0,0,0,81,81,81,0,0,81,81,0,30-08-21,30-08-21,09:17:17,Thu Sep 30 2021 09:17:17 GMT+0200 (Central European Summer Time),The main experiment item,yes,0,0,/Users/ethan/Documents/GitHub/OpenSesame/Sternberg/experiment_files,0,0,0,no,mono,no,18,no,white,no,no,768,102,3.6.1,legacy,legacy,4 6 5 8,osweb,1.4.0,1,1,y,37,,0,right,up,,space,up,left meta,right,845,150853,,7987,24429,3998,845,2,legacy,824,1536,24,864,24,0,0,1536,1632986326510,4,1024,2,48000,-16,experiment,0,even,Win32,4,698346,383024,,695081,84,696128,657174,84,8078,108695,700362,697130,701211,84,700362,Sternberg_updated,75,79575,82,yes,1024
92,92,977,977,black,no,experiment,Mozilla,Netscape,"5.0 (Windows NT 10.0; Win64; x64) AppleWebKit/537.36 (KHTML, like Gecko) Chrome/94.0.4606.61 Safari/537.36",legacy,legacy,legacy,0,uniform,1,1,right,82,82,82,82,0,0,0,82,82,0,0,0,82,82,82,0,0,82,82,0,30-08-21,30-08-21,09:17:17,Thu Sep 30 2021 09:17:17 GMT+0200 (Central European Summer Time),The main experiment item,yes,0,0,/Users/ethan/Documents/GitHub/OpenSesame/Sternberg/experiment_files,0,0,0,no,mono,no,18,no,white,no,no,768,102,3.6.1,legacy,legacy,9 3 1 2 5,osweb,1.4.0,1,4,y,37,,0,right,up,,space,up,left meta,right,1480,150853,,7987,24429,3998,1480,2,legacy,824,1536,24,864,24,0,0,1536,1632986326510,5,1024,2,48000,-16,experiment,0,even,Win32,2,704478,383024,,701213,84,702251,657174,84,8078,108695,706494,703262,707976,84,706494,Sternberg_updated,76,81055,83,yes,1024
92,92,976,976,black,no,experiment,Mozilla,Netscape,"5.0 (Windows NT 10.0; Win64; x64) AppleWebKit/537.36 (KHTML, like Gecko) Chrome/94.0.4606.61 Safari/537.36",legacy,legacy,legacy,0,uniform,1,1,right,83,83,83,83,0,0,0,83,83,0,0,0,83,83,83,0,0,83,83,0,30-08-21,30-08-21,09:17:17,Thu Sep 30 2021 09:17:17 GMT+0200 (Central European Summer Time),The main experiment item,yes,0,0,/Users/ethan/Documents/GitHub/OpenSesame/Sternberg/experiment_files,0,0,0,no,mono,no,18,no,white,no,no,768,102,3.6.1,legacy,legacy,3 5 9 6 2 4,osweb,1.4.0,1,1,y,37,,0,right,up,,space,up,left meta,right,907,150853,,7987,24429,3998,907,2,legacy,824,1536,24,864,24,0,0,1536,1632986326510,6,1024,2,48000,-16,experiment,0,even,Win32,3,711259,383024,,707978,84,709031,657174,84,8078,108695,713276,710043,714192,84,713276,Sternberg_updated,77,81962,84,yes,1024
92,92,977,977,black,no,experiment,Mozilla,Netscape,"5.0 (Windows NT 10.0; Win64; x64) AppleWebKit/537.36 (KHTML, like Gecko) Chrome/94.0.4606.61 Safari/537.36",legacy,legacy,legacy,0,uniform,1,1,left,84,84,84,84,0,0,0,84,84,0,0,0,84,84,84,0,0,84,84,0,30-08-21,30-08-21,09:17:17,Thu Sep 30 2021 09:17:17 GMT+0200 (Central European Summer Time),The main experiment item,yes,0,0,/Users/ethan/Documents/GitHub/OpenSesame/Sternberg/experiment_files,0,0,0,no,mono,no,18,no,white,no,no,768,102,3.6.1,legacy,legacy,9 8 2 7 4,osweb,1.4.0,1,0,n,37,,0,left,up,,space,up,left meta,left,1059,150853,,7987,24429,3998,1059,2,legacy,824,1536,24,864,24,0,0,1536,1632986326510,5,1024,2,48000,-16,experiment,0,even,Win32,5,717474,383024,,714193,84,715248,657174,84,8078,108695,719491,716258,720557,84,719491,Sternberg_updated,78,83021,85,yes,1024
92,92,983,983,black,no,experiment,Mozilla,Netscape,"5.0 (Windows NT 10.0; Win64; x64) AppleWebKit/537.36 (KHTML, like Gecko) Chrome/94.0.4606.61 Safari/537.36",legacy,legacy,legacy,0,uniform,1,1,left,85,85,85,85,0,0,0,85,85,0,0,0,85,85,85,0,0,85,85,0,30-08-21,30-08-21,09:17:17,Thu Sep 30 2021 09:17:17 GMT+0200 (Central European Summer Time),The main experiment item,yes,0,0,/Users/ethan/Documents/GitHub/OpenSesame/Sternberg/experiment_files,0,0,0,no,mono,no,18,no,white,no,no,768,102,3.6.1,legacy,legacy,6 8 4,osweb,1.4.0,1,0,n,37,,0,left,up,,space,up,left meta,left,1532,150853,,7987,24429,3998,1532,2,legacy,824,1536,24,864,24,0,0,1536,1632986326510,3,1024,2,48000,-16,experiment,0,even,Win32,1,723840,383024,,720558,84,721609,657174,84,8078,108695,725856,722623,727389,84,725856,Sternberg_updated,79,84553,86,yes,1024
92,92,985,985,black,no,experiment,Mozilla,Netscape,"5.0 (Windows NT 10.0; Win64; x64) AppleWebKit/537.36 (KHTML, like Gecko) Chrome/94.0.4606.61 Safari/537.36",legacy,legacy,legacy,0,uniform,1,1,left,86,86,86,86,0,0,0,86,86,0,0,0,86,86,86,0,0,86,86,0,30-08-21,30-08-21,09:17:17,Thu Sep 30 2021 09:17:17 GMT+0200 (Central European Summer Time),The main experiment item,yes,0,0,/Users/ethan/Documents/GitHub/OpenSesame/Sternberg/experiment_files,0,0,0,no,mono,no,18,no,white,no,no,768,102,3.6.1,legacy,legacy,6 9 7 3 8 2,osweb,1.4.0,1,0,n,37,,0,left,up,,space,up,left meta,left,1125,150853,,7987,24429,3998,1125,2,legacy,824,1536,24,864,24,0,0,1536,1632986326510,6,1024,2,48000,-16,experiment,0,even,Win32,5,730671,383024,,727390,84,728440,657174,84,8078,108695,732688,729455,733820,84,732688,Sternberg_updated,80,85678,87,yes,1024
92,92,984,984,black,no,experiment,Mozilla,Netscape,"5.0 (Windows NT 10.0; Win64; x64) AppleWebKit/537.36 (KHTML, like Gecko) Chrome/94.0.4606.61 Safari/537.36",legacy,legacy,legacy,0,uniform,1,1,left,87,87,87,87,0,0,0,87,87,0,0,0,87,87,87,0,0,87,87,0,30-08-21,30-08-21,09:17:17,Thu Sep 30 2021 09:17:17 GMT+0200 (Central European Summer Time),The main experiment item,yes,0,0,/Users/ethan/Documents/GitHub/OpenSesame/Sternberg/experiment_files,0,0,0,no,mono,no,18,no,white,no,no,768,102,3.6.1,legacy,legacy,3 9 1,osweb,1.4.0,1,0,n,37,,0,left,up,,space,up,left meta,left,951,150853,,7987,24429,3998,951,2,legacy,824,1536,24,864,24,0,0,1536,1632986326510,3,1024,2,48000,-16,experiment,0,even,Win32,7,737103,383024,,733822,84,734873,657174,84,8078,108695,739119,735889,740085,84,739119,Sternberg_updated,81,86629,88,yes,1024
92,92,983,983,black,no,experiment,Mozilla,Netscape,"5.0 (Windows NT 10.0; Win64; x64) AppleWebKit/537.36 (KHTML, like Gecko) Chrome/94.0.4606.61 Safari/537.36",legacy,legacy,legacy,0,uniform,1,1,right,88,88,88,88,0,0,0,88,88,0,0,0,88,88,88,0,0,88,88,0,30-08-21,30-08-21,09:17:17,Thu Sep 30 2021 09:17:17 GMT+0200 (Central European Summer Time),The main experiment item,yes,0,0,/Users/ethan/Documents/GitHub/OpenSesame/Sternberg/experiment_files,0,0,0,no,mono,no,18,no,white,no,no,768,102,3.6.1,legacy,legacy,4 1 5,osweb,1.4.0,1,2,y,37,,0,right,up,,space,up,left meta,right,851,150853,,7987,24429,3998,851,2,legacy,824,1536,24,864,24,0,0,1536,1632986326510,3,1024,2,48000,-16,experiment,0,even,Win32,1,743368,383024,,740087,84,741138,657174,84,8078,108695,745385,742152,746250,84,745385,Sternberg_updated,82,87480,89,yes,1024
92,92,979,979,black,no,experiment,Mozilla,Netscape,"5.0 (Windows NT 10.0; Win64; x64) AppleWebKit/537.36 (KHTML, like Gecko) Chrome/94.0.4606.61 Safari/537.36",legacy,legacy,legacy,0,uniform,1,1,right,89,89,89,89,0,0,0,89,89,0,0,0,89,89,89,0,0,89,89,0,30-08-21,30-08-21,09:17:17,Thu Sep 30 2021 09:17:17 GMT+0200 (Central European Summer Time),The main experiment item,yes,0,0,/Users/ethan/Documents/GitHub/OpenSesame/Sternberg/experiment_files,0,0,0,no,mono,no,18,no,white,no,no,768,102,3.6.1,legacy,legacy,8 5 3 7 4 6,osweb,1.4.0,1,6,y,37,,0,right,up,,space,up,left meta,right,603,150853,,7987,24429,3998,603,2,legacy,824,1536,24,864,24,0,0,1536,1632986326510,6,1024,2,48000,-16,experiment,0,even,Win32,6,749533,383024,,746252,84,747301,657174,84,8078,108695,751550,748317,752165,84,751550,Sternberg_updated,83,88083,90,yes,1024
92,92,975,975,black,no,experiment,Mozilla,Netscape,"5.0 (Windows NT 10.0; Win64; x64) AppleWebKit/537.36 (KHTML, like Gecko) Chrome/94.0.4606.61 Safari/537.36",legacy,legacy,legacy,0,uniform,1,1,right,90,90,90,90,0,0,0,90,90,0,0,0,90,90,90,0,0,90,90,0,30-08-21,30-08-21,09:17:17,Thu Sep 30 2021 09:17:17 GMT+0200 (Central European Summer Time),The main experiment item,yes,0,0,/Users/ethan/Documents/GitHub/OpenSesame/Sternberg/experiment_files,0,0,0,no,mono,no,18,no,white,no,no,768,102,3.6.1,legacy,legacy,8 7 3,osweb,1.4.0,1,1,y,37,,0,right,up,,space,up,left meta,right,651,150853,,7987,24429,3998,651,2,legacy,824,1536,24,864,24,0,0,1536,1632986326510,3,1024,2,48000,-16,experiment,0,even,Win32,8,755448,383024,,752167,84,753216,657174,84,8078,108695,757465,754232,758131,84,757465,Sternberg_updated,84,88734,91,yes,1024
92,92,973,973,black,no,experiment,Mozilla,Netscape,"5.0 (Windows NT 10.0; Win64; x64) AppleWebKit/537.36 (KHTML, like Gecko) Chrome/94.0.4606.61 Safari/537.36",legacy,legacy,legacy,0,uniform,1,1,right,91,91,91,91,0,0,0,91,91,0,0,0,91,91,91,0,0,91,91,0,30-08-21,30-08-21,09:17:17,Thu Sep 30 2021 09:17:17 GMT+0200 (Central European Summer Time),The main experiment item,yes,0,0,/Users/ethan/Documents/GitHub/OpenSesame/Sternberg/experiment_files,0,0,0,no,mono,no,18,no,white,no,no,768,102,3.6.1,legacy,legacy,2 4 6 9,osweb,1.4.0,1,3,y,37,,0,right,up,,space,up,left meta,right,757,150853,,7987,24429,3998,757,2,legacy,824,1536,24,864,24,0,0,1536,1632986326510,4,1024,2,48000,-16,experiment,0,even,Win32,6,761414,383024,,758132,84,759186,657174,84,8078,108695,763430,760198,764196,84,763430,Sternberg_updated,85,89491,92,yes,1024
92,92,977,977,black,no,experiment,Mozilla,Netscape,"5.0 (Windows NT 10.0; Win64; x64) AppleWebKit/537.36 (KHTML, like Gecko) Chrome/94.0.4606.61 Safari/537.36",legacy,legacy,legacy,0,uniform,1,1,right,92,92,92,92,0,0,0,92,92,0,0,0,92,92,92,0,0,92,92,0,30-08-21,30-08-21,09:17:17,Thu Sep 30 2021 09:17:17 GMT+0200 (Central European Summer Time),The main experiment item,yes,0,0,/Users/ethan/Documents/GitHub/OpenSesame/Sternberg/experiment_files,0,0,0,no,mono,no,18,no,white,no,no,768,102,3.6.1,legacy,legacy,2 8 5 1,osweb,1.4.0,1,4,y,37,,0,right,up,,space,up,left meta,right,1355,150853,,7987,24429,3998,1355,2,legacy,824,1536,24,864,24,0,0,1536,1632986326510,4,1024,2,48000,-16,experiment,0,even,Win32,1,767479,383024,,764197,84,765247,657174,84,8078,108695,769495,766263,770861,84,769495,Sternberg_updated,86,90846,93,yes,1024
93,93,973,973,black,no,experiment,Mozilla,Netscape,"5.0 (Windows NT 10.0; Win64; x64) AppleWebKit/537.36 (KHTML, like Gecko) Chrome/94.0.4606.61 Safari/537.36",legacy,legacy,legacy,0,uniform,1,1,right,93,93,93,93,0,0,0,93,93,0,0,0,93,93,93,0,0,93,93,0,30-08-21,30-08-21,09:17:17,Thu Sep 30 2021 09:17:17 GMT+0200 (Central European Summer Time),The main experiment item,yes,0,0,/Users/ethan/Documents/GitHub/OpenSesame/Sternberg/experiment_files,0,0,0,no,mono,no,18,no,white,no,no,768,102,3.6.1,legacy,legacy,7,osweb,1.4.0,1,1,y,37,,0,right,up,,space,up,left meta,right,653,150853,,7987,24429,3998,653,2,legacy,824,1536,24,864,24,0,0,1536,1632986326510,1,1024,2,48000,-16,experiment,0,even,Win32,7,774144,383024,,770862,84,771911,657174,84,8078,108695,776160,772928,776826,84,776160,Sternberg_updated,87,91499,94,yes,1024
93,93,969,969,black,no,experiment,Mozilla,Netscape,"5.0 (Windows NT 10.0; Win64; x64) AppleWebKit/537.36 (KHTML, like Gecko) Chrome/94.0.4606.61 Safari/537.36",legacy,legacy,legacy,0,uniform,1,1,right,94,94,94,94,0,0,0,94,94,0,0,0,94,94,94,0,0,94,94,0,30-08-21,30-08-21,09:17:17,Thu Sep 30 2021 09:17:17 GMT+0200 (Central European Summer Time),The main experiment item,yes,0,0,/Users/ethan/Documents/GitHub/OpenSesame/Sternberg/experiment_files,0,0,0,no,mono,no,18,no,white,no,no,768,102,3.6.1,legacy,legacy,4 3 2 5 8,osweb,1.4.0,1,2,y,37,,0,right,up,,space,up,left meta,right,551,150853,,7987,24429,3998,551,2,legacy,824,1536,24,864,24,0,0,1536,1632986326510,5,1024,2,48000,-16,experiment,0,even,Win32,3,780109,383024,,776827,84,777880,657174,84,8078,108695,782126,778893,782691,84,782126,Sternberg_updated,88,92050,95,yes,1024
93,93,965,965,black,no,experiment,Mozilla,Netscape,"5.0 (Windows NT 10.0; Win64; x64) AppleWebKit/537.36 (KHTML, like Gecko) Chrome/94.0.4606.61 Safari/537.36",legacy,legacy,legacy,0,uniform,1,1,right,95,95,95,95,0,0,0,95,95,0,0,0,95,95,95,0,0,95,95,0,30-08-21,30-08-21,09:17:17,Thu Sep 30 2021 09:17:17 GMT+0200 (Central European Summer Time),The main experiment item,yes,0,0,/Users/ethan/Documents/GitHub/OpenSesame/Sternberg/experiment_files,0,0,0,no,mono,no,18,no,white,no,no,768,102,3.6.1,legacy,legacy,6 2,osweb,1.4.0,1,1,y,37,,0,right,up,,space,up,left meta,right,630,150853,,7987,24429,3998,630,2,legacy,824,1536,24,864,24,0,0,1536,1632986326510,2,1024,2,48000,-16,experiment,0,even,Win32,6,785974,383024,,782693,84,783744,657174,84,8078,108695,787991,784758,788623,84,787991,Sternberg_updated,89,92680,96,yes,1024
93,93,964,964,black,no,experiment,Mozilla,Netscape,"5.0 (Windows NT 10.0; Win64; x64) AppleWebKit/537.36 (KHTML, like Gecko) Chrome/94.0.4606.61 Safari/537.36",legacy,legacy,legacy,0,uniform,1,1,left,96,96,96,96,0,0,0,96,96,0,0,0,96,96,96,0,0,96,96,0,30-08-21,30-08-21,09:17:17,Thu Sep 30 2021 09:17:17 GMT+0200 (Central European Summer Time),The main experiment item,yes,0,0,/Users/ethan/Documents/GitHub/OpenSesame/Sternberg/experiment_files,0,0,0,no,mono,no,18,no,white,no,no,768,102,3.6.1,legacy,legacy,8 2 1 4 5 9,osweb,1.4.0,1,0,n,37,,0,left,up,,space,up,left meta,left,833,150853,,7987,24429,3998,833,2,legacy,824,1536,24,864,24,0,0,1536,1632986326510,6,1024,2,48000,-16,experiment,0,even,Win32,7,791906,383024,,788625,84,789688,657174,84,8078,108695,793923,790690,794772,84,793923,Sternberg_updated,90,93513,97,yes,1024
93,93,961,961,black,no,experiment,Mozilla,Netscape,"5.0 (Windows NT 10.0; Win64; x64) AppleWebKit/537.36 (KHTML, like Gecko) Chrome/94.0.4606.61 Safari/537.36",legacy,legacy,legacy,0,uniform,1,1,right,97,97,97,97,0,0,0,97,97,0,0,0,97,97,97,0,0,97,97,0,30-08-21,30-08-21,09:17:17,Thu Sep 30 2021 09:17:17 GMT+0200 (Central European Summer Time),The main experiment item,yes,0,0,/Users/ethan/Documents/GitHub/OpenSesame/Sternberg/experiment_files,0,0,0,no,mono,no,18,no,white,no,no,768,102,3.6.1,legacy,legacy,6 1 2,osweb,1.4.0,1,3,y,37,,0,right,up,up,space,up,left meta,right,655,150853,86499,7987,24429,3998,655,2,legacy,824,1536,24,864,24,0,0,1536,1632986326510,3,1024,2,48000,-16,experiment,0,even,Win32,2,884567,383024,795789,794773,84,882336,657174,84,8078,108695,886583,883350,887249,84,886583,Sternberg_updated,91,94168,98,yes,1024
93,93,963,963,black,no,experiment,Mozilla,Netscape,"5.0 (Windows NT 10.0; Win64; x64) AppleWebKit/537.36 (KHTML, like Gecko) Chrome/94.0.4606.61 Safari/537.36",legacy,legacy,legacy,0,uniform,1,1,left,98,98,98,98,0,0,0,98,98,0,0,0,98,98,98,0,0,98,98,0,30-08-21,30-08-21,09:17:17,Thu Sep 30 2021 09:17:17 GMT+0200 (Central European Summer Time),The main experiment item,yes,0,0,/Users/ethan/Documents/GitHub/OpenSesame/Sternberg/experiment_files,0,0,0,no,mono,no,18,no,white,no,no,768,102,3.6.1,legacy,legacy,5 9 2 3,osweb,1.4.0,1,0,n,37,,0,left,up,up,space,up,left meta,left,1135,150853,86499,7987,24429,3998,1135,2,legacy,824,1536,24,864,24,0,0,1536,1632986326510,4,1024,2,48000,-16,experiment,0,even,Win32,8,890532,383024,795789,887251,84,888308,657174,84,8078,108695,892549,889316,893697,84,892548,Sternberg_updated,92,95303,99,yes,1024
93,93,961,961,black,no,experiment,Mozilla,Netscape,"5.0 (Windows NT 10.0; Win64; x64) AppleWebKit/537.36 (KHTML, like Gecko) Chrome/94.0.4606.61 Safari/537.36",legacy,legacy,legacy,0,uniform,1,1,left,99,99,99,99,0,0,0,99,99,0,0,0,99,99,99,0,0,99,99,0,30-08-21,30-08-21,09:17:17,Thu Sep 30 2021 09:17:17 GMT+0200 (Central European Summer Time),The main experiment item,yes,0,0,/Users/ethan/Documents/GitHub/OpenSesame/Sternberg/experiment_files,0,0,0,no,mono,no,18,no,white,no,no,768,102,3.6.1,legacy,legacy,5,osweb,1.4.0,1,0,n,37,,0,left,up,up,space,up,left meta,left,750,150853,86499,7987,24429,3998,750,2,legacy,824,1536,24,864,24,0,0,1536,1632986326510,1,1024,2,48000,-16,experiment,0,even,Win32,8,896980,383024,795789,893699,84,894747,657174,84,8078,108695,898997,895767,899763,84,898997,Sternberg_updated,93,96053,100,yes,1024
93,93,958,958,black,no,experiment,Mozilla,Netscape,"5.0 (Windows NT 10.0; Win64; x64) AppleWebKit/537.36 (KHTML, like Gecko) Chrome/94.0.4606.61 Safari/537.36",legacy,legacy,legacy,0,uniform,1,1,right,100,100,100,100,0,0,0,100,100,0,0,0,100,100,100,0,0,100,100,0,30-08-21,30-08-21,09:17:17,Thu Sep 30 2021 09:17:17 GMT+0200 (Central European Summer Time),The main experiment item,yes,0,0,/Users/ethan/Documents/GitHub/OpenSesame/Sternberg/experiment_files,0,0,0,no,mono,no,18,no,white,no,no,768,102,3.6.1,legacy,legacy,3 9 6 2,osweb,1.4.0,1,4,y,37,,0,right,up,up,space,up,left meta,right,679,150853,86499,7987,24429,3998,679,2,legacy,824,1536,24,864,24,0,0,1536,1632986326510,4,1024,2,48000,-16,experiment,0,even,Win32,2,903028,383024,795789,899764,84,900809,657174,84,8078,108695,905045,901813,905728,84,905045,Sternberg_updated,94,96732,101,yes,1024
92,92,963,963,black,no,experiment,Mozilla,Netscape,"5.0 (Windows NT 10.0; Win64; x64) AppleWebKit/537.36 (KHTML, like Gecko) Chrome/94.0.4606.61 Safari/537.36",legacy,legacy,legacy,0,uniform,0,0,left,101,101,101,101,0,0,0,101,101,0,0,0,101,101,101,0,0,101,101,0,30-08-21,30-08-21,09:17:17,Thu Sep 30 2021 09:17:17 GMT+0200 (Central European Summer Time),The main experiment item,yes,0,0,/Users/ethan/Documents/GitHub/OpenSesame/Sternberg/experiment_files,0,0,0,no,mono,no,18,no,white,no,no,768,102,3.6.1,legacy,legacy,5 7 3,osweb,1.4.0,1,0,n,37,,0,right,up,up,space,up,left meta,right,1447,150853,86499,7987,24429,3998,1447,2,legacy,824,1536,24,864,24,0,0,1536,1632986326510,3,1024,2,48000,-16,experiment,0,even,Win32,9,908994,383024,795789,905729,84,906775,657174,84,8078,108695,911011,907778,912459,84,911010,Sternberg_updated,94,98179,102,yes,1024
92,92,963,963,black,no,experiment,Mozilla,Netscape,"5.0 (Windows NT 10.0; Win64; x64) AppleWebKit/537.36 (KHTML, like Gecko) Chrome/94.0.4606.61 Safari/537.36",legacy,legacy,legacy,0,uniform,1,1,right,102,102,102,102,0,0,0,102,102,0,0,0,102,102,102,0,0,102,102,0,30-08-21,30-08-21,09:17:17,Thu Sep 30 2021 09:17:17 GMT+0200 (Central European Summer Time),The main experiment item,yes,0,0,/Users/ethan/Documents/GitHub/OpenSesame/Sternberg/experiment_files,0,0,0,no,mono,no,18,no,white,no,no,768,102,3.6.1,legacy,legacy,9 1 6 7 8,osweb,1.4.0,1,1,y,37,,0,right,up,up,space,up,left meta,right,983,150853,86499,7987,24429,3998,983,2,legacy,824,1536,24,864,24,0,0,1536,1632986326510,5,1024,2,48000,-16,experiment,0,even,Win32,9,915742,383024,795789,905729,84,913523,912461,84,8078,108695,917759,914526,918758,84,917759,Sternberg_updated,95,99162,103,yes,1024
92,92,963,963,black,no,experiment,Mozilla,Netscape,"5.0 (Windows NT 10.0; Win64; x64) AppleWebKit/537.36 (KHTML, like Gecko) Chrome/94.0.4606.61 Safari/537.36",legacy,legacy,legacy,0,uniform,1,1,left,103,103,103,103,0,0,0,103,103,0,0,0,103,103,103,0,0,103,103,0,30-08-21,30-08-21,09:17:17,Thu Sep 30 2021 09:17:17 GMT+0200 (Central European Summer Time),The main experiment item,yes,0,0,/Users/ethan/Documents/GitHub/OpenSesame/Sternberg/experiment_files,0,0,0,no,mono,no,18,no,white,no,no,768,102,3.6.1,legacy,legacy,2 6 4 3 9,osweb,1.4.0,1,0,n,37,,0,left,up,up,space,up,left meta,left,944,150853,86499,7987,24429,3998,944,2,legacy,824,1536,24,864,24,0,0,1536,1632986326510,5,1024,2,48000,-16,experiment,0,even,Win32,1,922041,383024,795789,918760,84,919807,912461,84,8078,108695,924057,920825,925006,84,924057,Sternberg_updated,96,100106,104,yes,1024
92,92,960,960,black,no,experiment,Mozilla,Netscape,"5.0 (Windows NT 10.0; Win64; x64) AppleWebKit/537.36 (KHTML, like Gecko) Chrome/94.0.4606.61 Safari/537.36",legacy,legacy,legacy,0,uniform,1,1,right,104,104,104,104,0,0,0,104,104,0,0,0,104,104,104,0,0,104,104,0,30-08-21,30-08-21,09:17:17,Thu Sep 30 2021 09:17:17 GMT+0200 (Central European Summer Time),The main experiment item,yes,0,0,/Users/ethan/Documents/GitHub/OpenSesame/Sternberg/experiment_files,0,0,0,no,mono,no,18,no,white,no,no,768,102,3.6.1,legacy,legacy,8 9 5 7 1 6,osweb,1.4.0,1,4,y,37,,0,right,up,up,space,up,left meta,right,739,150853,86499,7987,24429,3998,739,2,legacy,824,1536,24,864,24,0,0,1536,1632986326510,6,1024,2,48000,-16,experiment,0,even,Win32,7,928289,383024,795789,925008,84,926067,912461,84,8078,108695,930306,927073,931055,84,930306,Sternberg_updated,97,100845,105,yes,1024
92,92,958,958,black,no,experiment,Mozilla,Netscape,"5.0 (Windows NT 10.0; Win64; x64) AppleWebKit/537.36 (KHTML, like Gecko) Chrome/94.0.4606.61 Safari/537.36",legacy,legacy,legacy,0,uniform,1,1,left,105,105,105,105,0,0,0,105,105,0,0,0,105,105,105,0,0,105,105,0,30-08-21,30-08-21,09:17:17,Thu Sep 30 2021 09:17:17 GMT+0200 (Central European Summer Time),The main experiment item,yes,0,0,/Users/ethan/Documents/GitHub/OpenSesame/Sternberg/experiment_files,0,0,0,no,mono,no,18,no,white,no,no,768,102,3.6.1,legacy,legacy,4 2 6 9,osweb,1.4.0,1,0,n,37,,0,left,up,up,space,up,left meta,left,704,150853,86499,7987,24429,3998,704,2,legacy,824,1536,24,864,24,0,0,1536,1632986326510,4,1024,2,48000,-16,experiment,0,even,Win32,7,934338,383024,795789,931057,84,932111,912461,84,8078,108695,936354,933122,937070,84,936354,Sternberg_updated,98,101549,106,yes,1024
93,93,956,956,black,no,experiment,Mozilla,Netscape,"5.0 (Windows NT 10.0; Win64; x64) AppleWebKit/537.36 (KHTML, like Gecko) Chrome/94.0.4606.61 Safari/537.36",legacy,legacy,legacy,0,uniform,1,1,left,106,106,106,106,0,0,0,106,106,0,0,0,106,106,106,0,0,106,106,0,30-08-21,30-08-21,09:17:17,Thu Sep 30 2021 09:17:17 GMT+0200 (Central European Summer Time),The main experiment item,yes,0,0,/Users/ethan/Documents/GitHub/OpenSesame/Sternberg/experiment_files,0,0,0,no,mono,no,18,no,white,no,no,768,102,3.6.1,legacy,legacy,2 8 9 4 1,osweb,1.4.0,1,0,n,37,,0,left,up,up,space,up,left meta,left,739,150853,86499,7987,24429,3998,739,2,legacy,824,1536,24,864,24,0,0,1536,1632986326510,5,1024,2,48000,-16,experiment,0,even,Win32,5,940353,383024,795789,937072,84,938123,912461,84,8078,108695,942370,939137,943119,84,942370,Sternberg_updated,99,102288,107,yes,1024
93,93,954,954,black,no,experiment,Mozilla,Netscape,"5.0 (Windows NT 10.0; Win64; x64) AppleWebKit/537.36 (KHTML, like Gecko) Chrome/94.0.4606.61 Safari/537.36",legacy,legacy,legacy,0,uniform,1,1,left,107,107,107,107,0,0,0,107,107,0,0,0,107,107,107,0,0,107,107,0,30-08-21,30-08-21,09:17:17,Thu Sep 30 2021 09:17:17 GMT+0200 (Central European Summer Time),The main experiment item,yes,0,0,/Users/ethan/Documents/GitHub/OpenSesame/Sternberg/experiment_files,0,0,0,no,mono,no,18,no,white,no,no,768,102,3.6.1,legacy,legacy,1 5 3 2 8,osweb,1.4.0,1,0,n,37,,0,left,up,up,space,up,left meta,left,762,150853,86499,7987,24429,3998,762,2,legacy,824,1536,24,864,24,0,0,1536,1632986326510,5,1024,2,48000,-16,experiment,0,even,Win32,4,946401,383024,795789,943120,84,944171,912461,84,8078,108695,948418,945185,949184,84,948418,Sternberg_updated,100,103050,108,yes,1024
93,93,953,953,black,no,experiment,Mozilla,Netscape,"5.0 (Windows NT 10.0; Win64; x64) AppleWebKit/537.36 (KHTML, like Gecko) Chrome/94.0.4606.61 Safari/537.36",legacy,legacy,legacy,0,uniform,1,1,left,108,108,108,108,0,0,0,108,108,0,0,0,108,108,108,0,0,108,108,0,30-08-21,30-08-21,09:17:17,Thu Sep 30 2021 09:17:17 GMT+0200 (Central European Summer Time),The main experiment item,yes,0,0,/Users/ethan/Documents/GitHub/OpenSesame/Sternberg/experiment_files,0,0,0,no,mono,no,18,no,white,no,no,768,102,3.6.1,legacy,legacy,7 1 5 6 3,osweb,1.4.0,1,0,n,37,,0,left,up,up,space,up,left meta,left,856,150853,86499,7987,24429,3998,856,2,legacy,824,1536,24,864,24,0,0,1536,1632986326510,5,1024,2,48000,-16,experiment,0,even,Win32,8,952467,383024,795789,949187,84,950235,912461,84,8078,108695,954483,951251,955349,84,954483,Sternberg_updated,101,103906,109,yes,1024
93,93,955,955,black,no,experiment,Mozilla,Netscape,"5.0 (Windows NT 10.0; Win64; x64) AppleWebKit/537.36 (KHTML, like Gecko) Chrome/94.0.4606.61 Safari/537.36",legacy,legacy,legacy,0,uniform,1,1,left,109,109,109,109,0,0,0,109,109,0,0,0,109,109,109,0,0,109,109,0,30-08-21,30-08-21,09:17:17,Thu Sep 30 2021 09:17:17 GMT+0200 (Central European Summer Time),The main experiment item,yes,0,0,/Users/ethan/Documents/GitHub/OpenSesame/Sternberg/experiment_files,0,0,0,no,mono,no,18,no,white,no,no,768,102,3.6.1,legacy,legacy,3 4 2,osweb,1.4.0,1,0,n,37,,0,left,up,up,space,up,left meta,left,1175,150853,86499,7987,24429,3998,1175,2,legacy,824,1536,24,864,24,0,0,1536,1632986326510,3,1024,2,48000,-16,experiment,0,even,Win32,5,958632,383024,795789,955351,84,956407,912461,84,8078,108695,960648,957416,961831,84,960648,Sternberg_updated,102,105081,110,yes,1024
93,93,955,955,black,no,experiment,Mozilla,Netscape,"5.0 (Windows NT 10.0; Win64; x64) AppleWebKit/537.36 (KHTML, like Gecko) Chrome/94.0.4606.61 Safari/537.36",legacy,legacy,legacy,0,uniform,1,1,right,110,110,110,110,0,0,0,110,110,0,0,0,110,110,110,0,0,110,110,0,30-08-21,30-08-21,09:17:17,Thu Sep 30 2021 09:17:17 GMT+0200 (Central European Summer Time),The main experiment item,yes,0,0,/Users/ethan/Documents/GitHub/OpenSesame/Sternberg/experiment_files,0,0,0,no,mono,no,18,no,white,no,no,768,102,3.6.1,legacy,legacy,9 1 7 2,osweb,1.4.0,1,2,y,37,,0,right,up,up,space,up,left meta,right,901,150853,86499,7987,24429,3998,901,2,legacy,824,1536,24,864,24,0,0,1536,1632986326510,4,1024,2,48000,-16,experiment,0,even,Win32,1,965114,383024,795789,961832,84,962883,912461,84,8078,108695,967130,963898,968046,84,967130,Sternberg_updated,103,105982,111,yes,1024
93,93,955,955,black,no,experiment,Mozilla,Netscape,"5.0 (Windows NT 10.0; Win64; x64) AppleWebKit/537.36 (KHTML, like Gecko) Chrome/94.0.4606.61 Safari/537.36",legacy,legacy,legacy,0,uniform,1,1,right,111,111,111,111,0,0,0,111,111,0,0,0,111,111,111,0,0,111,111,0,30-08-21,30-08-21,09:17:17,Thu Sep 30 2021 09:17:17 GMT+0200 (Central European Summer Time),The main experiment item,yes,0,0,/Users/ethan/Documents/GitHub/OpenSesame/Sternberg/experiment_files,0,0,0,no,mono,no,18,no,white,no,no,768,102,3.6.1,legacy,legacy,5 7 3 6 2,osweb,1.4.0,1,5,y,37,,0,right,up,up,space,up,left meta,right,999,150853,86499,7987,24429,3998,999,2,legacy,824,1536,24,864,24,0,0,1536,1632986326510,5,1024,2,48000,-16,experiment,0,even,Win32,2,971312,383024,795789,968047,84,969091,912461,84,8078,108695,973328,970096,974328,84,973328,Sternberg_updated,104,106981,112,yes,1024
92,92,959,959,black,no,experiment,Mozilla,Netscape,"5.0 (Windows NT 10.0; Win64; x64) AppleWebKit/537.36 (KHTML, like Gecko) Chrome/94.0.4606.61 Safari/537.36",legacy,legacy,legacy,0,uniform,0,0,right,112,112,112,112,0,0,0,112,112,0,0,0,112,112,112,0,0,112,112,0,30-08-21,30-08-21,09:17:17,Thu Sep 30 2021 09:17:17 GMT+0200 (Central European Summer Time),The main experiment item,yes,0,0,/Users/ethan/Documents/GitHub/OpenSesame/Sternberg/experiment_files,0,0,0,no,mono,no,18,no,white,no,no,768,102,3.6.1,legacy,legacy,6 9 7 4 5 1,osweb,1.4.0,1,2,y,37,,0,left,up,up,space,up,left meta,left,1374,150853,86499,7987,24429,3998,1374,2,legacy,824,1536,24,864,24,0,0,1536,1632986326510,6,1024,2,48000,-16,experiment,0,even,Win32,9,977610,383024,795789,974329,84,975378,912461,84,8078,108695,979627,976394,981009,84,979627,Sternberg_updated,104,108355,113,yes,1024
92,92,959,959,black,no,experiment,Mozilla,Netscape,"5.0 (Windows NT 10.0; Win64; x64) AppleWebKit/537.36 (KHTML, like Gecko) Chrome/94.0.4606.61 Safari/537.36",legacy,legacy,legacy,0,uniform,1,1,left,113,113,113,113,0,0,0,113,113,0,0,0,113,113,113,0,0,113,113,0,30-08-21,30-08-21,09:17:17,Thu Sep 30 2021 09:17:17 GMT+0200 (Central European Summer Time),The main experiment item,yes,0,0,/Users/ethan/Documents/GitHub/OpenSesame/Sternberg/experiment_files,0,0,0,no,mono,no,18,no,white,no,no,768,102,3.6.1,legacy,legacy,5 3 8 7 2 4,osweb,1.4.0,1,0,n,37,,0,left,up,up,space,up,left meta,left,934,150853,86499,7987,24429,3998,934,2,legacy,824,1536,24,864,24,0,0,1536,1632986326510,6,1024,2,48000,-16,experiment,0,even,Win32,9,984276,383024,795789,974329,84,982058,981011,84,8078,108695,986292,983059,987241,84,986292,Sternberg_updated,105,109289,114,yes,1024
92,92,959,959,black,no,experiment,Mozilla,Netscape,"5.0 (Windows NT 10.0; Win64; x64) AppleWebKit/537.36 (KHTML, like Gecko) Chrome/94.0.4606.61 Safari/537.36",legacy,legacy,legacy,0,uniform,1,1,left,114,114,114,114,0,0,0,114,114,0,0,0,114,114,114,0,0,114,114,0,30-08-21,30-08-21,09:17:17,Thu Sep 30 2021 09:17:17 GMT+0200 (Central European Summer Time),The main experiment item,yes,0,0,/Users/ethan/Documents/GitHub/OpenSesame/Sternberg/experiment_files,0,0,0,no,mono,no,18,no,white,no,no,768,102,3.6.1,legacy,legacy,4 1,osweb,1.4.0,1,0,n,37,,0,left,up,up,space,up,left meta,left,960,150853,86499,7987,24429,3998,960,2,legacy,824,1536,24,864,24,0,0,1536,1632986326510,2,1024,2,48000,-16,experiment,0,even,Win32,6,990524,383024,795789,987243,84,988293,981011,84,8078,108695,992541,989308,993506,84,992540,Sternberg_updated,106,110249,115,yes,1024
92,92,957,957,black,no,experiment,Mozilla,Netscape,"5.0 (Windows NT 10.0; Win64; x64) AppleWebKit/537.36 (KHTML, like Gecko) Chrome/94.0.4606.61 Safari/537.36",legacy,legacy,legacy,0,uniform,1,1,right,115,115,115,115,0,0,0,115,115,0,0,0,115,115,115,0,0,115,115,0,30-08-21,30-08-21,09:17:17,Thu Sep 30 2021 09:17:17 GMT+0200 (Central European Summer Time),The main experiment item,yes,0,0,/Users/ethan/Documents/GitHub/OpenSesame/Sternberg/experiment_files,0,0,0,no,mono,no,18,no,white,no,no,768,102,3.6.1,legacy,legacy,7 8 4 6 9 5,osweb,1.4.0,1,4,y,37,,0,right,up,up,space,up,left meta,right,818,150853,86499,7987,24429,3998,818,2,legacy,824,1536,24,864,24,0,0,1536,1632986326510,6,1024,2,48000,-16,experiment,0,even,Win32,6,996773,383024,795789,993508,84,994550,981011,84,8078,108695,998789,995556,999621,84,998789,Sternberg_updated,107,111067,116,yes,1024
92,92,956,956,black,no,experiment,Mozilla,Netscape,"5.0 (Windows NT 10.0; Win64; x64) AppleWebKit/537.36 (KHTML, like Gecko) Chrome/94.0.4606.61 Safari/537.36",legacy,legacy,legacy,0,uniform,1,1,right,116,116,116,116,0,0,0,116,116,0,0,0,116,116,116,0,0,116,116,0,30-08-21,30-08-21,09:17:17,Thu Sep 30 2021 09:17:17 GMT+0200 (Central European Summer Time),The main experiment item,yes,0,0,/Users/ethan/Documents/GitHub/OpenSesame/Sternberg/experiment_files,0,0,0,no,mono,no,18,no,white,no,no,768,102,3.6.1,legacy,legacy,6 9 3 1,osweb,1.4.0,1,4,y,37,,0,right,up,up,space,up,left meta,right,827,150853,86499,7987,24429,3998,827,2,legacy,824,1536,24,864,24,0,0,1536,1632986326510,4,1024,2,48000,-16,experiment,0,even,Win32,1,1002904,383024,795789,999623,84,1000679,981011,84,8078,108695,1004933,1001688,1005770,84,1004932,Sternberg_updated,108,111894,117,yes,1024
92,92,959,959,black,no,experiment,Mozilla,Netscape,"5.0 (Windows NT 10.0; Win64; x64) AppleWebKit/537.36 (KHTML, like Gecko) Chrome/94.0.4606.61 Safari/537.36",legacy,legacy,legacy,0,uniform,1,1,right,117,117,117,117,0,0,0,117,117,0,0,0,117,117,117,0,0,117,117,0,30-08-21,30-08-21,09:17:17,Thu Sep 30 2021 09:17:17 GMT+0200 (Central European Summer Time),The main experiment item,yes,0,0,/Users/ethan/Documents/GitHub/OpenSesame/Sternberg/experiment_files,0,0,0,no,mono,no,18,no,white,no,no,768,102,3.6.1,legacy,legacy,9 5 8 1,osweb,1.4.0,1,2,y,37,,0,right,up,up,space,up,left meta,right,1249,150853,86499,7987,24429,3998,1249,2,legacy,824,1536,24,864,24,0,0,1536,1632986326510,4,1024,2,48000,-16,experiment,0,even,Win32,5,1009053,383024,795789,1005772,84,1006821,981011,84,8078,108695,1011069,1007837,1012319,84,1011069,Sternberg_updated,109,113143,118,yes,1024
92,92,957,957,black,no,experiment,Mozilla,Netscape,"5.0 (Windows NT 10.0; Win64; x64) AppleWebKit/537.36 (KHTML, like Gecko) Chrome/94.0.4606.61 Safari/537.36",legacy,legacy,legacy,0,uniform,1,1,left,118,118,118,118,0,0,0,118,118,0,0,0,118,118,118,0,0,118,118,0,30-08-21,30-08-21,09:17:17,Thu Sep 30 2021 09:17:17 GMT+0200 (Central European Summer Time),The main experiment item,yes,0,0,/Users/ethan/Documents/GitHub/OpenSesame/Sternberg/experiment_files,0,0,0,no,mono,no,18,no,white,no,no,768,102,3.6.1,legacy,legacy,8 4 3 9,osweb,1.4.0,1,0,n,37,,0,left,up,up,space,up,left meta,left,738,150853,86499,7987,24429,3998,738,2,legacy,824,1536,24,864,24,0,0,1536,1632986326510,4,1024,2,48000,-16,experiment,0,even,Win32,5,1015585,383024,795789,1012320,84,1013367,981011,84,8078,108695,1017601,1014368,1018350,84,1017601,Sternberg_updated,110,113881,119,yes,1024
