acc,accuracy,average_response_time,avg_rt,background,bidi,block,browser_codename,browser_name,browser_version,canvas_backend,clock_backend,color_backend,compensation,coordinates,correct,correct_keyboard_response,correct_response,count_ISI,count_break1,count_break_2,count_correct_feedback,count_credits,count_experiment,count_experimentLoop,count_fixation,count_incorrect_feedback,count_instructions1a,count_instructions1b,count_instructions2,count_keyboard_response,count_memory_set,count_new_logger,count_osweb,count_practiceLoop,count_practiceSequence,count_probe,count_thankYou,date_startdate,date_startdateUTC,date_starttime,datetime,description,disable_garbage_collection,experiment_debug,experiment_parameters,experiment_path,experiment_pilot,experiment_taskname,experiment_taskversion,font_bold,font_family,font_italic,font_size,font_underline,foreground,form_clicks,fullscreen,height,jatosStudyResultId,jatosVersion,keyboard_backend,mouse_backend,numberSet,opensesame_codename,opensesame_version,penwidth,posInSet,present,queryParams_batchId,queryParams_generalMultiple,repeat_cycle,response,response_break1,response_break_2,response_instructions1a,response_instructions1b,response_instructions2,response_keyboard_response,response_time,response_time_break1,response_time_break_2,response_time_instructions1a,response_time_instructions1b,response_time_instructions2,response_time_keyboard_response,round_decimals,sampler_backend,screen_availableHeight,screen_availableWidth,screen_colorDepth,screen_height,screen_pixelDepth,screen_screenX,screen_screenY,screen_width,sessionid,setSize,sound_buf_size,sound_channels,sound_freq,sound_sample_size,start,subject_nr,subject_parity,system_os,target,time_ISI,time_break1,time_break_2,time_correct_feedback,time_experimentLoop,time_fixation,time_incorrect_feedback,time_instructions1a,time_instructions1b,time_instructions2,time_keyboard_response,time_memory_set,time_new_logger,time_practiceLoop,time_probe,title,total_correct,total_response_time,total_responses,uniform_coordinates,width
0,0,2015,2015,black,no,practice,Mozilla,Netscape,"5.0 (Macintosh; Intel Mac OS X 10_14_6) AppleWebKit/605.1.15 (KHTML, like Gecko) Version/14.1.2 Safari/605.1.15",legacy,legacy,legacy,0,uniform,0,0,right,0,0,0,0,0,0,0,0,0,0,0,0,0,0,0,0,0,0,0,0,30-08-21,30-08-21,09:17:19,Thu Sep 30 2021 09:17:19 GMT+0200 (CEST),The main experiment item,yes,0,0,/Users/ethan/Documents/GitHub/OpenSesame/Sternberg/experiment_files,0,0,0,no,mono,no,18,no,white,no,no,768,103,3.6.1,legacy,legacy,4 3 1 7 9 8,osweb,1.4.0,1,1,y,37,,0,None,,,space,space,,None,2015,,,21993,16770,,2015,2,legacy,738,1280,24,800,24,0,23,1280,1632986281839,6,1024,2,48000,-16,experiment,1,odd,MacIntel,4,41146,,,,75,38917,,75,22096,,43158,39932,45173,75,43158,Sternberg_updated,0,2015,1,yes,1024
50,50,1931,1931,black,no,practice,Mozilla,Netscape,"5.0 (Macintosh; Intel Mac OS X 10_14_6) AppleWebKit/605.1.15 (KHTML, like Gecko) Version/14.1.2 Safari/605.1.15",legacy,legacy,legacy,0,uniform,1,1,right,1,1,1,1,0,0,0,1,1,0,0,0,1,1,1,0,0,1,1,0,30-08-21,30-08-21,09:17:19,Thu Sep 30 2021 09:17:19 GMT+0200 (CEST),The main experiment item,yes,0,0,/Users/ethan/Documents/GitHub/OpenSesame/Sternberg/experiment_files,0,0,0,no,mono,no,18,no,white,no,no,768,103,3.6.1,legacy,legacy,6,osweb,1.4.0,1,1,y,37,,0,right,,,space,space,,right,1846,,,21993,16770,,1846,2,legacy,738,1280,24,800,24,0,23,1280,1632986281839,1,1024,2,48000,-16,experiment,1,odd,MacIntel,6,48438,,,,75,46215,45180,75,22096,,50457,47227,52305,75,50457,Sternberg_updated,1,3861,2,yes,1024
67,67,1486,1486,black,no,practice,Mozilla,Netscape,"5.0 (Macintosh; Intel Mac OS X 10_14_6) AppleWebKit/605.1.15 (KHTML, like Gecko) Version/14.1.2 Safari/605.1.15",legacy,legacy,legacy,0,uniform,1,1,left,2,2,2,2,0,0,0,2,2,0,0,0,2,2,2,0,0,2,2,0,30-08-21,30-08-21,09:17:19,Thu Sep 30 2021 09:17:19 GMT+0200 (CEST),The main experiment item,yes,0,0,/Users/ethan/Documents/GitHub/OpenSesame/Sternberg/experiment_files,0,0,0,no,mono,no,18,no,white,no,no,768,103,3.6.1,legacy,legacy,5,osweb,1.4.0,1,0,n,37,,0,left,,,space,space,,left,596,,,21993,16770,,596,2,legacy,738,1280,24,800,24,0,23,1280,1632986281839,1,1024,2,48000,-16,experiment,1,odd,MacIntel,3,55572,,,52309,75,53342,45180,75,22096,,57587,54357,58183,75,57587,Sternberg_updated,2,4457,3,yes,1024
75,75,1353,1353,black,no,practice,Mozilla,Netscape,"5.0 (Macintosh; Intel Mac OS X 10_14_6) AppleWebKit/605.1.15 (KHTML, like Gecko) Version/14.1.2 Safari/605.1.15",legacy,legacy,legacy,0,uniform,1,1,left,3,3,3,3,0,0,0,3,3,0,0,0,3,3,3,0,0,3,3,0,30-08-21,30-08-21,09:17:19,Thu Sep 30 2021 09:17:19 GMT+0200 (CEST),The main experiment item,yes,0,0,/Users/ethan/Documents/GitHub/OpenSesame/Sternberg/experiment_files,0,0,0,no,mono,no,18,no,white,no,no,768,103,3.6.1,legacy,legacy,4 1 5,osweb,1.4.0,1,0,n,37,,0,left,,,space,space,,left,955,,,21993,16770,,955,2,legacy,738,1280,24,800,24,0,23,1280,1632986281839,3,1024,2,48000,-16,experiment,1,odd,MacIntel,2,61453,,,58188,75,59224,45180,75,22096,,63472,60238,64436,75,63472,Sternberg_updated,3,5412,4,yes,1024
80,80,1164,1164,black,no,practice,Mozilla,Netscape,"5.0 (Macintosh; Intel Mac OS X 10_14_6) AppleWebKit/605.1.15 (KHTML, like Gecko) Version/14.1.2 Safari/605.1.15",legacy,legacy,legacy,0,uniform,1,1,right,4,4,4,4,0,0,0,4,4,0,0,0,4,4,4,0,0,4,4,0,30-08-21,30-08-21,09:17:19,Thu Sep 30 2021 09:17:19 GMT+0200 (CEST),The main experiment item,yes,0,0,/Users/ethan/Documents/GitHub/OpenSesame/Sternberg/experiment_files,0,0,0,no,mono,no,18,no,white,no,no,768,103,3.6.1,legacy,legacy,4 8,osweb,1.4.0,1,1,y,37,,0,right,,,space,space,,right,410,,,21993,16770,,410,2,legacy,738,1280,24,800,24,0,23,1280,1632986281839,2,1024,2,48000,-16,experiment,1,odd,MacIntel,4,67705,,,64440,75,65475,45180,75,22096,,69725,66490,70139,75,69725,Sternberg_updated,4,5822,5,yes,1024
83,83,1065,1065,black,no,practice,Mozilla,Netscape,"5.0 (Macintosh; Intel Mac OS X 10_14_6) AppleWebKit/605.1.15 (KHTML, like Gecko) Version/14.1.2 Safari/605.1.15",legacy,legacy,legacy,0,uniform,1,1,left,5,5,5,5,0,0,0,5,5,0,0,0,5,5,5,0,0,5,5,0,30-08-21,30-08-21,09:17:19,Thu Sep 30 2021 09:17:19 GMT+0200 (CEST),The main experiment item,yes,0,0,/Users/ethan/Documents/GitHub/OpenSesame/Sternberg/experiment_files,0,0,0,no,mono,no,18,no,white,no,no,768,103,3.6.1,legacy,legacy,2 1,osweb,1.4.0,1,0,n,37,,0,left,,,space,space,,left,567,,,21993,16770,,567,2,legacy,738,1280,24,800,24,0,23,1280,1632986281839,2,1024,2,48000,-16,experiment,1,odd,MacIntel,5,73410,,,70142,75,71177,45180,75,22096,,75429,72193,76008,75,75428,Sternberg_updated,5,6389,6,yes,1024
86,86,1075,1075,black,no,practice,Mozilla,Netscape,"5.0 (Macintosh; Intel Mac OS X 10_14_6) AppleWebKit/605.1.15 (KHTML, like Gecko) Version/14.1.2 Safari/605.1.15",legacy,legacy,legacy,0,uniform,1,1,left,6,6,6,6,0,0,0,6,6,0,0,0,6,6,6,0,0,6,6,0,30-08-21,30-08-21,09:17:19,Thu Sep 30 2021 09:17:19 GMT+0200 (CEST),The main experiment item,yes,0,0,/Users/ethan/Documents/GitHub/OpenSesame/Sternberg/experiment_files,0,0,0,no,mono,no,18,no,white,no,no,768,103,3.6.1,legacy,legacy,9 6 7 4 5,osweb,1.4.0,1,0,n,37,,0,left,,,space,space,,left,1134,,,21993,16770,,1134,2,legacy,738,1280,24,800,24,0,23,1280,1632986281839,5,1024,2,48000,-16,experiment,1,odd,MacIntel,3,79277,,,76012,75,77049,45180,75,22096,,81297,78062,82445,75,81297,Sternberg_updated,6,7523,7,yes,1024
88,88,1020,1020,black,no,practice,Mozilla,Netscape,"5.0 (Macintosh; Intel Mac OS X 10_14_6) AppleWebKit/605.1.15 (KHTML, like Gecko) Version/14.1.2 Safari/605.1.15",legacy,legacy,legacy,0,uniform,1,1,left,7,7,7,7,0,0,0,7,7,0,0,0,7,7,7,0,0,7,7,0,30-08-21,30-08-21,09:17:19,Thu Sep 30 2021 09:17:19 GMT+0200 (CEST),The main experiment item,yes,0,0,/Users/ethan/Documents/GitHub/OpenSesame/Sternberg/experiment_files,0,0,0,no,mono,no,18,no,white,no,no,768,103,3.6.1,legacy,legacy,5 7 8 4 1 2,osweb,1.4.0,1,0,n,37,,0,left,,,space,space,,left,634,,,21993,16770,,634,2,legacy,738,1280,24,800,24,0,23,1280,1632986281839,6,1024,2,48000,-16,experiment,1,odd,MacIntel,6,85713,,,82448,75,83484,45180,75,22096,,87732,84498,88381,75,87732,Sternberg_updated,7,8157,8,yes,1024
78,78,989,989,black,no,practice,Mozilla,Netscape,"5.0 (Macintosh; Intel Mac OS X 10_14_6) AppleWebKit/605.1.15 (KHTML, like Gecko) Version/14.1.2 Safari/605.1.15",legacy,legacy,legacy,0,uniform,0,0,right,8,8,8,8,0,0,0,8,8,0,0,0,8,8,8,0,0,8,8,0,30-08-21,30-08-21,09:17:19,Thu Sep 30 2021 09:17:19 GMT+0200 (CEST),The main experiment item,yes,0,0,/Users/ethan/Documents/GitHub/OpenSesame/Sternberg/experiment_files,0,0,0,no,mono,no,18,no,white,no,no,768,103,3.6.1,legacy,legacy,1 7 9 8 5,osweb,1.4.0,1,4,y,37,,0,left,,,space,space,,left,741,,,21993,16770,,741,2,legacy,738,1280,24,800,24,0,23,1280,1632986281839,5,1024,2,48000,-16,experiment,1,odd,MacIntel,8,91649,,,88385,75,89417,45180,75,22096,,93653,90435,94400,75,93653,Sternberg_updated,7,8898,9,yes,1024
80,80,948,948,black,no,practice,Mozilla,Netscape,"5.0 (Macintosh; Intel Mac OS X 10_14_6) AppleWebKit/605.1.15 (KHTML, like Gecko) Version/14.1.2 Safari/605.1.15",legacy,legacy,legacy,0,uniform,1,1,right,9,9,9,9,0,0,0,9,9,0,0,0,9,9,9,0,0,9,9,0,30-08-21,30-08-21,09:17:19,Thu Sep 30 2021 09:17:19 GMT+0200 (CEST),The main experiment item,yes,0,0,/Users/ethan/Documents/GitHub/OpenSesame/Sternberg/experiment_files,0,0,0,no,mono,no,18,no,white,no,no,768,103,3.6.1,legacy,legacy,1 5 2 9,osweb,1.4.0,1,2,y,37,,0,right,,,space,space,,right,579,,,21993,16770,,579,2,legacy,738,1280,24,800,24,0,23,1280,1632986281839,4,1024,2,48000,-16,experiment,1,odd,MacIntel,5,97669,,,88385,75,95437,94404,75,22096,,99689,96454,100269,75,99689,Sternberg_updated,8,9477,10,yes,1024
82,82,933,933,black,no,practice,Mozilla,Netscape,"5.0 (Macintosh; Intel Mac OS X 10_14_6) AppleWebKit/605.1.15 (KHTML, like Gecko) Version/14.1.2 Safari/605.1.15",legacy,legacy,legacy,0,uniform,1,1,left,10,10,10,10,0,0,0,10,10,0,0,0,10,10,10,0,0,10,10,0,30-08-21,30-08-21,09:17:19,Thu Sep 30 2021 09:17:19 GMT+0200 (CEST),The main experiment item,yes,0,0,/Users/ethan/Documents/GitHub/OpenSesame/Sternberg/experiment_files,0,0,0,no,mono,no,18,no,white,no,no,768,103,3.6.1,legacy,legacy,3 1 9 4,osweb,1.4.0,1,0,n,37,,0,left,,,space,space,,left,791,,,21993,16770,,791,2,legacy,738,1280,24,800,24,0,23,1280,1632986281839,4,1024,2,48000,-16,experiment,1,odd,MacIntel,6,103538,,,100272,75,101307,94404,75,22096,,105542,102323,106339,75,105542,Sternberg_updated,9,10268,11,yes,1024
83,83,941,941,black,no,practice,Mozilla,Netscape,"5.0 (Macintosh; Intel Mac OS X 10_14_6) AppleWebKit/605.1.15 (KHTML, like Gecko) Version/14.1.2 Safari/605.1.15",legacy,legacy,legacy,0,uniform,1,1,right,11,11,11,11,0,0,0,11,11,0,0,0,11,11,11,0,0,11,11,0,30-08-21,30-08-21,09:17:19,Thu Sep 30 2021 09:17:19 GMT+0200 (CEST),The main experiment item,yes,0,0,/Users/ethan/Documents/GitHub/OpenSesame/Sternberg/experiment_files,0,0,0,no,mono,no,18,no,white,no,no,768,103,3.6.1,legacy,legacy,2 9 4,osweb,1.4.0,1,3,y,37,,0,right,,,space,space,,right,1024,,,21993,16770,,1024,2,legacy,738,1280,24,800,24,0,23,1280,1632986281839,3,1024,2,48000,-16,experiment,1,odd,MacIntel,4,109608,,,106343,75,107377,94404,75,22096,,111628,108393,112659,75,111628,Sternberg_updated,10,11292,12,yes,1024
85,85,921,921,black,no,experiment,Mozilla,Netscape,"5.0 (Macintosh; Intel Mac OS X 10_14_6) AppleWebKit/605.1.15 (KHTML, like Gecko) Version/14.1.2 Safari/605.1.15",legacy,legacy,legacy,0,uniform,1,1,left,12,12,12,12,0,0,0,12,12,0,0,0,12,12,12,0,0,12,12,0,30-08-21,30-08-21,09:17:19,Thu Sep 30 2021 09:17:19 GMT+0200 (CEST),The main experiment item,yes,0,0,/Users/ethan/Documents/GitHub/OpenSesame/Sternberg/experiment_files,0,0,0,no,mono,no,18,no,white,no,no,768,103,3.6.1,legacy,legacy,9 7 4 5 8,osweb,1.4.0,1,0,n,37,,0,left,,,space,space,space,left,678,,,21993,16770,15957,678,2,legacy,738,1280,24,800,24,0,23,1280,1632986281839,5,1024,2,48000,-16,experiment,1,odd,MacIntel,6,131910,,,112663,75,129681,94404,75,22096,113689,133924,130695,134604,75,133924,Sternberg_updated,11,11970,13,yes,1024
86,86,900,900,black,no,experiment,Mozilla,Netscape,"5.0 (Macintosh; Intel Mac OS X 10_14_6) AppleWebKit/605.1.15 (KHTML, like Gecko) Version/14.1.2 Safari/605.1.15",legacy,legacy,legacy,0,uniform,1,1,right,13,13,13,13,0,0,0,13,13,0,0,0,13,13,13,0,0,13,13,0,30-08-21,30-08-21,09:17:19,Thu Sep 30 2021 09:17:19 GMT+0200 (CEST),The main experiment item,yes,0,0,/Users/ethan/Documents/GitHub/OpenSesame/Sternberg/experiment_files,0,0,0,no,mono,no,18,no,white,no,no,768,103,3.6.1,legacy,legacy,9 8 4,osweb,1.4.0,1,1,y,37,,0,right,,,space,space,space,right,625,,,21993,16770,15957,625,2,legacy,738,1280,24,800,24,0,23,1280,1632986281839,3,1024,2,48000,-16,experiment,1,odd,MacIntel,9,137871,,,134607,75,135643,94404,75,22096,113689,139875,136659,140505,75,139875,Sternberg_updated,12,12595,14,yes,1024
87,87,876,876,black,no,experiment,Mozilla,Netscape,"5.0 (Macintosh; Intel Mac OS X 10_14_6) AppleWebKit/605.1.15 (KHTML, like Gecko) Version/14.1.2 Safari/605.1.15",legacy,legacy,legacy,0,uniform,1,1,left,14,14,14,14,0,0,0,14,14,0,0,0,14,14,14,0,0,14,14,0,30-08-21,30-08-21,09:17:19,Thu Sep 30 2021 09:17:19 GMT+0200 (CEST),The main experiment item,yes,0,0,/Users/ethan/Documents/GitHub/OpenSesame/Sternberg/experiment_files,0,0,0,no,mono,no,18,no,white,no,no,768,103,3.6.1,legacy,legacy,4 2 6 9,osweb,1.4.0,1,0,n,37,,0,left,,,space,space,space,left,546,,,21993,16770,15957,546,2,legacy,738,1280,24,800,24,0,23,1280,1632986281839,4,1024,2,48000,-16,experiment,1,odd,MacIntel,7,143773,,,140508,75,141543,94404,75,22096,113689,145777,142559,146324,75,145777,Sternberg_updated,13,13141,15,yes,1024
88,88,860,860,black,no,experiment,Mozilla,Netscape,"5.0 (Macintosh; Intel Mac OS X 10_14_6) AppleWebKit/605.1.15 (KHTML, like Gecko) Version/14.1.2 Safari/605.1.15",legacy,legacy,legacy,0,uniform,1,1,right,15,15,15,15,0,0,0,15,15,0,0,0,15,15,15,0,0,15,15,0,30-08-21,30-08-21,09:17:19,Thu Sep 30 2021 09:17:19 GMT+0200 (CEST),The main experiment item,yes,0,0,/Users/ethan/Documents/GitHub/OpenSesame/Sternberg/experiment_files,0,0,0,no,mono,no,18,no,white,no,no,768,103,3.6.1,legacy,legacy,6 7 8 5,osweb,1.4.0,1,3,y,37,,0,right,,,space,space,space,right,613,,,21993,16770,15957,613,2,legacy,738,1280,24,800,24,0,23,1280,1632986281839,4,1024,2,48000,-16,experiment,1,odd,MacIntel,8,149592,,,146327,75,147362,94404,75,22096,113689,151596,148378,152210,75,151596,Sternberg_updated,14,13754,16,yes,1024
88,88,845,845,black,no,experiment,Mozilla,Netscape,"5.0 (Macintosh; Intel Mac OS X 10_14_6) AppleWebKit/605.1.15 (KHTML, like Gecko) Version/14.1.2 Safari/605.1.15",legacy,legacy,legacy,0,uniform,1,1,right,16,16,16,16,0,0,0,16,16,0,0,0,16,16,16,0,0,16,16,0,30-08-21,30-08-21,09:17:19,Thu Sep 30 2021 09:17:19 GMT+0200 (CEST),The main experiment item,yes,0,0,/Users/ethan/Documents/GitHub/OpenSesame/Sternberg/experiment_files,0,0,0,no,mono,no,18,no,white,no,no,768,103,3.6.1,legacy,legacy,7 2 3,osweb,1.4.0,1,3,y,37,,0,right,,,space,space,space,right,610,,,21993,16770,15957,610,2,legacy,738,1280,24,800,24,0,23,1280,1632986281839,3,1024,2,48000,-16,experiment,1,odd,MacIntel,3,155479,,,152213,75,153247,94404,75,22096,113689,157499,154264,158113,75,157499,Sternberg_updated,15,14364,17,yes,1024
83,83,832,832,black,no,experiment,Mozilla,Netscape,"5.0 (Macintosh; Intel Mac OS X 10_14_6) AppleWebKit/605.1.15 (KHTML, like Gecko) Version/14.1.2 Safari/605.1.15",legacy,legacy,legacy,0,uniform,0,0,right,17,17,17,17,0,0,0,17,17,0,0,0,17,17,17,0,0,17,17,0,30-08-21,30-08-21,09:17:19,Thu Sep 30 2021 09:17:19 GMT+0200 (CEST),The main experiment item,yes,0,0,/Users/ethan/Documents/GitHub/OpenSesame/Sternberg/experiment_files,0,0,0,no,mono,no,18,no,white,no,no,768,103,3.6.1,legacy,legacy,4 6 5 8,osweb,1.4.0,1,1,y,37,,0,left,,,space,space,space,left,617,,,21993,16770,15957,617,2,legacy,738,1280,24,800,24,0,23,1280,1632986281839,4,1024,2,48000,-16,experiment,1,odd,MacIntel,4,161382,,,158116,75,159151,94404,75,22096,113689,163402,160167,164032,75,163402,Sternberg_updated,15,14981,18,yes,1024
84,84,835,835,black,no,experiment,Mozilla,Netscape,"5.0 (Macintosh; Intel Mac OS X 10_14_6) AppleWebKit/605.1.15 (KHTML, like Gecko) Version/14.1.2 Safari/605.1.15",legacy,legacy,legacy,0,uniform,1,1,right,18,18,18,18,0,0,0,18,18,0,0,0,18,18,18,0,0,18,18,0,30-08-21,30-08-21,09:17:19,Thu Sep 30 2021 09:17:19 GMT+0200 (CEST),The main experiment item,yes,0,0,/Users/ethan/Documents/GitHub/OpenSesame/Sternberg/experiment_files,0,0,0,no,mono,no,18,no,white,no,no,768,103,3.6.1,legacy,legacy,3 5 4 7,osweb,1.4.0,1,1,y,37,,0,right,,,space,space,space,right,884,,,21993,16770,15957,884,2,legacy,738,1280,24,800,24,0,23,1280,1632986281839,4,1024,2,48000,-16,experiment,1,odd,MacIntel,3,167301,,,158116,75,165073,164035,75,22096,113689,169305,166086,170202,75,169305,Sternberg_updated,16,15865,19,yes,1024
85,85,824,824,black,no,experiment,Mozilla,Netscape,"5.0 (Macintosh; Intel Mac OS X 10_14_6) AppleWebKit/605.1.15 (KHTML, like Gecko) Version/14.1.2 Safari/605.1.15",legacy,legacy,legacy,0,uniform,1,1,left,19,19,19,19,0,0,0,19,19,0,0,0,19,19,19,0,0,19,19,0,30-08-21,30-08-21,09:17:19,Thu Sep 30 2021 09:17:19 GMT+0200 (CEST),The main experiment item,yes,0,0,/Users/ethan/Documents/GitHub/OpenSesame/Sternberg/experiment_files,0,0,0,no,mono,no,18,no,white,no,no,768,103,3.6.1,legacy,legacy,1 4 9 2 5,osweb,1.4.0,1,0,n,37,,0,left,,,space,space,space,left,613,,,21993,16770,15957,613,2,legacy,738,1280,24,800,24,0,23,1280,1632986281839,5,1024,2,48000,-16,experiment,1,odd,MacIntel,7,173471,,,170206,75,171241,164035,75,22096,113689,175491,172256,176105,75,175491,Sternberg_updated,17,16478,20,yes,1024
81,81,817,817,black,no,experiment,Mozilla,Netscape,"5.0 (Macintosh; Intel Mac OS X 10_14_6) AppleWebKit/605.1.15 (KHTML, like Gecko) Version/14.1.2 Safari/605.1.15",legacy,legacy,legacy,0,uniform,0,0,right,20,20,20,20,0,0,0,20,20,0,0,0,20,20,20,0,0,20,20,0,30-08-21,30-08-21,09:17:19,Thu Sep 30 2021 09:17:19 GMT+0200 (CEST),The main experiment item,yes,0,0,/Users/ethan/Documents/GitHub/OpenSesame/Sternberg/experiment_files,0,0,0,no,mono,no,18,no,white,no,no,768,103,3.6.1,legacy,legacy,4 9 7 8 5 3,osweb,1.4.0,1,4,y,37,,0,left,,,space,space,space,left,670,,,21993,16770,15957,670,2,legacy,738,1280,24,800,24,0,23,1280,1632986281839,6,1024,2,48000,-16,experiment,1,odd,MacIntel,8,179373,,,176108,75,177142,164035,75,22096,113689,181377,178159,182058,75,181377,Sternberg_updated,17,17148,21,yes,1024
82,82,818,818,black,no,experiment,Mozilla,Netscape,"5.0 (Macintosh; Intel Mac OS X 10_14_6) AppleWebKit/605.1.15 (KHTML, like Gecko) Version/14.1.2 Safari/605.1.15",legacy,legacy,legacy,0,uniform,1,1,right,21,21,21,21,0,0,0,21,21,0,0,0,21,21,21,0,0,21,21,0,30-08-21,30-08-21,09:17:19,Thu Sep 30 2021 09:17:19 GMT+0200 (CEST),The main experiment item,yes,0,0,/Users/ethan/Documents/GitHub/OpenSesame/Sternberg/experiment_files,0,0,0,no,mono,no,18,no,white,no,no,768,103,3.6.1,legacy,legacy,5 7 3 6 2,osweb,1.4.0,1,5,y,37,,0,right,,,space,space,space,right,844,,,21993,16770,15957,844,2,legacy,738,1280,24,800,24,0,23,1280,1632986281839,5,1024,2,48000,-16,experiment,1,odd,MacIntel,2,185326,,,176108,75,183094,182061,75,22096,113689,187330,184112,188176,75,187330,Sternberg_updated,18,17992,22,yes,1024
78,78,811,811,black,no,experiment,Mozilla,Netscape,"5.0 (Macintosh; Intel Mac OS X 10_14_6) AppleWebKit/605.1.15 (KHTML, like Gecko) Version/14.1.2 Safari/605.1.15",legacy,legacy,legacy,0,uniform,0,0,right,22,22,22,22,0,0,0,22,22,0,0,0,22,22,22,0,0,22,22,0,30-08-21,30-08-21,09:17:19,Thu Sep 30 2021 09:17:19 GMT+0200 (CEST),The main experiment item,yes,0,0,/Users/ethan/Documents/GitHub/OpenSesame/Sternberg/experiment_files,0,0,0,no,mono,no,18,no,white,no,no,768,103,3.6.1,legacy,legacy,5 2 9 6 1 7,osweb,1.4.0,1,3,y,37,,0,left,,,space,space,space,left,665,,,21993,16770,15957,665,2,legacy,738,1280,24,800,24,0,23,1280,1632986281839,6,1024,2,48000,-16,experiment,1,odd,MacIntel,9,191446,,,188181,75,189214,182061,75,22096,113689,193466,190231,194147,75,193466,Sternberg_updated,18,18657,23,yes,1024
79,79,799,799,black,no,experiment,Mozilla,Netscape,"5.0 (Macintosh; Intel Mac OS X 10_14_6) AppleWebKit/605.1.15 (KHTML, like Gecko) Version/14.1.2 Safari/605.1.15",legacy,legacy,legacy,0,uniform,1,1,left,23,23,23,23,0,0,0,23,23,0,0,0,23,23,23,0,0,23,23,0,30-08-21,30-08-21,09:17:19,Thu Sep 30 2021 09:17:19 GMT+0200 (CEST),The main experiment item,yes,0,0,/Users/ethan/Documents/GitHub/OpenSesame/Sternberg/experiment_files,0,0,0,no,mono,no,18,no,white,no,no,768,103,3.6.1,legacy,legacy,8 9,osweb,1.4.0,1,0,n,37,,0,left,,,space,space,space,left,509,,,21993,16770,15957,509,2,legacy,738,1280,24,800,24,0,23,1280,1632986281839,2,1024,2,48000,-16,experiment,1,odd,MacIntel,5,197415,,,188181,75,195182,194151,75,22096,113689,199419,196200,199933,75,199419,Sternberg_updated,19,19166,24,yes,1024
80,80,795,795,black,no,experiment,Mozilla,Netscape,"5.0 (Macintosh; Intel Mac OS X 10_14_6) AppleWebKit/605.1.15 (KHTML, like Gecko) Version/14.1.2 Safari/605.1.15",legacy,legacy,legacy,0,uniform,1,1,left,24,24,24,24,0,0,0,24,24,0,0,0,24,24,24,0,0,24,24,0,30-08-21,30-08-21,09:17:19,Thu Sep 30 2021 09:17:19 GMT+0200 (CEST),The main experiment item,yes,0,0,/Users/ethan/Documents/GitHub/OpenSesame/Sternberg/experiment_files,0,0,0,no,mono,no,18,no,white,no,no,768,103,3.6.1,legacy,legacy,5 9 2 3,osweb,1.4.0,1,0,n,37,,0,left,,,space,space,space,left,714,,,21993,16770,15957,714,2,legacy,738,1280,24,800,24,0,23,1280,1632986281839,4,1024,2,48000,-16,experiment,1,odd,MacIntel,8,203201,,,199937,75,200971,194151,75,22096,113689,205204,201987,205919,75,205204,Sternberg_updated,20,19880,25,yes,1024
81,81,787,787,black,no,experiment,Mozilla,Netscape,"5.0 (Macintosh; Intel Mac OS X 10_14_6) AppleWebKit/605.1.15 (KHTML, like Gecko) Version/14.1.2 Safari/605.1.15",legacy,legacy,legacy,0,uniform,1,1,right,25,25,25,25,0,0,0,25,25,0,0,0,25,25,25,0,0,25,25,0,30-08-21,30-08-21,09:17:19,Thu Sep 30 2021 09:17:19 GMT+0200 (CEST),The main experiment item,yes,0,0,/Users/ethan/Documents/GitHub/OpenSesame/Sternberg/experiment_files,0,0,0,no,mono,no,18,no,white,no,no,768,103,3.6.1,legacy,legacy,7 6,osweb,1.4.0,1,2,y,37,,0,right,,,space,space,space,right,580,,,21993,16770,15957,580,2,legacy,738,1280,24,800,24,0,23,1280,1632986281839,2,1024,2,48000,-16,experiment,1,odd,MacIntel,6,209188,,,205922,75,206956,194151,75,22096,113689,211207,207973,211805,75,211207,Sternberg_updated,21,20460,26,yes,1024
81,81,781,781,black,no,experiment,Mozilla,Netscape,"5.0 (Macintosh; Intel Mac OS X 10_14_6) AppleWebKit/605.1.15 (KHTML, like Gecko) Version/14.1.2 Safari/605.1.15",legacy,legacy,legacy,0,uniform,1,1,right,26,26,26,26,0,0,0,26,26,0,0,0,26,26,26,0,0,26,26,0,30-08-21,30-08-21,09:17:19,Thu Sep 30 2021 09:17:19 GMT+0200 (CEST),The main experiment item,yes,0,0,/Users/ethan/Documents/GitHub/OpenSesame/Sternberg/experiment_files,0,0,0,no,mono,no,18,no,white,no,no,768,103,3.6.1,legacy,legacy,2 4 6 9,osweb,1.4.0,1,3,y,37,,0,right,,,space,space,space,right,620,,,21993,16770,15957,620,2,legacy,738,1280,24,800,24,0,23,1280,1632986281839,4,1024,2,48000,-16,experiment,1,odd,MacIntel,6,215071,,,211808,75,212838,194151,75,22096,113689,217090,213856,217722,75,217090,Sternberg_updated,22,21080,27,yes,1024
82,82,773,773,black,no,experiment,Mozilla,Netscape,"5.0 (Macintosh; Intel Mac OS X 10_14_6) AppleWebKit/605.1.15 (KHTML, like Gecko) Version/14.1.2 Safari/605.1.15",legacy,legacy,legacy,0,uniform,1,1,left,27,27,27,27,0,0,0,27,27,0,0,0,27,27,27,0,0,27,27,0,30-08-21,30-08-21,09:17:19,Thu Sep 30 2021 09:17:19 GMT+0200 (CEST),The main experiment item,yes,0,0,/Users/ethan/Documents/GitHub/OpenSesame/Sternberg/experiment_files,0,0,0,no,mono,no,18,no,white,no,no,768,103,3.6.1,legacy,legacy,8 6 3 4 7,osweb,1.4.0,1,0,n,37,,0,left,,,space,space,space,left,574,,,21993,16770,15957,574,2,legacy,738,1280,24,800,24,0,23,1280,1632986281839,5,1024,2,48000,-16,experiment,1,odd,MacIntel,1,220987,,,217725,75,218755,194151,75,22096,113689,222995,219772,223576,75,222995,Sternberg_updated,23,21654,28,yes,1024
83,83,765,765,black,no,experiment,Mozilla,Netscape,"5.0 (Macintosh; Intel Mac OS X 10_14_6) AppleWebKit/605.1.15 (KHTML, like Gecko) Version/14.1.2 Safari/605.1.15",legacy,legacy,legacy,0,uniform,1,1,left,28,28,28,28,0,0,0,28,28,0,0,0,28,28,28,0,0,28,28,0,30-08-21,30-08-21,09:17:19,Thu Sep 30 2021 09:17:19 GMT+0200 (CEST),The main experiment item,yes,0,0,/Users/ethan/Documents/GitHub/OpenSesame/Sternberg/experiment_files,0,0,0,no,mono,no,18,no,white,no,no,768,103,3.6.1,legacy,legacy,5 2,osweb,1.4.0,1,0,n,37,,0,left,,,space,space,space,left,544,,,21993,16770,15957,544,2,legacy,738,1280,24,800,24,0,23,1280,1632986281839,2,1024,2,48000,-16,experiment,1,odd,MacIntel,7,226844,,,223579,75,224612,194151,75,22096,113689,228848,225629,229394,75,228848,Sternberg_updated,24,22198,29,yes,1024
83,83,759,759,black,no,experiment,Mozilla,Netscape,"5.0 (Macintosh; Intel Mac OS X 10_14_6) AppleWebKit/605.1.15 (KHTML, like Gecko) Version/14.1.2 Safari/605.1.15",legacy,legacy,legacy,0,uniform,1,1,left,29,29,29,29,0,0,0,29,29,0,0,0,29,29,29,0,0,29,29,0,30-08-21,30-08-21,09:17:19,Thu Sep 30 2021 09:17:19 GMT+0200 (CEST),The main experiment item,yes,0,0,/Users/ethan/Documents/GitHub/OpenSesame/Sternberg/experiment_files,0,0,0,no,mono,no,18,no,white,no,no,768,103,3.6.1,legacy,legacy,6 9 4 5 2,osweb,1.4.0,1,0,n,37,,0,left,,,space,space,space,left,573,,,21993,16770,15957,573,2,legacy,738,1280,24,800,24,0,23,1280,1632986281839,5,1024,2,48000,-16,experiment,1,odd,MacIntel,1,232664,,,229397,75,230432,194151,75,22096,113689,234684,231449,235264,75,234684,Sternberg_updated,25,22771,30,yes,1024
84,84,756,756,black,no,experiment,Mozilla,Netscape,"5.0 (Macintosh; Intel Mac OS X 10_14_6) AppleWebKit/605.1.15 (KHTML, like Gecko) Version/14.1.2 Safari/605.1.15",legacy,legacy,legacy,0,uniform,1,1,left,30,30,30,30,0,0,0,30,30,0,0,0,30,30,30,0,0,30,30,0,30-08-21,30-08-21,09:17:19,Thu Sep 30 2021 09:17:19 GMT+0200 (CEST),The main experiment item,yes,0,0,/Users/ethan/Documents/GitHub/OpenSesame/Sternberg/experiment_files,0,0,0,no,mono,no,18,no,white,no,no,768,103,3.6.1,legacy,legacy,2 8 9,osweb,1.4.0,1,0,n,37,,0,left,,,space,space,space,left,677,,,21993,16770,15957,677,2,legacy,738,1280,24,800,24,0,23,1280,1632986281839,3,1024,2,48000,-16,experiment,1,odd,MacIntel,6,238533,,,235268,75,236302,194151,75,22096,113689,240537,237318,241216,75,240537,Sternberg_updated,26,23448,31,yes,1024
84,84,751,751,black,no,experiment,Mozilla,Netscape,"5.0 (Macintosh; Intel Mac OS X 10_14_6) AppleWebKit/605.1.15 (KHTML, like Gecko) Version/14.1.2 Safari/605.1.15",legacy,legacy,legacy,0,uniform,1,1,right,31,31,31,31,0,0,0,31,31,0,0,0,31,31,31,0,0,31,31,0,30-08-21,30-08-21,09:17:19,Thu Sep 30 2021 09:17:19 GMT+0200 (CEST),The main experiment item,yes,0,0,/Users/ethan/Documents/GitHub/OpenSesame/Sternberg/experiment_files,0,0,0,no,mono,no,18,no,white,no,no,768,103,3.6.1,legacy,legacy,8 9 5 7 1 6,osweb,1.4.0,1,4,y,37,,0,right,,,space,space,space,right,596,,,21993,16770,15957,596,2,legacy,738,1280,24,800,24,0,23,1280,1632986281839,6,1024,2,48000,-16,experiment,1,odd,MacIntel,7,244486,,,241221,75,242254,194151,75,22096,113689,246490,243271,247087,75,246490,Sternberg_updated,27,24044,32,yes,1024
85,85,747,747,black,no,experiment,Mozilla,Netscape,"5.0 (Macintosh; Intel Mac OS X 10_14_6) AppleWebKit/605.1.15 (KHTML, like Gecko) Version/14.1.2 Safari/605.1.15",legacy,legacy,legacy,0,uniform,1,1,left,32,32,32,32,0,0,0,32,32,0,0,0,32,32,32,0,0,32,32,0,30-08-21,30-08-21,09:17:19,Thu Sep 30 2021 09:17:19 GMT+0200 (CEST),The main experiment item,yes,0,0,/Users/ethan/Documents/GitHub/OpenSesame/Sternberg/experiment_files,0,0,0,no,mono,no,18,no,white,no,no,768,103,3.6.1,legacy,legacy,7 4 2 8 1 9,osweb,1.4.0,1,0,n,37,,0,left,,,space,space,space,left,623,,,21993,16770,15957,623,2,legacy,738,1280,24,800,24,0,23,1280,1632986281839,6,1024,2,48000,-16,experiment,1,odd,MacIntel,5,250356,,,247099,75,248125,194151,75,22096,113689,252376,249141,253007,75,252376,Sternberg_updated,28,24667,33,yes,1024
85,85,745,745,black,no,experiment,Mozilla,Netscape,"5.0 (Macintosh; Intel Mac OS X 10_14_6) AppleWebKit/605.1.15 (KHTML, like Gecko) Version/14.1.2 Safari/605.1.15",legacy,legacy,legacy,0,uniform,1,1,right,33,33,33,33,0,0,0,33,33,0,0,0,33,33,33,0,0,33,33,0,30-08-21,30-08-21,09:17:19,Thu Sep 30 2021 09:17:19 GMT+0200 (CEST),The main experiment item,yes,0,0,/Users/ethan/Documents/GitHub/OpenSesame/Sternberg/experiment_files,0,0,0,no,mono,no,18,no,white,no,no,768,103,3.6.1,legacy,legacy,5 7 8 2 3 8,osweb,1.4.0,1,5,y,37,,0,right,,,space,space,space,right,678,,,21993,16770,15957,678,2,legacy,738,1280,24,800,24,0,23,1280,1632986281839,6,1024,2,48000,-16,experiment,1,odd,MacIntel,3,256275,,,253012,75,254043,194151,75,22096,113689,258279,255060,258958,75,258279,Sternberg_updated,29,25345,34,yes,1024
86,86,742,742,black,no,experiment,Mozilla,Netscape,"5.0 (Macintosh; Intel Mac OS X 10_14_6) AppleWebKit/605.1.15 (KHTML, like Gecko) Version/14.1.2 Safari/605.1.15",legacy,legacy,legacy,0,uniform,1,1,right,34,34,34,34,0,0,0,34,34,0,0,0,34,34,34,0,0,34,34,0,30-08-21,30-08-21,09:17:19,Thu Sep 30 2021 09:17:19 GMT+0200 (CEST),The main experiment item,yes,0,0,/Users/ethan/Documents/GitHub/OpenSesame/Sternberg/experiment_files,0,0,0,no,mono,no,18,no,white,no,no,768,103,3.6.1,legacy,legacy,9 6 2 4 1,osweb,1.4.0,1,4,y,37,,0,right,,,space,space,space,right,627,,,21993,16770,15957,627,2,legacy,738,1280,24,800,24,0,23,1280,1632986281839,5,1024,2,48000,-16,experiment,1,odd,MacIntel,4,262228,,,258968,75,259996,194151,75,22096,113689,264248,261013,264878,75,264248,Sternberg_updated,30,25972,35,yes,1024
86,86,735,735,black,no,experiment,Mozilla,Netscape,"5.0 (Macintosh; Intel Mac OS X 10_14_6) AppleWebKit/605.1.15 (KHTML, like Gecko) Version/14.1.2 Safari/605.1.15",legacy,legacy,legacy,0,uniform,1,1,right,35,35,35,35,0,0,0,35,35,0,0,0,35,35,35,0,0,35,35,0,30-08-21,30-08-21,09:17:19,Thu Sep 30 2021 09:17:19 GMT+0200 (CEST),The main experiment item,yes,0,0,/Users/ethan/Documents/GitHub/OpenSesame/Sternberg/experiment_files,0,0,0,no,mono,no,18,no,white,no,no,768,103,3.6.1,legacy,legacy,7 8 4 6 9 5,osweb,1.4.0,1,4,y,37,,0,right,,,space,space,space,right,480,,,21993,16770,15957,480,2,legacy,738,1280,24,800,24,0,23,1280,1632986281839,6,1024,2,48000,-16,experiment,1,odd,MacIntel,6,268147,,,264881,75,265915,194151,75,22096,113689,270151,266932,270648,75,270151,Sternberg_updated,31,26452,36,yes,1024
86,86,730,730,black,no,experiment,Mozilla,Netscape,"5.0 (Macintosh; Intel Mac OS X 10_14_6) AppleWebKit/605.1.15 (KHTML, like Gecko) Version/14.1.2 Safari/605.1.15",legacy,legacy,legacy,0,uniform,1,1,left,36,36,36,36,0,0,0,36,36,0,0,0,36,36,36,0,0,36,36,0,30-08-21,30-08-21,09:17:19,Thu Sep 30 2021 09:17:19 GMT+0200 (CEST),The main experiment item,yes,0,0,/Users/ethan/Documents/GitHub/OpenSesame/Sternberg/experiment_files,0,0,0,no,mono,no,18,no,white,no,no,768,103,3.6.1,legacy,legacy,2 7 5,osweb,1.4.0,1,0,n,37,,0,left,,,space,space,space,left,555,,,21993,16770,15957,555,2,legacy,738,1280,24,800,24,0,23,1280,1632986281839,3,1024,2,48000,-16,experiment,1,odd,MacIntel,8,273917,,,270652,75,271683,194151,75,22096,113689,275937,272702,276501,75,275937,Sternberg_updated,32,27007,37,yes,1024
87,87,727,727,black,no,experiment,Mozilla,Netscape,"5.0 (Macintosh; Intel Mac OS X 10_14_6) AppleWebKit/605.1.15 (KHTML, like Gecko) Version/14.1.2 Safari/605.1.15",legacy,legacy,legacy,0,uniform,1,1,right,37,37,37,37,0,0,0,37,37,0,0,0,37,37,37,0,0,37,37,0,30-08-21,30-08-21,09:17:19,Thu Sep 30 2021 09:17:19 GMT+0200 (CEST),The main experiment item,yes,0,0,/Users/ethan/Documents/GitHub/OpenSesame/Sternberg/experiment_files,0,0,0,no,mono,no,18,no,white,no,no,768,103,3.6.1,legacy,legacy,6 5,osweb,1.4.0,1,2,y,37,,0,right,,,space,space,space,right,606,,,21993,16770,15957,606,2,legacy,738,1280,24,800,24,0,23,1280,1632986281839,2,1024,2,48000,-16,experiment,1,odd,MacIntel,5,279769,,,276504,75,277536,194151,75,22096,113689,281773,278555,282387,75,281773,Sternberg_updated,33,27613,38,yes,1024
87,87,731,731,black,no,experiment,Mozilla,Netscape,"5.0 (Macintosh; Intel Mac OS X 10_14_6) AppleWebKit/605.1.15 (KHTML, like Gecko) Version/14.1.2 Safari/605.1.15",legacy,legacy,legacy,0,uniform,1,1,right,38,38,38,38,0,0,0,38,38,0,0,0,38,38,38,0,0,38,38,0,30-08-21,30-08-21,09:17:19,Thu Sep 30 2021 09:17:19 GMT+0200 (CEST),The main experiment item,yes,0,0,/Users/ethan/Documents/GitHub/OpenSesame/Sternberg/experiment_files,0,0,0,no,mono,no,18,no,white,no,no,768,103,3.6.1,legacy,legacy,3 9 6 2,osweb,1.4.0,1,4,y,37,,0,right,,,space,space,space,right,902,,,21993,16770,15957,902,2,legacy,738,1280,24,800,24,0,23,1280,1632986281839,4,1024,2,48000,-16,experiment,1,odd,MacIntel,2,285656,,,282391,75,283422,194151,75,22096,113689,287676,284441,288592,75,287676,Sternberg_updated,34,28515,39,yes,1024
88,88,731,731,black,no,experiment,Mozilla,Netscape,"5.0 (Macintosh; Intel Mac OS X 10_14_6) AppleWebKit/605.1.15 (KHTML, like Gecko) Version/14.1.2 Safari/605.1.15",legacy,legacy,legacy,0,uniform,1,1,left,39,39,39,39,0,0,0,39,39,0,0,0,39,39,39,0,0,39,39,0,30-08-21,30-08-21,09:17:19,Thu Sep 30 2021 09:17:19 GMT+0200 (CEST),The main experiment item,yes,0,0,/Users/ethan/Documents/GitHub/OpenSesame/Sternberg/experiment_files,0,0,0,no,mono,no,18,no,white,no,no,768,103,3.6.1,legacy,legacy,4 2 7 6 1 3,osweb,1.4.0,1,0,n,37,,0,left,,,space,space,space,left,728,,,21993,16770,15957,728,2,legacy,738,1280,24,800,24,0,23,1280,1632986281839,6,1024,2,48000,-16,experiment,1,odd,MacIntel,8,291861,,,288596,75,289626,194151,75,22096,113689,293878,290646,294608,75,293878,Sternberg_updated,35,29243,40,yes,1024
85,85,729,729,black,no,experiment,Mozilla,Netscape,"5.0 (Macintosh; Intel Mac OS X 10_14_6) AppleWebKit/605.1.15 (KHTML, like Gecko) Version/14.1.2 Safari/605.1.15",legacy,legacy,legacy,0,uniform,0,0,left,40,40,40,40,0,0,0,40,40,0,0,0,40,40,40,0,0,40,40,0,30-08-21,30-08-21,09:17:19,Thu Sep 30 2021 09:17:19 GMT+0200 (CEST),The main experiment item,yes,0,0,/Users/ethan/Documents/GitHub/OpenSesame/Sternberg/experiment_files,0,0,0,no,mono,no,18,no,white,no,no,768,103,3.6.1,legacy,legacy,8 5 4 2 9 6,osweb,1.4.0,1,0,n,37,,0,right,,,space,space,space,right,643,,,21993,16770,15957,643,2,legacy,738,1280,24,800,24,0,23,1280,1632986281839,6,1024,2,48000,-16,experiment,1,odd,MacIntel,3,297875,,,294611,75,295644,194151,75,22096,113689,299894,296663,300542,75,299894,Sternberg_updated,35,29886,41,yes,1024
83,83,760,760,black,no,experiment,Mozilla,Netscape,"5.0 (Macintosh; Intel Mac OS X 10_14_6) AppleWebKit/605.1.15 (KHTML, like Gecko) Version/14.1.2 Safari/605.1.15",legacy,legacy,legacy,0,uniform,0,0,left,41,41,41,41,0,0,0,41,41,0,0,0,41,41,41,0,0,41,41,0,30-08-21,30-08-21,09:17:19,Thu Sep 30 2021 09:17:19 GMT+0200 (CEST),The main experiment item,yes,0,0,/Users/ethan/Documents/GitHub/OpenSesame/Sternberg/experiment_files,0,0,0,no,mono,no,18,no,white,no,no,768,103,3.6.1,legacy,legacy,7 1 8 4 9 3,osweb,1.4.0,1,0,n,37,,0,None,,,space,space,space,None,2015,,,21993,16770,15957,2015,2,legacy,738,1280,24,800,24,0,23,1280,1632986281839,6,1024,2,48000,-16,experiment,1,odd,MacIntel,6,303808,,,294611,75,301577,300545,75,22096,113689,305811,302596,307826,75,305811,Sternberg_updated,35,31901,42,yes,1024
81,81,763,763,black,no,experiment,Mozilla,Netscape,"5.0 (Macintosh; Intel Mac OS X 10_14_6) AppleWebKit/605.1.15 (KHTML, like Gecko) Version/14.1.2 Safari/605.1.15",legacy,legacy,legacy,0,uniform,0,0,right,42,42,42,42,0,0,0,42,42,0,0,0,42,42,42,0,0,42,42,0,30-08-21,30-08-21,09:17:19,Thu Sep 30 2021 09:17:19 GMT+0200 (CEST),The main experiment item,yes,0,0,/Users/ethan/Documents/GitHub/OpenSesame/Sternberg/experiment_files,0,0,0,no,mono,no,18,no,white,no,no,768,103,3.6.1,legacy,legacy,6 9 3 1,osweb,1.4.0,1,4,y,37,,0,left,,,space,space,space,left,889,,,21993,16770,15957,889,2,legacy,738,1280,24,800,24,0,23,1280,1632986281839,4,1024,2,48000,-16,experiment,1,odd,MacIntel,1,311094,,,294611,75,308863,307830,75,22096,113689,313098,309880,313995,75,313098,Sternberg_updated,35,32790,43,yes,1024
82,82,761,761,black,no,experiment,Mozilla,Netscape,"5.0 (Macintosh; Intel Mac OS X 10_14_6) AppleWebKit/605.1.15 (KHTML, like Gecko) Version/14.1.2 Safari/605.1.15",legacy,legacy,legacy,0,uniform,1,1,left,43,43,43,43,0,0,0,43,43,0,0,0,43,43,43,0,0,43,43,0,30-08-21,30-08-21,09:17:19,Thu Sep 30 2021 09:17:19 GMT+0200 (CEST),The main experiment item,yes,0,0,/Users/ethan/Documents/GitHub/OpenSesame/Sternberg/experiment_files,0,0,0,no,mono,no,18,no,white,no,no,768,103,3.6.1,legacy,legacy,6 8,osweb,1.4.0,1,0,n,37,,0,left,,,space,space,space,left,682,,,21993,16770,15957,682,2,legacy,738,1280,24,800,24,0,23,1280,1632986281839,2,1024,2,48000,-16,experiment,1,odd,MacIntel,9,317264,,,294611,75,315031,313999,75,22096,113689,319267,316049,319965,75,319267,Sternberg_updated,36,33472,44,yes,1024
82,82,760,760,black,no,experiment,Mozilla,Netscape,"5.0 (Macintosh; Intel Mac OS X 10_14_6) AppleWebKit/605.1.15 (KHTML, like Gecko) Version/14.1.2 Safari/605.1.15",legacy,legacy,legacy,0,uniform,1,1,left,44,44,44,44,0,0,0,44,44,0,0,0,44,44,44,0,0,44,44,0,30-08-21,30-08-21,09:17:19,Thu Sep 30 2021 09:17:19 GMT+0200 (CEST),The main experiment item,yes,0,0,/Users/ethan/Documents/GitHub/OpenSesame/Sternberg/experiment_files,0,0,0,no,mono,no,18,no,white,no,no,768,103,3.6.1,legacy,legacy,4 8 1 2,osweb,1.4.0,1,0,n,37,,0,left,,,space,space,space,left,719,,,21993,16770,15957,719,2,legacy,738,1280,24,800,24,0,23,1280,1632986281839,4,1024,2,48000,-16,experiment,1,odd,MacIntel,7,323234,,,319969,75,321000,313999,75,22096,113689,325254,322019,325984,75,325254,Sternberg_updated,37,34191,45,yes,1024
80,80,759,759,black,no,experiment,Mozilla,Netscape,"5.0 (Macintosh; Intel Mac OS X 10_14_6) AppleWebKit/605.1.15 (KHTML, like Gecko) Version/14.1.2 Safari/605.1.15",legacy,legacy,legacy,0,uniform,0,0,left,45,45,45,45,0,0,0,45,45,0,0,0,45,45,45,0,0,45,45,0,30-08-21,30-08-21,09:17:19,Thu Sep 30 2021 09:17:19 GMT+0200 (CEST),The main experiment item,yes,0,0,/Users/ethan/Documents/GitHub/OpenSesame/Sternberg/experiment_files,0,0,0,no,mono,no,18,no,white,no,no,768,103,3.6.1,legacy,legacy,6 3 1 7 9 8,osweb,1.4.0,1,0,n,37,,0,right,,,space,space,space,right,705,,,21993,16770,15957,705,2,legacy,738,1280,24,800,24,0,23,1280,1632986281839,6,1024,2,48000,-16,experiment,1,odd,MacIntel,4,329255,,,325988,75,327020,313999,75,22096,113689,331274,328044,331987,75,331273,Sternberg_updated,37,34896,46,yes,1024
81,81,761,761,black,no,experiment,Mozilla,Netscape,"5.0 (Macintosh; Intel Mac OS X 10_14_6) AppleWebKit/605.1.15 (KHTML, like Gecko) Version/14.1.2 Safari/605.1.15",legacy,legacy,legacy,0,uniform,1,1,left,46,46,46,46,0,0,0,46,46,0,0,0,46,46,46,0,0,46,46,0,30-08-21,30-08-21,09:17:19,Thu Sep 30 2021 09:17:19 GMT+0200 (CEST),The main experiment item,yes,0,0,/Users/ethan/Documents/GitHub/OpenSesame/Sternberg/experiment_files,0,0,0,no,mono,no,18,no,white,no,no,768,103,3.6.1,legacy,legacy,1 7 8 3 9,osweb,1.4.0,1,0,n,37,,0,left,,,space,space,space,left,852,,,21993,16770,15957,852,2,legacy,738,1280,24,800,24,0,23,1280,1632986281839,5,1024,2,48000,-16,experiment,1,odd,MacIntel,2,335256,,,325988,75,333024,331990,75,22096,113689,337276,334041,338139,75,337276,Sternberg_updated,38,35748,47,yes,1024
81,81,759,759,black,no,experiment,Mozilla,Netscape,"5.0 (Macintosh; Intel Mac OS X 10_14_6) AppleWebKit/605.1.15 (KHTML, like Gecko) Version/14.1.2 Safari/605.1.15",legacy,legacy,legacy,0,uniform,1,1,right,47,47,47,47,0,0,0,47,47,0,0,0,47,47,47,0,0,47,47,0,30-08-21,30-08-21,09:17:19,Thu Sep 30 2021 09:17:19 GMT+0200 (CEST),The main experiment item,yes,0,0,/Users/ethan/Documents/GitHub/OpenSesame/Sternberg/experiment_files,0,0,0,no,mono,no,18,no,white,no,no,768,103,3.6.1,legacy,legacy,4,osweb,1.4.0,1,1,y,37,,0,right,,,space,space,space,right,679,,,21993,16770,15957,679,2,legacy,738,1280,24,800,24,0,23,1280,1632986281839,1,1024,2,48000,-16,experiment,1,odd,MacIntel,4,341409,,,338142,75,339177,331990,75,22096,113689,343429,340194,344109,75,343429,Sternberg_updated,39,36427,48,yes,1024
82,82,757,757,black,no,experiment,Mozilla,Netscape,"5.0 (Macintosh; Intel Mac OS X 10_14_6) AppleWebKit/605.1.15 (KHTML, like Gecko) Version/14.1.2 Safari/605.1.15",legacy,legacy,legacy,0,uniform,1,1,left,48,48,48,48,0,0,0,48,48,0,0,0,48,48,48,0,0,48,48,0,30-08-21,30-08-21,09:17:19,Thu Sep 30 2021 09:17:19 GMT+0200 (CEST),The main experiment item,yes,0,0,/Users/ethan/Documents/GitHub/OpenSesame/Sternberg/experiment_files,0,0,0,no,mono,no,18,no,white,no,no,768,103,3.6.1,legacy,legacy,9 5 3 2 8 6,osweb,1.4.0,1,0,n,37,,0,left,,,space,space,space,left,664,,,21993,16770,15957,664,2,legacy,738,1280,24,800,24,0,23,1280,1632986281839,6,1024,2,48000,-16,experiment,1,odd,MacIntel,7,347378,,,344112,75,345145,331990,75,22096,113689,349382,346163,350062,75,349382,Sternberg_updated,40,37091,49,yes,1024
80,80,756,756,black,no,experiment,Mozilla,Netscape,"5.0 (Macintosh; Intel Mac OS X 10_14_6) AppleWebKit/605.1.15 (KHTML, like Gecko) Version/14.1.2 Safari/605.1.15",legacy,legacy,legacy,0,uniform,0,0,left,49,49,49,49,0,0,0,49,49,0,0,0,49,49,49,0,0,49,49,0,30-08-21,30-08-21,09:17:19,Thu Sep 30 2021 09:17:19 GMT+0200 (CEST),The main experiment item,yes,0,0,/Users/ethan/Documents/GitHub/OpenSesame/Sternberg/experiment_files,0,0,0,no,mono,no,18,no,white,no,no,768,103,3.6.1,legacy,legacy,2 8 7 9 5 3,osweb,1.4.0,1,0,n,37,,0,right,,,space,space,space,right,725,,,21993,16770,15957,725,2,legacy,738,1280,24,800,24,0,23,1280,1632986281839,6,1024,2,48000,-16,experiment,1,odd,MacIntel,6,353331,,,350065,75,351098,331990,75,22096,113689,355334,352116,356064,75,355334,Sternberg_updated,40,37816,50,yes,1024
78,78,754,754,black,no,experiment,Mozilla,Netscape,"5.0 (Macintosh; Intel Mac OS X 10_14_6) AppleWebKit/605.1.15 (KHTML, like Gecko) Version/14.1.2 Safari/605.1.15",legacy,legacy,legacy,0,uniform,0,0,right,50,50,50,50,0,0,0,50,50,0,0,0,50,50,50,0,0,50,50,0,30-08-21,30-08-21,09:17:19,Thu Sep 30 2021 09:17:19 GMT+0200 (CEST),The main experiment item,yes,0,0,/Users/ethan/Documents/GitHub/OpenSesame/Sternberg/experiment_files,0,0,0,no,mono,no,18,no,white,no,no,768,103,3.6.1,legacy,legacy,2 3 7 4,osweb,1.4.0,1,1,y,37,,0,left,,,space,space,space,left,629,,,21993,16770,15957,629,2,legacy,738,1280,24,800,24,0,23,1280,1632986281839,4,1024,2,48000,-16,experiment,1,odd,MacIntel,2,359334,,,350065,75,357101,356067,75,22096,113689,361354,358119,361984,75,361354,Sternberg_updated,40,38445,51,yes,1024
79,79,754,754,black,no,experiment,Mozilla,Netscape,"5.0 (Macintosh; Intel Mac OS X 10_14_6) AppleWebKit/605.1.15 (KHTML, like Gecko) Version/14.1.2 Safari/605.1.15",legacy,legacy,legacy,0,uniform,1,1,left,51,51,51,51,0,0,0,51,51,0,0,0,51,51,51,0,0,51,51,0,30-08-21,30-08-21,09:17:19,Thu Sep 30 2021 09:17:19 GMT+0200 (CEST),The main experiment item,yes,0,0,/Users/ethan/Documents/GitHub/OpenSesame/Sternberg/experiment_files,0,0,0,no,mono,no,18,no,white,no,no,768,103,3.6.1,legacy,legacy,3 9 8 1 6 4,osweb,1.4.0,1,0,n,37,,0,left,,,space,space,space,left,751,,,21993,16770,15957,751,2,legacy,738,1280,24,800,24,0,23,1280,1632986281839,6,1024,2,48000,-16,experiment,1,odd,MacIntel,7,365253,,,350065,75,363020,361987,75,22096,113689,367257,364039,368008,75,367257,Sternberg_updated,41,39196,52,yes,1024
79,79,753,753,black,no,experiment,Mozilla,Netscape,"5.0 (Macintosh; Intel Mac OS X 10_14_6) AppleWebKit/605.1.15 (KHTML, like Gecko) Version/14.1.2 Safari/605.1.15",legacy,legacy,legacy,0,uniform,1,1,left,52,52,52,52,0,0,0,52,52,0,0,0,52,52,52,0,0,52,52,0,30-08-21,30-08-21,09:17:19,Thu Sep 30 2021 09:17:19 GMT+0200 (CEST),The main experiment item,yes,0,0,/Users/ethan/Documents/GitHub/OpenSesame/Sternberg/experiment_files,0,0,0,no,mono,no,18,no,white,no,no,768,103,3.6.1,legacy,legacy,6 2 9 3 8 4,osweb,1.4.0,1,0,n,37,,0,left,,,space,space,space,left,714,,,21993,16770,15957,714,2,legacy,738,1280,24,800,24,0,23,1280,1632986281839,6,1024,2,48000,-16,experiment,1,odd,MacIntel,1,371278,,,368011,75,369044,361987,75,22096,113689,373292,370063,374023,75,373292,Sternberg_updated,42,39910,53,yes,1024
80,80,751,751,black,no,experiment,Mozilla,Netscape,"5.0 (Macintosh; Intel Mac OS X 10_14_6) AppleWebKit/605.1.15 (KHTML, like Gecko) Version/14.1.2 Safari/605.1.15",legacy,legacy,legacy,0,uniform,1,1,right,53,53,53,53,0,0,0,53,53,0,0,0,53,53,53,0,0,53,53,0,30-08-21,30-08-21,09:17:19,Thu Sep 30 2021 09:17:19 GMT+0200 (CEST),The main experiment item,yes,0,0,/Users/ethan/Documents/GitHub/OpenSesame/Sternberg/experiment_files,0,0,0,no,mono,no,18,no,white,no,no,768,103,3.6.1,legacy,legacy,6 1 2,osweb,1.4.0,1,3,y,37,,0,right,,,space,space,space,right,647,,,21993,16770,15957,647,2,legacy,738,1280,24,800,24,0,23,1280,1632986281839,3,1024,2,48000,-16,experiment,1,odd,MacIntel,2,377292,,,374026,75,375059,361987,75,22096,113689,379296,376077,379960,75,379296,Sternberg_updated,43,40557,54,yes,1024
80,80,751,751,black,no,experiment,Mozilla,Netscape,"5.0 (Macintosh; Intel Mac OS X 10_14_6) AppleWebKit/605.1.15 (KHTML, like Gecko) Version/14.1.2 Safari/605.1.15",legacy,legacy,legacy,0,uniform,1,1,left,54,54,54,54,0,0,0,54,54,0,0,0,54,54,54,0,0,54,54,0,30-08-21,30-08-21,09:17:19,Thu Sep 30 2021 09:17:19 GMT+0200 (CEST),The main experiment item,yes,0,0,/Users/ethan/Documents/GitHub/OpenSesame/Sternberg/experiment_files,0,0,0,no,mono,no,18,no,white,no,no,768,103,3.6.1,legacy,legacy,3 4 2,osweb,1.4.0,1,0,n,37,,0,left,,,space,space,space,left,734,,,21993,16770,15957,734,2,legacy,738,1280,24,800,24,0,23,1280,1632986281839,3,1024,2,48000,-16,experiment,1,odd,MacIntel,5,383225,,,379963,75,380996,361987,75,22096,113689,385229,382014,385976,75,385229,Sternberg_updated,44,41291,55,yes,1024
80,80,751,751,black,no,experiment,Mozilla,Netscape,"5.0 (Macintosh; Intel Mac OS X 10_14_6) AppleWebKit/605.1.15 (KHTML, like Gecko) Version/14.1.2 Safari/605.1.15",legacy,legacy,legacy,0,uniform,1,1,left,55,55,55,55,0,0,0,55,55,0,0,0,55,55,55,0,0,55,55,0,30-08-21,30-08-21,09:17:19,Thu Sep 30 2021 09:17:19 GMT+0200 (CEST),The main experiment item,yes,0,0,/Users/ethan/Documents/GitHub/OpenSesame/Sternberg/experiment_files,0,0,0,no,mono,no,18,no,white,no,no,768,103,3.6.1,legacy,legacy,7 1 5 6 3,osweb,1.4.0,1,0,n,37,,0,left,space,,space,space,space,left,783,42642,,21993,16770,15957,783,2,legacy,738,1280,24,800,24,0,23,1280,1632986281839,5,1024,2,48000,-16,experiment,1,odd,MacIntel,8,431902,387000,,385980,75,429674,361987,75,22096,113689,433922,430687,434719,75,433922,Sternberg_updated,45,42074,56,yes,1024
79,79,749,749,black,no,experiment,Mozilla,Netscape,"5.0 (Macintosh; Intel Mac OS X 10_14_6) AppleWebKit/605.1.15 (KHTML, like Gecko) Version/14.1.2 Safari/605.1.15",legacy,legacy,legacy,0,uniform,0,0,left,56,56,56,56,0,0,0,56,56,0,0,0,56,56,56,0,0,56,56,0,30-08-21,30-08-21,09:17:19,Thu Sep 30 2021 09:17:19 GMT+0200 (CEST),The main experiment item,yes,0,0,/Users/ethan/Documents/GitHub/OpenSesame/Sternberg/experiment_files,0,0,0,no,mono,no,18,no,white,no,no,768,103,3.6.1,legacy,legacy,1 4 3 6 5,osweb,1.4.0,1,0,n,37,,0,right,space,,space,space,space,right,633,42642,,21993,16770,15957,633,2,legacy,738,1280,24,800,24,0,23,1280,1632986281839,5,1024,2,48000,-16,experiment,1,odd,MacIntel,8,437988,387000,,434722,75,435756,361987,75,22096,113689,440007,436773,440655,75,440007,Sternberg_updated,45,42707,57,yes,1024
78,78,747,747,black,no,experiment,Mozilla,Netscape,"5.0 (Macintosh; Intel Mac OS X 10_14_6) AppleWebKit/605.1.15 (KHTML, like Gecko) Version/14.1.2 Safari/605.1.15",legacy,legacy,legacy,0,uniform,0,0,right,57,57,57,57,0,0,0,57,57,0,0,0,57,57,57,0,0,57,57,0,30-08-21,30-08-21,09:17:19,Thu Sep 30 2021 09:17:19 GMT+0200 (CEST),The main experiment item,yes,0,0,/Users/ethan/Documents/GitHub/OpenSesame/Sternberg/experiment_files,0,0,0,no,mono,no,18,no,white,no,no,768,103,3.6.1,legacy,legacy,9 1 6 7 8,osweb,1.4.0,1,1,y,37,,0,left,space,,space,space,space,left,647,42642,,21993,16770,15957,647,2,legacy,738,1280,24,800,24,0,23,1280,1632986281839,5,1024,2,48000,-16,experiment,1,odd,MacIntel,9,443923,387000,,434722,75,441701,440658,75,22096,113689,445927,442709,446574,75,445927,Sternberg_updated,45,43354,58,yes,1024
78,78,745,745,black,no,experiment,Mozilla,Netscape,"5.0 (Macintosh; Intel Mac OS X 10_14_6) AppleWebKit/605.1.15 (KHTML, like Gecko) Version/14.1.2 Safari/605.1.15",legacy,legacy,legacy,0,uniform,1,1,right,58,58,58,58,0,0,0,58,58,0,0,0,58,58,58,0,0,58,58,0,30-08-21,30-08-21,09:17:19,Thu Sep 30 2021 09:17:19 GMT+0200 (CEST),The main experiment item,yes,0,0,/Users/ethan/Documents/GitHub/OpenSesame/Sternberg/experiment_files,0,0,0,no,mono,no,18,no,white,no,no,768,103,3.6.1,legacy,legacy,7 4 2 6 3 5,osweb,1.4.0,1,6,y,37,,0,right,space,,space,space,space,right,590,42642,,21993,16770,15957,590,2,legacy,738,1280,24,800,24,0,23,1280,1632986281839,6,1024,2,48000,-16,experiment,1,odd,MacIntel,5,449836,387000,,434722,75,447612,446579,75,22096,113689,451840,448622,452437,75,451840,Sternberg_updated,46,43944,59,yes,1024
78,78,742,742,black,no,experiment,Mozilla,Netscape,"5.0 (Macintosh; Intel Mac OS X 10_14_6) AppleWebKit/605.1.15 (KHTML, like Gecko) Version/14.1.2 Safari/605.1.15",legacy,legacy,legacy,0,uniform,1,1,right,59,59,59,59,0,0,0,59,59,0,0,0,59,59,59,0,0,59,59,0,30-08-21,30-08-21,09:17:19,Thu Sep 30 2021 09:17:19 GMT+0200 (CEST),The main experiment item,yes,0,0,/Users/ethan/Documents/GitHub/OpenSesame/Sternberg/experiment_files,0,0,0,no,mono,no,18,no,white,no,no,768,103,3.6.1,legacy,legacy,5 2 6,osweb,1.4.0,1,2,y,37,,0,right,space,,space,space,space,right,561,42642,,21993,16770,15957,561,2,legacy,738,1280,24,800,24,0,23,1280,1632986281839,3,1024,2,48000,-16,experiment,1,odd,MacIntel,2,455702,387000,,452441,75,453471,446579,75,22096,113689,457706,454488,458284,75,457706,Sternberg_updated,47,44505,60,yes,1024
79,79,739,739,black,no,experiment,Mozilla,Netscape,"5.0 (Macintosh; Intel Mac OS X 10_14_6) AppleWebKit/605.1.15 (KHTML, like Gecko) Version/14.1.2 Safari/605.1.15",legacy,legacy,legacy,0,uniform,1,1,left,60,60,60,60,0,0,0,60,60,0,0,0,60,60,60,0,0,60,60,0,30-08-21,30-08-21,09:17:19,Thu Sep 30 2021 09:17:19 GMT+0200 (CEST),The main experiment item,yes,0,0,/Users/ethan/Documents/GitHub/OpenSesame/Sternberg/experiment_files,0,0,0,no,mono,no,18,no,white,no,no,768,103,3.6.1,legacy,legacy,8 4 3 9,osweb,1.4.0,1,0,n,37,,0,left,space,,space,space,space,left,592,42642,,21993,16770,15957,592,2,legacy,738,1280,24,800,24,0,23,1280,1632986281839,4,1024,2,48000,-16,experiment,1,odd,MacIntel,5,461552,387000,,458287,75,459319,446579,75,22096,113689,463571,460338,464169,75,463571,Sternberg_updated,48,45097,61,yes,1024
79,79,742,742,black,no,experiment,Mozilla,Netscape,"5.0 (Macintosh; Intel Mac OS X 10_14_6) AppleWebKit/605.1.15 (KHTML, like Gecko) Version/14.1.2 Safari/605.1.15",legacy,legacy,legacy,0,uniform,1,1,left,61,61,61,61,0,0,0,61,61,0,0,0,61,61,61,0,0,61,61,0,30-08-21,30-08-21,09:17:19,Thu Sep 30 2021 09:17:19 GMT+0200 (CEST),The main experiment item,yes,0,0,/Users/ethan/Documents/GitHub/OpenSesame/Sternberg/experiment_files,0,0,0,no,mono,no,18,no,white,no,no,768,103,3.6.1,legacy,legacy,1 7 5 2,osweb,1.4.0,1,0,n,37,,0,left,space,,space,space,space,left,927,42642,,21993,16770,15957,927,2,legacy,738,1280,24,800,24,0,23,1280,1632986281839,4,1024,2,48000,-16,experiment,1,odd,MacIntel,3,467436,387000,,464172,75,465203,446579,75,22096,113689,469439,466222,470371,75,469439,Sternberg_updated,49,46024,62,yes,1024
79,79,744,744,black,no,experiment,Mozilla,Netscape,"5.0 (Macintosh; Intel Mac OS X 10_14_6) AppleWebKit/605.1.15 (KHTML, like Gecko) Version/14.1.2 Safari/605.1.15",legacy,legacy,legacy,0,uniform,1,1,right,62,62,62,62,0,0,0,62,62,0,0,0,62,62,62,0,0,62,62,0,30-08-21,30-08-21,09:17:19,Thu Sep 30 2021 09:17:19 GMT+0200 (CEST),The main experiment item,yes,0,0,/Users/ethan/Documents/GitHub/OpenSesame/Sternberg/experiment_files,0,0,0,no,mono,no,18,no,white,no,no,768,103,3.6.1,legacy,legacy,8 3,osweb,1.4.0,1,2,y,37,,0,right,space,,space,space,space,right,837,42642,,21993,16770,15957,837,2,legacy,738,1280,24,800,24,0,23,1280,1632986281839,2,1024,2,48000,-16,experiment,1,odd,MacIntel,3,473639,387000,,470374,75,471406,446579,75,22096,113689,475643,472425,476492,75,475643,Sternberg_updated,50,46861,63,yes,1024
80,80,741,741,black,no,experiment,Mozilla,Netscape,"5.0 (Macintosh; Intel Mac OS X 10_14_6) AppleWebKit/605.1.15 (KHTML, like Gecko) Version/14.1.2 Safari/605.1.15",legacy,legacy,legacy,0,uniform,1,1,left,63,63,63,63,0,0,0,63,63,0,0,0,63,63,63,0,0,63,63,0,30-08-21,30-08-21,09:17:19,Thu Sep 30 2021 09:17:19 GMT+0200 (CEST),The main experiment item,yes,0,0,/Users/ethan/Documents/GitHub/OpenSesame/Sternberg/experiment_files,0,0,0,no,mono,no,18,no,white,no,no,768,103,3.6.1,legacy,legacy,5 3 2 6 9 8,osweb,1.4.0,1,0,n,37,,0,left,space,,space,space,space,left,542,42642,,21993,16770,15957,542,2,legacy,738,1280,24,800,24,0,23,1280,1632986281839,6,1024,2,48000,-16,experiment,1,odd,MacIntel,4,479759,387000,,476496,75,477526,446579,75,22096,113689,481762,478544,482309,75,481762,Sternberg_updated,51,47403,64,yes,1024
78,78,739,739,black,no,experiment,Mozilla,Netscape,"5.0 (Macintosh; Intel Mac OS X 10_14_6) AppleWebKit/605.1.15 (KHTML, like Gecko) Version/14.1.2 Safari/605.1.15",legacy,legacy,legacy,0,uniform,0,0,right,64,64,64,64,0,0,0,64,64,0,0,0,64,64,64,0,0,64,64,0,30-08-21,30-08-21,09:17:19,Thu Sep 30 2021 09:17:19 GMT+0200 (CEST),The main experiment item,yes,0,0,/Users/ethan/Documents/GitHub/OpenSesame/Sternberg/experiment_files,0,0,0,no,mono,no,18,no,white,no,no,768,103,3.6.1,legacy,legacy,8 5 1 3 9,osweb,1.4.0,1,4,y,37,,0,left,space,,space,space,space,left,660,42642,,21993,16770,15957,660,2,legacy,738,1280,24,800,24,0,23,1280,1632986281839,5,1024,2,48000,-16,experiment,1,odd,MacIntel,3,485578,387000,,482312,75,483346,446579,75,22096,113689,487582,484363,488245,75,487582,Sternberg_updated,51,48063,65,yes,1024
79,79,743,743,black,no,experiment,Mozilla,Netscape,"5.0 (Macintosh; Intel Mac OS X 10_14_6) AppleWebKit/605.1.15 (KHTML, like Gecko) Version/14.1.2 Safari/605.1.15",legacy,legacy,legacy,0,uniform,1,1,right,65,65,65,65,0,0,0,65,65,0,0,0,65,65,65,0,0,65,65,0,30-08-21,30-08-21,09:17:19,Thu Sep 30 2021 09:17:19 GMT+0200 (CEST),The main experiment item,yes,0,0,/Users/ethan/Documents/GitHub/OpenSesame/Sternberg/experiment_files,0,0,0,no,mono,no,18,no,white,no,no,768,103,3.6.1,legacy,legacy,7 1 3,osweb,1.4.0,1,2,y,37,,0,right,space,,space,space,space,right,947,42642,,21993,16770,15957,947,2,legacy,738,1280,24,800,24,0,23,1280,1632986281839,3,1024,2,48000,-16,experiment,1,odd,MacIntel,1,491515,387000,,482312,75,489282,488248,75,22096,113689,493535,490299,494499,75,493535,Sternberg_updated,52,49010,66,yes,1024
78,78,745,745,black,no,experiment,Mozilla,Netscape,"5.0 (Macintosh; Intel Mac OS X 10_14_6) AppleWebKit/605.1.15 (KHTML, like Gecko) Version/14.1.2 Safari/605.1.15",legacy,legacy,legacy,0,uniform,0,0,right,66,66,66,66,0,0,0,66,66,0,0,0,66,66,66,0,0,66,66,0,30-08-21,30-08-21,09:17:19,Thu Sep 30 2021 09:17:19 GMT+0200 (CEST),The main experiment item,yes,0,0,/Users/ethan/Documents/GitHub/OpenSesame/Sternberg/experiment_files,0,0,0,no,mono,no,18,no,white,no,no,768,103,3.6.1,legacy,legacy,8 9 5 6 7,osweb,1.4.0,1,1,y,37,,0,left,space,,space,space,space,left,888,42642,,21993,16770,15957,888,2,legacy,738,1280,24,800,24,0,23,1280,1632986281839,5,1024,2,48000,-16,experiment,1,odd,MacIntel,8,497768,387000,,494503,75,495536,488248,75,22096,113689,499788,496553,500685,75,499788,Sternberg_updated,52,49898,67,yes,1024
78,78,745,745,black,no,experiment,Mozilla,Netscape,"5.0 (Macintosh; Intel Mac OS X 10_14_6) AppleWebKit/605.1.15 (KHTML, like Gecko) Version/14.1.2 Safari/605.1.15",legacy,legacy,legacy,0,uniform,1,1,right,67,67,67,67,0,0,0,67,67,0,0,0,67,67,67,0,0,67,67,0,30-08-21,30-08-21,09:17:19,Thu Sep 30 2021 09:17:19 GMT+0200 (CEST),The main experiment item,yes,0,0,/Users/ethan/Documents/GitHub/OpenSesame/Sternberg/experiment_files,0,0,0,no,mono,no,18,no,white,no,no,768,103,3.6.1,legacy,legacy,2 8 5 1,osweb,1.4.0,1,4,y,37,,0,right,space,,space,space,space,right,791,42642,,21993,16770,15957,791,2,legacy,738,1280,24,800,24,0,23,1280,1632986281839,4,1024,2,48000,-16,experiment,1,odd,MacIntel,1,503954,387000,,494503,75,501722,500689,75,22096,113689,505974,502740,506770,75,505974,Sternberg_updated,53,50689,68,yes,1024
78,78,751,751,black,no,experiment,Mozilla,Netscape,"5.0 (Macintosh; Intel Mac OS X 10_14_6) AppleWebKit/605.1.15 (KHTML, like Gecko) Version/14.1.2 Safari/605.1.15",legacy,legacy,legacy,0,uniform,1,1,left,68,68,68,68,0,0,0,68,68,0,0,0,68,68,68,0,0,68,68,0,30-08-21,30-08-21,09:17:19,Thu Sep 30 2021 09:17:19 GMT+0200 (CEST),The main experiment item,yes,0,0,/Users/ethan/Documents/GitHub/OpenSesame/Sternberg/experiment_files,0,0,0,no,mono,no,18,no,white,no,no,768,103,3.6.1,legacy,legacy,8 2 1 4 5 9,osweb,1.4.0,1,0,n,37,,0,left,space,,space,space,space,left,1127,42642,,21993,16770,15957,1127,2,legacy,738,1280,24,800,24,0,23,1280,1632986281839,6,1024,2,48000,-16,experiment,1,odd,MacIntel,7,510040,387000,,506774,75,507809,500689,75,22096,113689,512043,508825,513173,75,512043,Sternberg_updated,54,51816,69,yes,1024
79,79,746,746,black,no,experiment,Mozilla,Netscape,"5.0 (Macintosh; Intel Mac OS X 10_14_6) AppleWebKit/605.1.15 (KHTML, like Gecko) Version/14.1.2 Safari/605.1.15",legacy,legacy,legacy,0,uniform,1,1,right,69,69,69,69,0,0,0,69,69,0,0,0,69,69,69,0,0,69,69,0,30-08-21,30-08-21,09:17:19,Thu Sep 30 2021 09:17:19 GMT+0200 (CEST),The main experiment item,yes,0,0,/Users/ethan/Documents/GitHub/OpenSesame/Sternberg/experiment_files,0,0,0,no,mono,no,18,no,white,no,no,768,103,3.6.1,legacy,legacy,2 4 8 5 1 3,osweb,1.4.0,1,1,y,37,,0,right,space,,space,space,space,right,416,42642,,21993,16770,15957,416,2,legacy,738,1280,24,800,24,0,23,1280,1632986281839,6,1024,2,48000,-16,experiment,1,odd,MacIntel,2,516443,387000,,513176,75,514211,500689,75,22096,113689,518446,515228,518877,75,518446,Sternberg_updated,55,52232,70,yes,1024
79,79,742,742,black,no,experiment,Mozilla,Netscape,"5.0 (Macintosh; Intel Mac OS X 10_14_6) AppleWebKit/605.1.15 (KHTML, like Gecko) Version/14.1.2 Safari/605.1.15",legacy,legacy,legacy,0,uniform,1,1,right,70,70,70,70,0,0,0,70,70,0,0,0,70,70,70,0,0,70,70,0,30-08-21,30-08-21,09:17:19,Thu Sep 30 2021 09:17:19 GMT+0200 (CEST),The main experiment item,yes,0,0,/Users/ethan/Documents/GitHub/OpenSesame/Sternberg/experiment_files,0,0,0,no,mono,no,18,no,white,no,no,768,103,3.6.1,legacy,legacy,3 5 7 1,osweb,1.4.0,1,3,y,37,,0,right,space,,space,space,space,right,446,42642,,21993,16770,15957,446,2,legacy,738,1280,24,800,24,0,23,1280,1632986281839,4,1024,2,48000,-16,experiment,1,odd,MacIntel,7,522146,387000,,518881,75,519913,500689,75,22096,113689,524170,520931,524630,75,524170,Sternberg_updated,56,52678,71,yes,1024
79,79,740,740,black,no,experiment,Mozilla,Netscape,"5.0 (Macintosh; Intel Mac OS X 10_14_6) AppleWebKit/605.1.15 (KHTML, like Gecko) Version/14.1.2 Safari/605.1.15",legacy,legacy,legacy,0,uniform,1,1,left,71,71,71,71,0,0,0,71,71,0,0,0,71,71,71,0,0,71,71,0,30-08-21,30-08-21,09:17:19,Thu Sep 30 2021 09:17:19 GMT+0200 (CEST),The main experiment item,yes,0,0,/Users/ethan/Documents/GitHub/OpenSesame/Sternberg/experiment_files,0,0,0,no,mono,no,18,no,white,no,no,768,103,3.6.1,legacy,legacy,1 4 9 3,osweb,1.4.0,1,0,n,37,,0,left,space,,space,space,space,left,611,42642,,21993,16770,15957,611,2,legacy,738,1280,24,800,24,0,23,1280,1632986281839,4,1024,2,48000,-16,experiment,1,odd,MacIntel,5,527898,387000,,524634,75,525668,500689,75,22096,113689,529917,526684,530531,75,529917,Sternberg_updated,57,53289,72,yes,1024
79,79,738,738,black,no,experiment,Mozilla,Netscape,"5.0 (Macintosh; Intel Mac OS X 10_14_6) AppleWebKit/605.1.15 (KHTML, like Gecko) Version/14.1.2 Safari/605.1.15",legacy,legacy,legacy,0,uniform,1,1,left,72,72,72,72,0,0,0,72,72,0,0,0,72,72,72,0,0,72,72,0,30-08-21,30-08-21,09:17:19,Thu Sep 30 2021 09:17:19 GMT+0200 (CEST),The main experiment item,yes,0,0,/Users/ethan/Documents/GitHub/OpenSesame/Sternberg/experiment_files,0,0,0,no,mono,no,18,no,white,no,no,768,103,3.6.1,legacy,legacy,6 9 5,osweb,1.4.0,1,0,n,37,,0,left,space,,space,space,space,left,594,42642,,21993,16770,15957,594,2,legacy,738,1280,24,800,24,0,23,1280,1632986281839,3,1024,2,48000,-16,experiment,1,odd,MacIntel,8,533799,387000,,530538,75,531568,500689,75,22096,113689,535819,532585,536416,75,535819,Sternberg_updated,58,53883,73,yes,1024
78,78,741,741,black,no,experiment,Mozilla,Netscape,"5.0 (Macintosh; Intel Mac OS X 10_14_6) AppleWebKit/605.1.15 (KHTML, like Gecko) Version/14.1.2 Safari/605.1.15",legacy,legacy,legacy,0,uniform,0,0,left,73,73,73,73,0,0,0,73,73,0,0,0,73,73,73,0,0,73,73,0,30-08-21,30-08-21,09:17:19,Thu Sep 30 2021 09:17:19 GMT+0200 (CEST),The main experiment item,yes,0,0,/Users/ethan/Documents/GitHub/OpenSesame/Sternberg/experiment_files,0,0,0,no,mono,no,18,no,white,no,no,768,103,3.6.1,legacy,legacy,1 6 4 3 9 7,osweb,1.4.0,1,0,n,37,,0,right,space,,space,space,space,right,957,42642,,21993,16770,15957,957,2,legacy,738,1280,24,800,24,0,23,1280,1632986281839,6,1024,2,48000,-16,experiment,1,odd,MacIntel,8,539684,387000,,536419,75,537452,500689,75,22096,113689,541687,538469,542654,75,541687,Sternberg_updated,58,54840,74,yes,1024
79,79,741,741,black,no,experiment,Mozilla,Netscape,"5.0 (Macintosh; Intel Mac OS X 10_14_6) AppleWebKit/605.1.15 (KHTML, like Gecko) Version/14.1.2 Safari/605.1.15",legacy,legacy,legacy,0,uniform,1,1,right,74,74,74,74,0,0,0,74,74,0,0,0,74,74,74,0,0,74,74,0,30-08-21,30-08-21,09:17:19,Thu Sep 30 2021 09:17:19 GMT+0200 (CEST),The main experiment item,yes,0,0,/Users/ethan/Documents/GitHub/OpenSesame/Sternberg/experiment_files,0,0,0,no,mono,no,18,no,white,no,no,768,103,3.6.1,legacy,legacy,9 5 8 1,osweb,1.4.0,1,2,y,37,,0,right,space,,space,space,space,right,726,42642,,21993,16770,15957,726,2,legacy,738,1280,24,800,24,0,23,1280,1632986281839,4,1024,2,48000,-16,experiment,1,odd,MacIntel,5,545917,387000,,536419,75,543684,542657,75,22096,113689,547938,544702,548676,75,547938,Sternberg_updated,59,55566,75,yes,1024
79,79,738,738,black,no,experiment,Mozilla,Netscape,"5.0 (Macintosh; Intel Mac OS X 10_14_6) AppleWebKit/605.1.15 (KHTML, like Gecko) Version/14.1.2 Safari/605.1.15",legacy,legacy,legacy,0,uniform,1,1,right,75,75,75,75,0,0,0,75,75,0,0,0,75,75,75,0,0,75,75,0,30-08-21,30-08-21,09:17:19,Thu Sep 30 2021 09:17:19 GMT+0200 (CEST),The main experiment item,yes,0,0,/Users/ethan/Documents/GitHub/OpenSesame/Sternberg/experiment_files,0,0,0,no,mono,no,18,no,white,no,no,768,103,3.6.1,legacy,legacy,6 8 9 3 4 9,osweb,1.4.0,1,5,y,37,,0,right,space,,space,space,space,right,509,42642,,21993,16770,15957,509,2,legacy,738,1280,24,800,24,0,23,1280,1632986281839,6,1024,2,48000,-16,experiment,1,odd,MacIntel,4,551945,387000,,548680,75,549712,542657,75,22096,113689,553948,550730,554461,75,553948,Sternberg_updated,60,56075,76,yes,1024
79,79,737,737,black,no,experiment,Mozilla,Netscape,"5.0 (Macintosh; Intel Mac OS X 10_14_6) AppleWebKit/605.1.15 (KHTML, like Gecko) Version/14.1.2 Safari/605.1.15",legacy,legacy,legacy,0,uniform,1,1,left,76,76,76,76,0,0,0,76,76,0,0,0,76,76,76,0,0,76,76,0,30-08-21,30-08-21,09:17:19,Thu Sep 30 2021 09:17:19 GMT+0200 (CEST),The main experiment item,yes,0,0,/Users/ethan/Documents/GitHub/OpenSesame/Sternberg/experiment_files,0,0,0,no,mono,no,18,no,white,no,no,768,103,3.6.1,legacy,legacy,7 8 6 1,osweb,1.4.0,1,0,n,37,,0,left,space,,space,space,space,left,638,42642,,21993,16770,15957,638,2,legacy,738,1280,24,800,24,0,23,1280,1632986281839,4,1024,2,48000,-16,experiment,1,odd,MacIntel,3,557731,387000,,554464,75,555498,542657,75,22096,113689,559734,556516,560382,75,559734,Sternberg_updated,61,56713,77,yes,1024
78,78,753,753,black,no,experiment,Mozilla,Netscape,"5.0 (Macintosh; Intel Mac OS X 10_14_6) AppleWebKit/605.1.15 (KHTML, like Gecko) Version/14.1.2 Safari/605.1.15",legacy,legacy,legacy,0,uniform,0,0,right,77,77,77,77,0,0,0,77,77,0,0,0,77,77,77,0,0,77,77,0,30-08-21,30-08-21,09:17:19,Thu Sep 30 2021 09:17:19 GMT+0200 (CEST),The main experiment item,yes,0,0,/Users/ethan/Documents/GitHub/OpenSesame/Sternberg/experiment_files,0,0,0,no,mono,no,18,no,white,no,no,768,103,3.6.1,legacy,legacy,9 3 8 2 1 4,osweb,1.4.0,1,3,y,37,,0,None,space,,space,space,space,None,2014,42642,,21993,16770,15957,2014,2,legacy,738,1280,24,800,24,0,23,1280,1632986281839,6,1024,2,48000,-16,experiment,1,odd,MacIntel,8,563651,387000,,560385,75,561417,542657,75,22096,113689,565671,562437,567685,75,565671,Sternberg_updated,61,58727,78,yes,1024
78,78,750,750,black,no,experiment,Mozilla,Netscape,"5.0 (Macintosh; Intel Mac OS X 10_14_6) AppleWebKit/605.1.15 (KHTML, like Gecko) Version/14.1.2 Safari/605.1.15",legacy,legacy,legacy,0,uniform,1,1,left,78,78,78,78,0,0,0,78,78,0,0,0,78,78,78,0,0,78,78,0,30-08-21,30-08-21,09:17:19,Thu Sep 30 2021 09:17:19 GMT+0200 (CEST),The main experiment item,yes,0,0,/Users/ethan/Documents/GitHub/OpenSesame/Sternberg/experiment_files,0,0,0,no,mono,no,18,no,white,no,no,768,103,3.6.1,legacy,legacy,1 7 5 2 9,osweb,1.4.0,1,0,n,37,,0,left,space,,space,space,space,left,515,42642,,21993,16770,15957,515,2,legacy,738,1280,24,800,24,0,23,1280,1632986281839,5,1024,2,48000,-16,experiment,1,odd,MacIntel,3,570954,387000,,560385,75,568722,567689,75,22096,113689,572957,569740,573488,75,572957,Sternberg_updated,62,59242,79,yes,1024
79,79,751,751,black,no,experiment,Mozilla,Netscape,"5.0 (Macintosh; Intel Mac OS X 10_14_6) AppleWebKit/605.1.15 (KHTML, like Gecko) Version/14.1.2 Safari/605.1.15",legacy,legacy,legacy,0,uniform,1,1,right,79,79,79,79,0,0,0,79,79,0,0,0,79,79,79,0,0,79,79,0,30-08-21,30-08-21,09:17:19,Thu Sep 30 2021 09:17:19 GMT+0200 (CEST),The main experiment item,yes,0,0,/Users/ethan/Documents/GitHub/OpenSesame/Sternberg/experiment_files,0,0,0,no,mono,no,18,no,white,no,no,768,103,3.6.1,legacy,legacy,3 4,osweb,1.4.0,1,1,y,37,,0,right,space,,space,space,space,right,827,42642,,21993,16770,15957,827,2,legacy,738,1280,24,800,24,0,23,1280,1632986281839,2,1024,2,48000,-16,experiment,1,odd,MacIntel,3,576757,387000,,573492,75,574525,567689,75,22096,113689,578777,575542,579606,75,578777,Sternberg_updated,63,60069,80,yes,1024
78,78,748,748,black,no,experiment,Mozilla,Netscape,"5.0 (Macintosh; Intel Mac OS X 10_14_6) AppleWebKit/605.1.15 (KHTML, like Gecko) Version/14.1.2 Safari/605.1.15",legacy,legacy,legacy,0,uniform,0,0,right,80,80,80,80,0,0,0,80,80,0,0,0,80,80,80,0,0,80,80,0,30-08-21,30-08-21,09:17:19,Thu Sep 30 2021 09:17:19 GMT+0200 (CEST),The main experiment item,yes,0,0,/Users/ethan/Documents/GitHub/OpenSesame/Sternberg/experiment_files,0,0,0,no,mono,no,18,no,white,no,no,768,103,3.6.1,legacy,legacy,9 1 7 2,osweb,1.4.0,1,2,y,37,,0,left,space,,space,space,space,left,524,42642,,21993,16770,15957,524,2,legacy,738,1280,24,800,24,0,23,1280,1632986281839,4,1024,2,48000,-16,experiment,1,odd,MacIntel,1,582877,387000,,579609,75,580643,567689,75,22096,113689,584897,581665,585426,75,584897,Sternberg_updated,63,60593,81,yes,1024
78,78,749,749,black,no,experiment,Mozilla,Netscape,"5.0 (Macintosh; Intel Mac OS X 10_14_6) AppleWebKit/605.1.15 (KHTML, like Gecko) Version/14.1.2 Safari/605.1.15",legacy,legacy,legacy,0,uniform,1,1,right,81,81,81,81,0,0,0,81,81,0,0,0,81,81,81,0,0,81,81,0,30-08-21,30-08-21,09:17:19,Thu Sep 30 2021 09:17:19 GMT+0200 (CEST),The main experiment item,yes,0,0,/Users/ethan/Documents/GitHub/OpenSesame/Sternberg/experiment_files,0,0,0,no,mono,no,18,no,white,no,no,768,103,3.6.1,legacy,legacy,4 7 6 8 2 3,osweb,1.4.0,1,6,y,37,,0,right,space,,space,space,space,right,787,42642,,21993,16770,15957,787,2,legacy,738,1280,24,800,24,0,23,1280,1632986281839,6,1024,2,48000,-16,experiment,1,odd,MacIntel,3,588696,387000,,579609,75,586465,585430,75,22096,113689,590716,587481,591513,75,590716,Sternberg_updated,64,61380,82,yes,1024
78,78,746,746,black,no,experiment,Mozilla,Netscape,"5.0 (Macintosh; Intel Mac OS X 10_14_6) AppleWebKit/605.1.15 (KHTML, like Gecko) Version/14.1.2 Safari/605.1.15",legacy,legacy,legacy,0,uniform,1,1,left,82,82,82,82,0,0,0,82,82,0,0,0,82,82,82,0,0,82,82,0,30-08-21,30-08-21,09:17:19,Thu Sep 30 2021 09:17:19 GMT+0200 (CEST),The main experiment item,yes,0,0,/Users/ethan/Documents/GitHub/OpenSesame/Sternberg/experiment_files,0,0,0,no,mono,no,18,no,white,no,no,768,103,3.6.1,legacy,legacy,7 3 2 8,osweb,1.4.0,1,0,n,37,,0,left,space,,space,space,space,left,554,42642,,21993,16770,15957,554,2,legacy,738,1280,24,800,24,0,23,1280,1632986281839,4,1024,2,48000,-16,experiment,1,odd,MacIntel,4,594782,387000,,591517,75,592550,585430,75,22096,113689,596785,593567,597349,75,596785,Sternberg_updated,65,61934,83,yes,1024
79,79,745,745,black,no,experiment,Mozilla,Netscape,"5.0 (Macintosh; Intel Mac OS X 10_14_6) AppleWebKit/605.1.15 (KHTML, like Gecko) Version/14.1.2 Safari/605.1.15",legacy,legacy,legacy,0,uniform,1,1,left,83,83,83,83,0,0,0,83,83,0,0,0,83,83,83,0,0,83,83,0,30-08-21,30-08-21,09:17:19,Thu Sep 30 2021 09:17:19 GMT+0200 (CEST),The main experiment item,yes,0,0,/Users/ethan/Documents/GitHub/OpenSesame/Sternberg/experiment_files,0,0,0,no,mono,no,18,no,white,no,no,768,103,3.6.1,legacy,legacy,6 7 5 9,osweb,1.4.0,1,0,n,37,,0,left,space,,space,space,space,left,648,42642,,21993,16770,15957,648,2,legacy,738,1280,24,800,24,0,23,1280,1632986281839,4,1024,2,48000,-16,experiment,1,odd,MacIntel,2,600618,387000,,597353,75,598385,585430,75,22096,113689,602621,599403,603286,75,602621,Sternberg_updated,66,62582,84,yes,1024
79,79,747,747,black,no,experiment,Mozilla,Netscape,"5.0 (Macintosh; Intel Mac OS X 10_14_6) AppleWebKit/605.1.15 (KHTML, like Gecko) Version/14.1.2 Safari/605.1.15",legacy,legacy,legacy,0,uniform,1,1,left,84,84,84,84,0,0,0,84,84,0,0,0,84,84,84,0,0,84,84,0,30-08-21,30-08-21,09:17:19,Thu Sep 30 2021 09:17:19 GMT+0200 (CEST),The main experiment item,yes,0,0,/Users/ethan/Documents/GitHub/OpenSesame/Sternberg/experiment_files,0,0,0,no,mono,no,18,no,white,no,no,768,103,3.6.1,legacy,legacy,8 5 7 3 6,osweb,1.4.0,1,0,n,37,,0,left,space,,space,space,space,left,893,42642,,21993,16770,15957,893,2,legacy,738,1280,24,800,24,0,23,1280,1632986281839,5,1024,2,48000,-16,experiment,1,odd,MacIntel,9,606558,387000,,603289,75,604321,585430,75,22096,113689,608574,605339,609472,75,608574,Sternberg_updated,67,63475,85,yes,1024
78,78,748,748,black,no,experiment,Mozilla,Netscape,"5.0 (Macintosh; Intel Mac OS X 10_14_6) AppleWebKit/605.1.15 (KHTML, like Gecko) Version/14.1.2 Safari/605.1.15",legacy,legacy,legacy,0,uniform,0,0,left,85,85,85,85,0,0,0,85,85,0,0,0,85,85,85,0,0,85,85,0,30-08-21,30-08-21,09:17:19,Thu Sep 30 2021 09:17:19 GMT+0200 (CEST),The main experiment item,yes,0,0,/Users/ethan/Documents/GitHub/OpenSesame/Sternberg/experiment_files,0,0,0,no,mono,no,18,no,white,no,no,768,103,3.6.1,legacy,legacy,7 9,osweb,1.4.0,1,0,n,37,,0,right,space,,space,space,space,right,839,42642,,21993,16770,15957,839,2,legacy,738,1280,24,800,24,0,23,1280,1632986281839,2,1024,2,48000,-16,experiment,1,odd,MacIntel,1,612757,387000,,609476,75,610530,585430,75,22096,113689,614768,611545,615617,75,614768,Sternberg_updated,67,64314,86,yes,1024
78,78,746,746,black,no,experiment,Mozilla,Netscape,"5.0 (Macintosh; Intel Mac OS X 10_14_6) AppleWebKit/605.1.15 (KHTML, like Gecko) Version/14.1.2 Safari/605.1.15",legacy,legacy,legacy,0,uniform,1,1,right,86,86,86,86,0,0,0,86,86,0,0,0,86,86,86,0,0,86,86,0,30-08-21,30-08-21,09:17:19,Thu Sep 30 2021 09:17:19 GMT+0200 (CEST),The main experiment item,yes,0,0,/Users/ethan/Documents/GitHub/OpenSesame/Sternberg/experiment_files,0,0,0,no,mono,no,18,no,white,no,no,768,103,3.6.1,legacy,legacy,6 9 7 4 5 1,osweb,1.4.0,1,2,y,37,,0,right,space,,space,space,space,right,619,42642,,21993,16770,15957,619,2,legacy,738,1280,24,800,24,0,23,1280,1632986281839,6,1024,2,48000,-16,experiment,1,odd,MacIntel,9,618883,387000,,609476,75,616653,615621,75,22096,113689,620886,617671,621517,75,620886,Sternberg_updated,68,64933,87,yes,1024
78,78,744,744,black,no,experiment,Mozilla,Netscape,"5.0 (Macintosh; Intel Mac OS X 10_14_6) AppleWebKit/605.1.15 (KHTML, like Gecko) Version/14.1.2 Safari/605.1.15",legacy,legacy,legacy,0,uniform,1,1,right,87,87,87,87,0,0,0,87,87,0,0,0,87,87,87,0,0,87,87,0,30-08-21,30-08-21,09:17:19,Thu Sep 30 2021 09:17:19 GMT+0200 (CEST),The main experiment item,yes,0,0,/Users/ethan/Documents/GitHub/OpenSesame/Sternberg/experiment_files,0,0,0,no,mono,no,18,no,white,no,no,768,103,3.6.1,legacy,legacy,8 7 3,osweb,1.4.0,1,1,y,37,,0,right,space,,space,space,space,right,560,42642,,21993,16770,15957,560,2,legacy,738,1280,24,800,24,0,23,1280,1632986281839,3,1024,2,48000,-16,experiment,1,odd,MacIntel,8,624783,387000,,621520,75,622553,615621,75,22096,113689,626803,623568,627366,75,626803,Sternberg_updated,69,65493,88,yes,1024
79,79,745,745,black,no,experiment,Mozilla,Netscape,"5.0 (Macintosh; Intel Mac OS X 10_14_6) AppleWebKit/605.1.15 (KHTML, like Gecko) Version/14.1.2 Safari/605.1.15",legacy,legacy,legacy,0,uniform,1,1,right,88,88,88,88,0,0,0,88,88,0,0,0,88,88,88,0,0,88,88,0,30-08-21,30-08-21,09:17:19,Thu Sep 30 2021 09:17:19 GMT+0200 (CEST),The main experiment item,yes,0,0,/Users/ethan/Documents/GitHub/OpenSesame/Sternberg/experiment_files,0,0,0,no,mono,no,18,no,white,no,no,768,103,3.6.1,legacy,legacy,3 5 9 6 2 4,osweb,1.4.0,1,1,y,37,,0,right,space,,space,space,space,right,847,42642,,21993,16770,15957,847,2,legacy,738,1280,24,800,24,0,23,1280,1632986281839,6,1024,2,48000,-16,experiment,1,odd,MacIntel,3,630636,387000,,627369,75,628402,615621,75,22096,113689,632655,629421,633502,75,632655,Sternberg_updated,70,66340,89,yes,1024
79,79,743,743,black,no,experiment,Mozilla,Netscape,"5.0 (Macintosh; Intel Mac OS X 10_14_6) AppleWebKit/605.1.15 (KHTML, like Gecko) Version/14.1.2 Safari/605.1.15",legacy,legacy,legacy,0,uniform,1,1,left,89,89,89,89,0,0,0,89,89,0,0,0,89,89,89,0,0,89,89,0,30-08-21,30-08-21,09:17:19,Thu Sep 30 2021 09:17:19 GMT+0200 (CEST),The main experiment item,yes,0,0,/Users/ethan/Documents/GitHub/OpenSesame/Sternberg/experiment_files,0,0,0,no,mono,no,18,no,white,no,no,768,103,3.6.1,legacy,legacy,6 8 4,osweb,1.4.0,1,0,n,37,,0,left,space,,space,space,space,left,562,42642,,21993,16770,15957,562,2,legacy,738,1280,24,800,24,0,23,1280,1632986281839,3,1024,2,48000,-16,experiment,1,odd,MacIntel,1,636772,387000,,633507,75,634539,615621,75,22096,113689,638775,635557,639339,75,638775,Sternberg_updated,71,66902,90,yes,1024
78,78,742,742,black,no,experiment,Mozilla,Netscape,"5.0 (Macintosh; Intel Mac OS X 10_14_6) AppleWebKit/605.1.15 (KHTML, like Gecko) Version/14.1.2 Safari/605.1.15",legacy,legacy,legacy,0,uniform,0,0,right,90,90,90,90,0,0,0,90,90,0,0,0,90,90,90,0,0,90,90,0,30-08-21,30-08-21,09:17:19,Thu Sep 30 2021 09:17:19 GMT+0200 (CEST),The main experiment item,yes,0,0,/Users/ethan/Documents/GitHub/OpenSesame/Sternberg/experiment_files,0,0,0,no,mono,no,18,no,white,no,no,768,103,3.6.1,legacy,legacy,8 9 6 1,osweb,1.4.0,1,2,y,37,,0,left,space,,space,space,space,left,660,42642,,21993,16770,15957,660,2,legacy,738,1280,24,800,24,0,23,1280,1632986281839,4,1024,2,48000,-16,experiment,1,odd,MacIntel,9,642625,387000,,639342,75,640396,615621,75,22096,113689,644645,641410,645308,75,644645,Sternberg_updated,71,67562,91,yes,1024
78,78,739,739,black,no,experiment,Mozilla,Netscape,"5.0 (Macintosh; Intel Mac OS X 10_14_6) AppleWebKit/605.1.15 (KHTML, like Gecko) Version/14.1.2 Safari/605.1.15",legacy,legacy,legacy,0,uniform,1,1,right,91,91,91,91,0,0,0,91,91,0,0,0,91,91,91,0,0,91,91,0,30-08-21,30-08-21,09:17:19,Thu Sep 30 2021 09:17:19 GMT+0200 (CEST),The main experiment item,yes,0,0,/Users/ethan/Documents/GitHub/OpenSesame/Sternberg/experiment_files,0,0,0,no,mono,no,18,no,white,no,no,768,103,3.6.1,legacy,legacy,4 6 2 5 1,osweb,1.4.0,1,5,y,37,,0,right,space,,space,space,space,right,417,42642,,21993,16770,15957,417,2,legacy,738,1280,24,800,24,0,23,1280,1632986281839,5,1024,2,48000,-16,experiment,1,odd,MacIntel,1,648578,387000,,639342,75,646345,645311,75,22096,113689,650596,647363,651028,75,650596,Sternberg_updated,72,67979,92,yes,1024
78,78,739,739,black,no,experiment,Mozilla,Netscape,"5.0 (Macintosh; Intel Mac OS X 10_14_6) AppleWebKit/605.1.15 (KHTML, like Gecko) Version/14.1.2 Safari/605.1.15",legacy,legacy,legacy,0,uniform,1,1,right,92,92,92,92,0,0,0,92,92,0,0,0,92,92,92,0,0,92,92,0,30-08-21,30-08-21,09:17:19,Thu Sep 30 2021 09:17:19 GMT+0200 (CEST),The main experiment item,yes,0,0,/Users/ethan/Documents/GitHub/OpenSesame/Sternberg/experiment_files,0,0,0,no,mono,no,18,no,white,no,no,768,103,3.6.1,legacy,legacy,3 9 7 6 4,osweb,1.4.0,1,3,y,37,,0,right,space,,space,space,space,right,739,42642,,21993,16770,15957,739,2,legacy,738,1280,24,800,24,0,23,1280,1632986281839,5,1024,2,48000,-16,experiment,1,odd,MacIntel,7,654314,387000,,651031,75,652085,645311,75,22096,113689,656334,653103,657081,75,656334,Sternberg_updated,73,68718,93,yes,1024
79,79,738,738,black,no,experiment,Mozilla,Netscape,"5.0 (Macintosh; Intel Mac OS X 10_14_6) AppleWebKit/605.1.15 (KHTML, like Gecko) Version/14.1.2 Safari/605.1.15",legacy,legacy,legacy,0,uniform,1,1,right,93,93,93,93,0,0,0,93,93,0,0,0,93,93,93,0,0,93,93,0,30-08-21,30-08-21,09:17:19,Thu Sep 30 2021 09:17:19 GMT+0200 (CEST),The main experiment item,yes,0,0,/Users/ethan/Documents/GitHub/OpenSesame/Sternberg/experiment_files,0,0,0,no,mono,no,18,no,white,no,no,768,103,3.6.1,legacy,legacy,8 5 4 7 3 1,osweb,1.4.0,1,2,y,37,,0,right,space,,space,space,space,right,618,42642,,21993,16770,15957,618,2,legacy,738,1280,24,800,24,0,23,1280,1632986281839,6,1024,2,48000,-16,experiment,1,odd,MacIntel,5,660350,387000,,657085,75,658119,645311,75,22096,113689,662353,659134,662984,75,662353,Sternberg_updated,74,69336,94,yes,1024
79,79,735,735,black,no,experiment,Mozilla,Netscape,"5.0 (Macintosh; Intel Mac OS X 10_14_6) AppleWebKit/605.1.15 (KHTML, like Gecko) Version/14.1.2 Safari/605.1.15",legacy,legacy,legacy,0,uniform,1,1,right,94,94,94,94,0,0,0,94,94,0,0,0,94,94,94,0,0,94,94,0,30-08-21,30-08-21,09:17:19,Thu Sep 30 2021 09:17:19 GMT+0200 (CEST),The main experiment item,yes,0,0,/Users/ethan/Documents/GitHub/OpenSesame/Sternberg/experiment_files,0,0,0,no,mono,no,18,no,white,no,no,768,103,3.6.1,legacy,legacy,7 1 8 5 6 2,osweb,1.4.0,1,2,y,37,,0,right,space,,space,space,space,right,528,42642,,21993,16770,15957,528,2,legacy,738,1280,24,800,24,0,23,1280,1632986281839,6,1024,2,48000,-16,experiment,1,odd,MacIntel,1,666252,387000,,662988,75,664020,645311,75,22096,113689,668256,665038,668786,75,668256,Sternberg_updated,75,69864,95,yes,1024
79,79,733,733,black,no,experiment,Mozilla,Netscape,"5.0 (Macintosh; Intel Mac OS X 10_14_6) AppleWebKit/605.1.15 (KHTML, like Gecko) Version/14.1.2 Safari/605.1.15",legacy,legacy,legacy,0,uniform,1,1,left,95,95,95,95,0,0,0,95,95,0,0,0,95,95,95,0,0,95,95,0,30-08-21,30-08-21,09:17:19,Thu Sep 30 2021 09:17:19 GMT+0200 (CEST),The main experiment item,yes,0,0,/Users/ethan/Documents/GitHub/OpenSesame/Sternberg/experiment_files,0,0,0,no,mono,no,18,no,white,no,no,768,103,3.6.1,legacy,legacy,8 4 3 5,osweb,1.4.0,1,0,n,37,,0,left,space,,space,space,space,left,549,42642,,21993,16770,15957,549,2,legacy,738,1280,24,800,24,0,23,1280,1632986281839,4,1024,2,48000,-16,experiment,1,odd,MacIntel,6,672056,387000,,668789,75,669823,645311,75,22096,113689,674075,670840,674639,75,674075,Sternberg_updated,76,70413,96,yes,1024
79,79,731,731,black,no,experiment,Mozilla,Netscape,"5.0 (Macintosh; Intel Mac OS X 10_14_6) AppleWebKit/605.1.15 (KHTML, like Gecko) Version/14.1.2 Safari/605.1.15",legacy,legacy,legacy,0,uniform,1,1,left,96,96,96,96,0,0,0,96,96,0,0,0,96,96,96,0,0,96,96,0,30-08-21,30-08-21,09:17:19,Thu Sep 30 2021 09:17:19 GMT+0200 (CEST),The main experiment item,yes,0,0,/Users/ethan/Documents/GitHub/OpenSesame/Sternberg/experiment_files,0,0,0,no,mono,no,18,no,white,no,no,768,103,3.6.1,legacy,legacy,7 6 4 8 1 2,osweb,1.4.0,1,0,n,37,,0,left,space,,space,space,space,left,542,42642,,21993,16770,15957,542,2,legacy,738,1280,24,800,24,0,23,1280,1632986281839,6,1024,2,48000,-16,experiment,1,odd,MacIntel,9,677908,387000,,674643,75,675676,645311,75,22096,113689,679911,676693,680459,75,679911,Sternberg_updated,77,70955,97,yes,1024
80,80,731,731,black,no,experiment,Mozilla,Netscape,"5.0 (Macintosh; Intel Mac OS X 10_14_6) AppleWebKit/605.1.15 (KHTML, like Gecko) Version/14.1.2 Safari/605.1.15",legacy,legacy,legacy,0,uniform,1,1,left,97,97,97,97,0,0,0,97,97,0,0,0,97,97,97,0,0,97,97,0,30-08-21,30-08-21,09:17:19,Thu Sep 30 2021 09:17:19 GMT+0200 (CEST),The main experiment item,yes,0,0,/Users/ethan/Documents/GitHub/OpenSesame/Sternberg/experiment_files,0,0,0,no,mono,no,18,no,white,no,no,768,103,3.6.1,legacy,legacy,9 8 2 7 4,osweb,1.4.0,1,0,n,37,,0,left,space,space,space,space,space,left,659,42642,14829,21993,16770,15957,659,2,legacy,738,1280,24,800,24,0,23,1280,1632986281839,5,1024,2,48000,-16,experiment,1,odd,MacIntel,5,698578,387000,681483,680462,75,696345,645311,75,22096,113689,700591,697363,701253,75,700590,Sternberg_updated,78,71614,98,yes,1024
80,80,730,730,black,no,experiment,Mozilla,Netscape,"5.0 (Macintosh; Intel Mac OS X 10_14_6) AppleWebKit/605.1.15 (KHTML, like Gecko) Version/14.1.2 Safari/605.1.15",legacy,legacy,legacy,0,uniform,1,1,right,98,98,98,98,0,0,0,98,98,0,0,0,98,98,98,0,0,98,98,0,30-08-21,30-08-21,09:17:19,Thu Sep 30 2021 09:17:19 GMT+0200 (CEST),The main experiment item,yes,0,0,/Users/ethan/Documents/GitHub/OpenSesame/Sternberg/experiment_files,0,0,0,no,mono,no,18,no,white,no,no,768,103,3.6.1,legacy,legacy,2 5 4 8 7,osweb,1.4.0,1,3,y,37,,0,right,space,space,space,space,space,right,672,42642,14829,21993,16770,15957,672,2,legacy,738,1280,24,800,24,0,23,1280,1632986281839,5,1024,2,48000,-16,experiment,1,odd,MacIntel,4,704523,387000,681483,701256,75,702290,645311,75,22096,113689,706526,703308,707207,75,706526,Sternberg_updated,79,72286,99,yes,1024
80,80,729,729,black,no,experiment,Mozilla,Netscape,"5.0 (Macintosh; Intel Mac OS X 10_14_6) AppleWebKit/605.1.15 (KHTML, like Gecko) Version/14.1.2 Safari/605.1.15",legacy,legacy,legacy,0,uniform,1,1,left,99,99,99,99,0,0,0,99,99,0,0,0,99,99,99,0,0,99,99,0,30-08-21,30-08-21,09:17:19,Thu Sep 30 2021 09:17:19 GMT+0200 (CEST),The main experiment item,yes,0,0,/Users/ethan/Documents/GitHub/OpenSesame/Sternberg/experiment_files,0,0,0,no,mono,no,18,no,white,no,no,768,103,3.6.1,legacy,legacy,1,osweb,1.4.0,1,0,n,37,,0,left,space,space,space,space,space,left,575,42642,14829,21993,16770,15957,575,2,legacy,738,1280,24,800,24,0,23,1280,1632986281839,1,1024,2,48000,-16,experiment,1,odd,MacIntel,7,710473,387000,681483,707210,75,708243,645311,75,22096,113689,712476,709258,713056,75,712476,Sternberg_updated,80,72861,100,yes,1024
80,80,727,727,black,no,experiment,Mozilla,Netscape,"5.0 (Macintosh; Intel Mac OS X 10_14_6) AppleWebKit/605.1.15 (KHTML, like Gecko) Version/14.1.2 Safari/605.1.15",legacy,legacy,legacy,0,uniform,1,1,right,100,100,100,100,0,0,0,100,100,0,0,0,100,100,100,0,0,100,100,0,30-08-21,30-08-21,09:17:19,Thu Sep 30 2021 09:17:19 GMT+0200 (CEST),The main experiment item,yes,0,0,/Users/ethan/Documents/GitHub/OpenSesame/Sternberg/experiment_files,0,0,0,no,mono,no,18,no,white,no,no,768,103,3.6.1,legacy,legacy,4 1 5,osweb,1.4.0,1,2,y,37,,0,right,space,space,space,space,space,right,557,42642,14829,21993,16770,15957,557,2,legacy,738,1280,24,800,24,0,23,1280,1632986281839,3,1024,2,48000,-16,experiment,1,odd,MacIntel,1,716317,387000,681483,713059,75,714084,645311,75,22096,113689,718321,715103,718884,75,718321,Sternberg_updated,81,73418,101,yes,1024
80,80,725,725,black,no,experiment,Mozilla,Netscape,"5.0 (Macintosh; Intel Mac OS X 10_14_6) AppleWebKit/605.1.15 (KHTML, like Gecko) Version/14.1.2 Safari/605.1.15",legacy,legacy,legacy,0,uniform,1,1,right,101,101,101,101,0,0,0,101,101,0,0,0,101,101,101,0,0,101,101,0,30-08-21,30-08-21,09:17:19,Thu Sep 30 2021 09:17:19 GMT+0200 (CEST),The main experiment item,yes,0,0,/Users/ethan/Documents/GitHub/OpenSesame/Sternberg/experiment_files,0,0,0,no,mono,no,18,no,white,no,no,768,103,3.6.1,legacy,legacy,7 8 6 3 1,osweb,1.4.0,1,5,y,37,,0,right,space,space,space,space,space,right,539,42642,14829,21993,16770,15957,539,2,legacy,738,1280,24,800,24,0,23,1280,1632986281839,5,1024,2,48000,-16,experiment,1,odd,MacIntel,1,722154,387000,681483,718887,75,719921,645311,75,22096,113689,724174,720939,724721,75,724174,Sternberg_updated,82,73957,102,yes,1024
81,81,723,723,black,no,experiment,Mozilla,Netscape,"5.0 (Macintosh; Intel Mac OS X 10_14_6) AppleWebKit/605.1.15 (KHTML, like Gecko) Version/14.1.2 Safari/605.1.15",legacy,legacy,legacy,0,uniform,1,1,right,102,102,102,102,0,0,0,102,102,0,0,0,102,102,102,0,0,102,102,0,30-08-21,30-08-21,09:17:19,Thu Sep 30 2021 09:17:19 GMT+0200 (CEST),The main experiment item,yes,0,0,/Users/ethan/Documents/GitHub/OpenSesame/Sternberg/experiment_files,0,0,0,no,mono,no,18,no,white,no,no,768,103,3.6.1,legacy,legacy,2 6 1 7 4,osweb,1.4.0,1,2,y,37,,0,right,space,space,space,space,space,right,535,42642,14829,21993,16770,15957,535,2,legacy,738,1280,24,800,24,0,23,1280,1632986281839,5,1024,2,48000,-16,experiment,1,odd,MacIntel,6,727990,387000,681483,724725,75,725756,645311,75,22096,113689,730010,726775,730557,75,730010,Sternberg_updated,83,74492,103,yes,1024
81,81,721,721,black,no,experiment,Mozilla,Netscape,"5.0 (Macintosh; Intel Mac OS X 10_14_6) AppleWebKit/605.1.15 (KHTML, like Gecko) Version/14.1.2 Safari/605.1.15",legacy,legacy,legacy,0,uniform,1,1,left,103,103,103,103,0,0,0,103,103,0,0,0,103,103,103,0,0,103,103,0,30-08-21,30-08-21,09:17:19,Thu Sep 30 2021 09:17:19 GMT+0200 (CEST),The main experiment item,yes,0,0,/Users/ethan/Documents/GitHub/OpenSesame/Sternberg/experiment_files,0,0,0,no,mono,no,18,no,white,no,no,768,103,3.6.1,legacy,legacy,5,osweb,1.4.0,1,0,n,37,,0,left,space,space,space,space,space,left,510,42642,14829,21993,16770,15957,510,2,legacy,738,1280,24,800,24,0,23,1280,1632986281839,1,1024,2,48000,-16,experiment,1,odd,MacIntel,8,733825,387000,681483,730561,75,731593,645311,75,22096,113689,735834,732611,736359,75,735834,Sternberg_updated,84,75002,104,yes,1024
81,81,720,720,black,no,experiment,Mozilla,Netscape,"5.0 (Macintosh; Intel Mac OS X 10_14_6) AppleWebKit/605.1.15 (KHTML, like Gecko) Version/14.1.2 Safari/605.1.15",legacy,legacy,legacy,0,uniform,1,1,left,104,104,104,104,0,0,0,104,104,0,0,0,104,104,104,0,0,104,104,0,30-08-21,30-08-21,09:17:19,Thu Sep 30 2021 09:17:19 GMT+0200 (CEST),The main experiment item,yes,0,0,/Users/ethan/Documents/GitHub/OpenSesame/Sternberg/experiment_files,0,0,0,no,mono,no,18,no,white,no,no,768,103,3.6.1,legacy,legacy,3 4 9 6 7 8,osweb,1.4.0,1,0,n,37,,0,left,space,space,space,space,space,left,648,42642,14829,21993,16770,15957,648,2,legacy,738,1280,24,800,24,0,23,1280,1632986281839,6,1024,2,48000,-16,experiment,1,odd,MacIntel,2,739629,387000,681483,736364,75,737398,645311,75,22096,113689,741649,738414,742313,75,741648,Sternberg_updated,85,75650,105,yes,1024
81,81,719,719,black,no,experiment,Mozilla,Netscape,"5.0 (Macintosh; Intel Mac OS X 10_14_6) AppleWebKit/605.1.15 (KHTML, like Gecko) Version/14.1.2 Safari/605.1.15",legacy,legacy,legacy,0,uniform,1,1,left,105,105,105,105,0,0,0,105,105,0,0,0,105,105,105,0,0,105,105,0,30-08-21,30-08-21,09:17:19,Thu Sep 30 2021 09:17:19 GMT+0200 (CEST),The main experiment item,yes,0,0,/Users/ethan/Documents/GitHub/OpenSesame/Sternberg/experiment_files,0,0,0,no,mono,no,18,no,white,no,no,768,103,3.6.1,legacy,legacy,7 1,osweb,1.4.0,1,0,n,37,,0,left,space,space,space,space,space,left,536,42642,14829,21993,16770,15957,536,2,legacy,738,1280,24,800,24,0,23,1280,1632986281839,2,1024,2,48000,-16,experiment,1,odd,MacIntel,8,745581,387000,681483,742317,75,743350,645311,75,22096,113689,747585,744366,748132,75,747585,Sternberg_updated,86,76186,106,yes,1024
81,81,717,717,black,no,experiment,Mozilla,Netscape,"5.0 (Macintosh; Intel Mac OS X 10_14_6) AppleWebKit/605.1.15 (KHTML, like Gecko) Version/14.1.2 Safari/605.1.15",legacy,legacy,legacy,0,uniform,1,1,right,106,106,106,106,0,0,0,106,106,0,0,0,106,106,106,0,0,106,106,0,30-08-21,30-08-21,09:17:19,Thu Sep 30 2021 09:17:19 GMT+0200 (CEST),The main experiment item,yes,0,0,/Users/ethan/Documents/GitHub/OpenSesame/Sternberg/experiment_files,0,0,0,no,mono,no,18,no,white,no,no,768,103,3.6.1,legacy,legacy,4 1 8 7 5,osweb,1.4.0,1,3,y,37,,0,right,space,space,space,space,space,right,515,42642,14829,21993,16770,15957,515,2,legacy,738,1280,24,800,24,0,23,1280,1632986281839,5,1024,2,48000,-16,experiment,1,odd,MacIntel,8,751401,387000,681483,748136,75,749168,645311,75,22096,113689,753421,750186,753952,75,753421,Sternberg_updated,87,76701,107,yes,1024
81,81,715,715,black,no,experiment,Mozilla,Netscape,"5.0 (Macintosh; Intel Mac OS X 10_14_6) AppleWebKit/605.1.15 (KHTML, like Gecko) Version/14.1.2 Safari/605.1.15",legacy,legacy,legacy,0,uniform,1,1,left,107,107,107,107,0,0,0,107,107,0,0,0,107,107,107,0,0,107,107,0,30-08-21,30-08-21,09:17:19,Thu Sep 30 2021 09:17:19 GMT+0200 (CEST),The main experiment item,yes,0,0,/Users/ethan/Documents/GitHub/OpenSesame/Sternberg/experiment_files,0,0,0,no,mono,no,18,no,white,no,no,768,103,3.6.1,legacy,legacy,2 5 1 4,osweb,1.4.0,1,0,n,37,,0,left,space,space,space,space,space,left,567,42642,14829,21993,16770,15957,567,2,legacy,738,1280,24,800,24,0,23,1280,1632986281839,4,1024,2,48000,-16,experiment,1,odd,MacIntel,6,757220,387000,681483,753954,75,754987,645311,75,22096,113689,759224,756005,759804,75,759224,Sternberg_updated,88,77268,108,yes,1024
82,82,715,715,black,no,experiment,Mozilla,Netscape,"5.0 (Macintosh; Intel Mac OS X 10_14_6) AppleWebKit/605.1.15 (KHTML, like Gecko) Version/14.1.2 Safari/605.1.15",legacy,legacy,legacy,0,uniform,1,1,right,108,108,108,108,0,0,0,108,108,0,0,0,108,108,108,0,0,108,108,0,30-08-21,30-08-21,09:17:19,Thu Sep 30 2021 09:17:19 GMT+0200 (CEST),The main experiment item,yes,0,0,/Users/ethan/Documents/GitHub/OpenSesame/Sternberg/experiment_files,0,0,0,no,mono,no,18,no,white,no,no,768,103,3.6.1,legacy,legacy,8 5 3 7 4 6,osweb,1.4.0,1,6,y,37,,0,right,space,space,space,space,space,right,649,42642,14829,21993,16770,15957,649,2,legacy,738,1280,24,800,24,0,23,1280,1632986281839,6,1024,2,48000,-16,experiment,1,odd,MacIntel,6,763073,387000,681483,759808,75,760840,645311,75,22096,113689,765076,761859,765740,75,765076,Sternberg_updated,89,77917,109,yes,1024
82,82,715,715,black,no,experiment,Mozilla,Netscape,"5.0 (Macintosh; Intel Mac OS X 10_14_6) AppleWebKit/605.1.15 (KHTML, like Gecko) Version/14.1.2 Safari/605.1.15",legacy,legacy,legacy,0,uniform,1,1,left,109,109,109,109,0,0,0,109,109,0,0,0,109,109,109,0,0,109,109,0,30-08-21,30-08-21,09:17:19,Thu Sep 30 2021 09:17:19 GMT+0200 (CEST),The main experiment item,yes,0,0,/Users/ethan/Documents/GitHub/OpenSesame/Sternberg/experiment_files,0,0,0,no,mono,no,18,no,white,no,no,768,103,3.6.1,legacy,legacy,1 5 3 2 8,osweb,1.4.0,1,0,n,37,,0,left,space,space,space,space,space,left,773,42642,14829,21993,16770,15957,773,2,legacy,738,1280,24,800,24,0,23,1280,1632986281839,5,1024,2,48000,-16,experiment,1,odd,MacIntel,4,769026,387000,681483,765744,75,766797,645311,75,22096,113689,771046,767811,771826,75,771046,Sternberg_updated,90,78690,110,yes,1024
82,82,714,714,black,no,experiment,Mozilla,Netscape,"5.0 (Macintosh; Intel Mac OS X 10_14_6) AppleWebKit/605.1.15 (KHTML, like Gecko) Version/14.1.2 Safari/605.1.15",legacy,legacy,legacy,0,uniform,1,1,left,110,110,110,110,0,0,0,110,110,0,0,0,110,110,110,0,0,110,110,0,30-08-21,30-08-21,09:17:19,Thu Sep 30 2021 09:17:19 GMT+0200 (CEST),The main experiment item,yes,0,0,/Users/ethan/Documents/GitHub/OpenSesame/Sternberg/experiment_files,0,0,0,no,mono,no,18,no,white,no,no,768,103,3.6.1,legacy,legacy,1 3 2 6 9,osweb,1.4.0,1,0,n,37,,0,left,space,space,space,space,space,left,536,42642,14829,21993,16770,15957,536,2,legacy,738,1280,24,800,24,0,23,1280,1632986281839,5,1024,2,48000,-16,experiment,1,odd,MacIntel,5,775091,387000,681483,771830,75,772863,645311,75,22096,113689,777111,773876,777658,75,777111,Sternberg_updated,91,79226,111,yes,1024
82,82,714,714,black,no,experiment,Mozilla,Netscape,"5.0 (Macintosh; Intel Mac OS X 10_14_6) AppleWebKit/605.1.15 (KHTML, like Gecko) Version/14.1.2 Safari/605.1.15",legacy,legacy,legacy,0,uniform,1,1,right,111,111,111,111,0,0,0,111,111,0,0,0,111,111,111,0,0,111,111,0,30-08-21,30-08-21,09:17:19,Thu Sep 30 2021 09:17:19 GMT+0200 (CEST),The main experiment item,yes,0,0,/Users/ethan/Documents/GitHub/OpenSesame/Sternberg/experiment_files,0,0,0,no,mono,no,18,no,white,no,no,768,103,3.6.1,legacy,legacy,9 5 3 8 4,osweb,1.4.0,1,1,y,37,,0,right,space,space,space,space,space,right,716,42642,14829,21993,16770,15957,716,2,legacy,738,1280,24,800,24,0,23,1280,1632986281839,5,1024,2,48000,-16,experiment,1,odd,MacIntel,9,780924,387000,681483,777661,75,778694,645311,75,22096,113689,782943,779709,783674,75,782943,Sternberg_updated,92,79942,112,yes,1024
82,82,712,712,black,no,experiment,Mozilla,Netscape,"5.0 (Macintosh; Intel Mac OS X 10_14_6) AppleWebKit/605.1.15 (KHTML, like Gecko) Version/14.1.2 Safari/605.1.15",legacy,legacy,legacy,0,uniform,1,1,right,112,112,112,112,0,0,0,112,112,0,0,0,112,112,112,0,0,112,112,0,30-08-21,30-08-21,09:17:19,Thu Sep 30 2021 09:17:19 GMT+0200 (CEST),The main experiment item,yes,0,0,/Users/ethan/Documents/GitHub/OpenSesame/Sternberg/experiment_files,0,0,0,no,mono,no,18,no,white,no,no,768,103,3.6.1,legacy,legacy,8,osweb,1.4.0,1,1,y,37,,0,right,space,space,space,space,space,right,482,42642,14829,21993,16770,15957,482,2,legacy,738,1280,24,800,24,0,23,1280,1632986281839,1,1024,2,48000,-16,experiment,1,odd,MacIntel,8,786940,387000,681483,783678,75,784707,645311,75,22096,113689,788955,785725,789452,75,788955,Sternberg_updated,93,80424,113,yes,1024
82,82,711,711,black,no,experiment,Mozilla,Netscape,"5.0 (Macintosh; Intel Mac OS X 10_14_6) AppleWebKit/605.1.15 (KHTML, like Gecko) Version/14.1.2 Safari/605.1.15",legacy,legacy,legacy,0,uniform,1,1,right,113,113,113,113,0,0,0,113,113,0,0,0,113,113,113,0,0,113,113,0,30-08-21,30-08-21,09:17:19,Thu Sep 30 2021 09:17:19 GMT+0200 (CEST),The main experiment item,yes,0,0,/Users/ethan/Documents/GitHub/OpenSesame/Sternberg/experiment_files,0,0,0,no,mono,no,18,no,white,no,no,768,103,3.6.1,legacy,legacy,6 2,osweb,1.4.0,1,1,y,37,,0,right,space,space,space,space,space,right,593,42642,14829,21993,16770,15957,593,2,legacy,738,1280,24,800,24,0,23,1280,1632986281839,2,1024,2,48000,-16,experiment,1,odd,MacIntel,6,792721,387000,681483,789456,75,790488,645311,75,22096,113689,794739,791506,795335,75,794739,Sternberg_updated,94,81017,114,yes,1024
83,83,710,710,black,no,experiment,Mozilla,Netscape,"5.0 (Macintosh; Intel Mac OS X 10_14_6) AppleWebKit/605.1.15 (KHTML, like Gecko) Version/14.1.2 Safari/605.1.15",legacy,legacy,legacy,0,uniform,1,1,left,114,114,114,114,0,0,0,114,114,0,0,0,114,114,114,0,0,114,114,0,30-08-21,30-08-21,09:17:19,Thu Sep 30 2021 09:17:19 GMT+0200 (CEST),The main experiment item,yes,0,0,/Users/ethan/Documents/GitHub/OpenSesame/Sternberg/experiment_files,0,0,0,no,mono,no,18,no,white,no,no,768,103,3.6.1,legacy,legacy,6 9 7 3 8 2,osweb,1.4.0,1,0,n,37,,0,left,space,space,space,space,space,left,602,42642,14829,21993,16770,15957,602,2,legacy,738,1280,24,800,24,0,23,1280,1632986281839,6,1024,2,48000,-16,experiment,1,odd,MacIntel,5,798605,387000,681483,795338,75,796372,645311,75,22096,113689,800608,797390,801222,75,800608,Sternberg_updated,95,81619,115,yes,1024
83,83,708,708,black,no,experiment,Mozilla,Netscape,"5.0 (Macintosh; Intel Mac OS X 10_14_6) AppleWebKit/605.1.15 (KHTML, like Gecko) Version/14.1.2 Safari/605.1.15",legacy,legacy,legacy,0,uniform,1,1,right,115,115,115,115,0,0,0,115,115,0,0,0,115,115,115,0,0,115,115,0,30-08-21,30-08-21,09:17:19,Thu Sep 30 2021 09:17:19 GMT+0200 (CEST),The main experiment item,yes,0,0,/Users/ethan/Documents/GitHub/OpenSesame/Sternberg/experiment_files,0,0,0,no,mono,no,18,no,white,no,no,768,103,3.6.1,legacy,legacy,9 3 1 2 5,osweb,1.4.0,1,4,y,37,,0,right,space,space,space,space,space,right,494,42642,14829,21993,16770,15957,494,2,legacy,738,1280,24,800,24,0,23,1280,1632986281839,5,1024,2,48000,-16,experiment,1,odd,MacIntel,2,804490,387000,681483,801226,75,802259,645311,75,22096,113689,806493,803276,806992,75,806493,Sternberg_updated,96,82113,116,yes,1024
83,83,711,711,black,no,experiment,Mozilla,Netscape,"5.0 (Macintosh; Intel Mac OS X 10_14_6) AppleWebKit/605.1.15 (KHTML, like Gecko) Version/14.1.2 Safari/605.1.15",legacy,legacy,legacy,0,uniform,1,1,left,116,116,116,116,0,0,0,116,116,0,0,0,116,116,116,0,0,116,116,0,30-08-21,30-08-21,09:17:19,Thu Sep 30 2021 09:17:19 GMT+0200 (CEST),The main experiment item,yes,0,0,/Users/ethan/Documents/GitHub/OpenSesame/Sternberg/experiment_files,0,0,0,no,mono,no,18,no,white,no,no,768,103,3.6.1,legacy,legacy,6 9 4 5 3 2,osweb,1.4.0,1,0,n,37,,0,left,space,space,space,space,space,left,1034,42642,14829,21993,16770,15957,1034,2,legacy,738,1280,24,800,24,0,23,1280,1632986281839,6,1024,2,48000,-16,experiment,1,odd,MacIntel,8,810265,387000,681483,806995,75,808028,645311,75,22096,113689,812280,809046,813328,75,812280,Sternberg_updated,97,83147,117,yes,1024
83,83,708,708,black,no,experiment,Mozilla,Netscape,"5.0 (Macintosh; Intel Mac OS X 10_14_6) AppleWebKit/605.1.15 (KHTML, like Gecko) Version/14.1.2 Safari/605.1.15",legacy,legacy,legacy,0,uniform,1,1,right,117,117,117,117,0,0,0,117,117,0,0,0,117,117,117,0,0,117,117,0,30-08-21,30-08-21,09:17:19,Thu Sep 30 2021 09:17:19 GMT+0200 (CEST),The main experiment item,yes,0,0,/Users/ethan/Documents/GitHub/OpenSesame/Sternberg/experiment_files,0,0,0,no,mono,no,18,no,white,no,no,768,103,3.6.1,legacy,legacy,7,osweb,1.4.0,1,1,y,37,,0,right,space,space,space,space,space,right,445,42642,14829,21993,16770,15957,445,2,legacy,738,1280,24,800,24,0,23,1280,1632986281839,1,1024,2,48000,-16,experiment,1,odd,MacIntel,7,816597,387000,681483,813332,75,814365,645311,75,22096,113689,818617,815382,819063,75,818617,Sternberg_updated,98,83592,118,yes,1024
83,83,708,708,black,no,experiment,Mozilla,Netscape,"5.0 (Macintosh; Intel Mac OS X 10_14_6) AppleWebKit/605.1.15 (KHTML, like Gecko) Version/14.1.2 Safari/605.1.15",legacy,legacy,legacy,0,uniform,1,1,right,118,118,118,118,0,0,0,118,118,0,0,0,118,118,118,0,0,118,118,0,30-08-21,30-08-21,09:17:19,Thu Sep 30 2021 09:17:19 GMT+0200 (CEST),The main experiment item,yes,0,0,/Users/ethan/Documents/GitHub/OpenSesame/Sternberg/experiment_files,0,0,0,no,mono,no,18,no,white,no,no,768,103,3.6.1,legacy,legacy,3 4 9 6 2 9,osweb,1.4.0,1,5,y,37,,0,right,space,space,space,space,space,right,644,42642,14829,21993,16770,15957,644,2,legacy,738,1280,24,800,24,0,23,1280,1632986281839,6,1024,2,48000,-16,experiment,1,odd,MacIntel,2,822350,387000,681483,819066,75,820120,645311,75,22096,113689,824369,821135,825016,75,824369,Sternberg_updated,99,84236,119,yes,1024
83,83,707,707,black,no,experiment,Mozilla,Netscape,"5.0 (Macintosh; Intel Mac OS X 10_14_6) AppleWebKit/605.1.15 (KHTML, like Gecko) Version/14.1.2 Safari/605.1.15",legacy,legacy,legacy,0,uniform,1,1,right,119,119,119,119,0,0,0,119,119,0,0,0,119,119,119,0,0,119,119,0,30-08-21,30-08-21,09:17:19,Thu Sep 30 2021 09:17:19 GMT+0200 (CEST),The main experiment item,yes,0,0,/Users/ethan/Documents/GitHub/OpenSesame/Sternberg/experiment_files,0,0,0,no,mono,no,18,no,white,no,no,768,103,3.6.1,legacy,legacy,4 3 2 5 8,osweb,1.4.0,1,2,y,37,,0,right,space,space,space,space,space,right,633,42642,14829,21993,16770,15957,633,2,legacy,738,1280,24,800,24,0,23,1280,1632986281839,5,1024,2,48000,-16,experiment,1,odd,MacIntel,3,828286,387000,681483,825019,75,826053,645311,75,22096,113689,830306,827071,830953,75,830306,Sternberg_updated,100,84869,120,yes,1024
83,83,707,707,black,no,experiment,Mozilla,Netscape,"5.0 (Macintosh; Intel Mac OS X 10_14_6) AppleWebKit/605.1.15 (KHTML, like Gecko) Version/14.1.2 Safari/605.1.15",legacy,legacy,legacy,0,uniform,1,1,right,120,120,120,120,0,0,0,120,120,0,0,0,120,120,120,0,0,120,120,0,30-08-21,30-08-21,09:17:19,Thu Sep 30 2021 09:17:19 GMT+0200 (CEST),The main experiment item,yes,0,0,/Users/ethan/Documents/GitHub/OpenSesame/Sternberg/experiment_files,0,0,0,no,mono,no,18,no,white,no,no,768,103,3.6.1,legacy,legacy,3 2 1 4 7,osweb,1.4.0,1,2,y,37,,0,right,space,space,space,space,space,right,618,42642,14829,21993,16770,15957,618,2,legacy,738,1280,24,800,24,0,23,1280,1632986281839,5,1024,2,48000,-16,experiment,1,odd,MacIntel,2,834238,387000,681483,830957,75,832009,645311,75,22096,113689,836242,833024,836872,75,836242,Sternberg_updated,101,85487,121,yes,1024
