acc,accuracy,average_response_time,avg_rt,background,bidi,block,browser_codename,browser_name,browser_version,canvas_backend,clock_backend,color_backend,compensation,coordinates,correct,correct_keyboard_response,correct_response,count_ISI,count_break1,count_break_2,count_correct_feedback,count_credits,count_experiment,count_experimentLoop,count_fixation,count_incorrect_feedback,count_instructions1a,count_instructions1b,count_instructions2,count_keyboard_response,count_memory_set,count_new_logger,count_osweb,count_practiceLoop,count_practiceSequence,count_probe,count_thankYou,date_startdate,date_startdateUTC,date_starttime,datetime,description,disable_garbage_collection,experiment_debug,experiment_parameters,experiment_path,experiment_pilot,experiment_taskname,experiment_taskversion,font_bold,font_family,font_italic,font_size,font_underline,foreground,form_clicks,fullscreen,height,jatosStudyResultId,jatosVersion,keyboard_backend,mouse_backend,numberSet,opensesame_codename,opensesame_version,penwidth,posInSet,present,queryParams_batchId,queryParams_generalMultiple,repeat_cycle,response,response_break1,response_break_2,response_instructions1a,response_instructions1b,response_instructions2,response_keyboard_response,response_time,response_time_break1,response_time_break_2,response_time_instructions1a,response_time_instructions1b,response_time_instructions2,response_time_keyboard_response,round_decimals,sampler_backend,screen_availableHeight,screen_availableWidth,screen_colorDepth,screen_height,screen_pixelDepth,screen_screenX,screen_screenY,screen_width,sessionid,setSize,sound_buf_size,sound_channels,sound_freq,sound_sample_size,start,subject_nr,subject_parity,system_os,target,time_ISI,time_break1,time_break_2,time_correct_feedback,time_experimentLoop,time_fixation,time_incorrect_feedback,time_instructions1a,time_instructions1b,time_instructions2,time_keyboard_response,time_memory_set,time_new_logger,time_practiceLoop,time_probe,title,total_correct,total_response_time,total_responses,uniform_coordinates,width
100,100,1419,1419,black,no,practice,Mozilla,Netscape,"5.0 (Windows NT 10.0; Win64; x64) AppleWebKit/537.36 (KHTML, like Gecko) Chrome/94.0.4606.61 Safari/537.36",legacy,legacy,legacy,0,uniform,1,1,left,0,0,0,0,0,0,0,0,0,0,0,0,0,0,0,0,0,0,0,0,30-08-21,30-08-21,09:18:10,Thu Sep 30 2021 09:18:10 GMT+0200 (hora de verano de Europa central),The main experiment item,yes,0,0,/Users/ethan/Documents/GitHub/OpenSesame/Sternberg/experiment_files,0,0,0,no,mono,no,18,no,white,no,no,768,108,3.6.1,legacy,legacy,9 6 7 4 5,osweb,1.4.0,1,0,n,37,,0,left,,,right,right,,left,1419,,,20405,10982,,1419,2,legacy,824,1536,24,864,24,0,0,1536,1632986343797,5,1024,2,48000,-16,experiment,0,even,Win32,3,33811,,,,111,31584,,111,20518,,35831,32595,37261,111,35830,Sternberg_updated,1,1419,1,yes,1024
50,50,1068,1068,black,no,practice,Mozilla,Netscape,"5.0 (Windows NT 10.0; Win64; x64) AppleWebKit/537.36 (KHTML, like Gecko) Chrome/94.0.4606.61 Safari/537.36",legacy,legacy,legacy,0,uniform,0,0,right,1,1,1,1,0,0,0,1,1,0,0,0,1,1,1,0,0,1,1,0,30-08-21,30-08-21,09:18:10,Thu Sep 30 2021 09:18:10 GMT+0200 (hora de verano de Europa central),The main experiment item,yes,0,0,/Users/ethan/Documents/GitHub/OpenSesame/Sternberg/experiment_files,0,0,0,no,mono,no,18,no,white,no,no,768,108,3.6.1,legacy,legacy,4 3 1 7 9 8,osweb,1.4.0,1,1,y,37,,0,left,,,right,right,,left,716,,,20405,10982,,716,2,legacy,824,1536,24,864,24,0,0,1536,1632986343797,6,1024,2,48000,-16,experiment,0,even,Win32,4,40529,,,37264,111,38312,,111,20518,,42545,39328,43277,111,42545,Sternberg_updated,1,2135,2,yes,1024
67,67,1045,1045,black,no,practice,Mozilla,Netscape,"5.0 (Windows NT 10.0; Win64; x64) AppleWebKit/537.36 (KHTML, like Gecko) Chrome/94.0.4606.61 Safari/537.36",legacy,legacy,legacy,0,uniform,1,1,left,2,2,2,2,0,0,0,2,2,0,0,0,2,2,2,0,0,2,2,0,30-08-21,30-08-21,09:18:10,Thu Sep 30 2021 09:18:10 GMT+0200 (hora de verano de Europa central),The main experiment item,yes,0,0,/Users/ethan/Documents/GitHub/OpenSesame/Sternberg/experiment_files,0,0,0,no,mono,no,18,no,white,no,no,768,108,3.6.1,legacy,legacy,4 1 5,osweb,1.4.0,1,0,n,37,,0,left,,,right,right,,left,999,,,20405,10982,,999,2,legacy,824,1536,24,864,24,0,0,1536,1632986343797,3,1024,2,48000,-16,experiment,0,even,Win32,2,46544,,,37264,111,44323,43279,111,20518,,48561,45328,49561,111,48561,Sternberg_updated,2,3134,3,yes,1024
75,75,998,998,black,no,practice,Mozilla,Netscape,"5.0 (Windows NT 10.0; Win64; x64) AppleWebKit/537.36 (KHTML, like Gecko) Chrome/94.0.4606.61 Safari/537.36",legacy,legacy,legacy,0,uniform,1,1,right,3,3,3,3,0,0,0,3,3,0,0,0,3,3,3,0,0,3,3,0,30-08-21,30-08-21,09:18:10,Thu Sep 30 2021 09:18:10 GMT+0200 (hora de verano de Europa central),The main experiment item,yes,0,0,/Users/ethan/Documents/GitHub/OpenSesame/Sternberg/experiment_files,0,0,0,no,mono,no,18,no,white,no,no,768,108,3.6.1,legacy,legacy,4 8,osweb,1.4.0,1,1,y,37,,0,right,,,right,right,,right,857,,,20405,10982,,857,2,legacy,824,1536,24,864,24,0,0,1536,1632986343797,2,1024,2,48000,-16,experiment,0,even,Win32,4,52828,,,49562,111,50603,43279,111,20518,,54845,51612,55711,111,54845,Sternberg_updated,3,3991,4,yes,1024
80,80,943,943,black,no,practice,Mozilla,Netscape,"5.0 (Windows NT 10.0; Win64; x64) AppleWebKit/537.36 (KHTML, like Gecko) Chrome/94.0.4606.61 Safari/537.36",legacy,legacy,legacy,0,uniform,1,1,right,4,4,4,4,0,0,0,4,4,0,0,0,4,4,4,0,0,4,4,0,30-08-21,30-08-21,09:18:10,Thu Sep 30 2021 09:18:10 GMT+0200 (hora de verano de Europa central),The main experiment item,yes,0,0,/Users/ethan/Documents/GitHub/OpenSesame/Sternberg/experiment_files,0,0,0,no,mono,no,18,no,white,no,no,768,108,3.6.1,legacy,legacy,1 5 2 9,osweb,1.4.0,1,2,y,37,,0,right,,,right,right,,right,722,,,20405,10982,,722,2,legacy,824,1536,24,864,24,0,0,1536,1632986343797,4,1024,2,48000,-16,experiment,0,even,Win32,5,58978,,,55712,111,56753,43279,111,20518,,60979,57761,61711,111,60979,Sternberg_updated,4,4713,5,yes,1024
83,83,998,998,black,no,practice,Mozilla,Netscape,"5.0 (Windows NT 10.0; Win64; x64) AppleWebKit/537.36 (KHTML, like Gecko) Chrome/94.0.4606.61 Safari/537.36",legacy,legacy,legacy,0,uniform,1,1,right,5,5,5,5,0,0,0,5,5,0,0,0,5,5,5,0,0,5,5,0,30-08-21,30-08-21,09:18:10,Thu Sep 30 2021 09:18:10 GMT+0200 (hora de verano de Europa central),The main experiment item,yes,0,0,/Users/ethan/Documents/GitHub/OpenSesame/Sternberg/experiment_files,0,0,0,no,mono,no,18,no,white,no,no,768,108,3.6.1,legacy,legacy,6,osweb,1.4.0,1,1,y,37,,0,right,,,right,right,,right,1272,,,20405,10982,,1272,2,legacy,824,1536,24,864,24,0,0,1536,1632986343797,1,1024,2,48000,-16,experiment,0,even,Win32,6,64978,,,61712,111,62752,43279,111,20518,,66980,63762,68261,111,66980,Sternberg_updated,5,5985,6,yes,1024
86,86,931,931,black,no,practice,Mozilla,Netscape,"5.0 (Windows NT 10.0; Win64; x64) AppleWebKit/537.36 (KHTML, like Gecko) Chrome/94.0.4606.61 Safari/537.36",legacy,legacy,legacy,0,uniform,1,1,right,6,6,6,6,0,0,0,6,6,0,0,0,6,6,6,0,0,6,6,0,30-08-21,30-08-21,09:18:10,Thu Sep 30 2021 09:18:10 GMT+0200 (hora de verano de Europa central),The main experiment item,yes,0,0,/Users/ethan/Documents/GitHub/OpenSesame/Sternberg/experiment_files,0,0,0,no,mono,no,18,no,white,no,no,768,108,3.6.1,legacy,legacy,2 9 4,osweb,1.4.0,1,3,y,37,,0,right,,,right,right,,right,534,,,20405,10982,,534,2,legacy,824,1536,24,864,24,0,0,1536,1632986343797,3,1024,2,48000,-16,experiment,0,even,Win32,4,71513,,,68262,111,69302,43279,111,20518,,73528,70311,74077,111,73528,Sternberg_updated,6,6519,7,yes,1024
88,88,897,897,black,no,practice,Mozilla,Netscape,"5.0 (Windows NT 10.0; Win64; x64) AppleWebKit/537.36 (KHTML, like Gecko) Chrome/94.0.4606.61 Safari/537.36",legacy,legacy,legacy,0,uniform,1,1,left,7,7,7,7,0,0,0,7,7,0,0,0,7,7,7,0,0,7,7,0,30-08-21,30-08-21,09:18:10,Thu Sep 30 2021 09:18:10 GMT+0200 (hora de verano de Europa central),The main experiment item,yes,0,0,/Users/ethan/Documents/GitHub/OpenSesame/Sternberg/experiment_files,0,0,0,no,mono,no,18,no,white,no,no,768,108,3.6.1,legacy,legacy,3 1 9 4,osweb,1.4.0,1,0,n,37,,0,left,,,right,right,,left,655,,,20405,10982,,655,2,legacy,824,1536,24,864,24,0,0,1536,1632986343797,4,1024,2,48000,-16,experiment,0,even,Win32,6,77344,,,74079,111,75120,43279,111,20518,,79361,76128,80028,111,79361,Sternberg_updated,7,7174,8,yes,1024
89,89,888,888,black,no,practice,Mozilla,Netscape,"5.0 (Windows NT 10.0; Win64; x64) AppleWebKit/537.36 (KHTML, like Gecko) Chrome/94.0.4606.61 Safari/537.36",legacy,legacy,legacy,0,uniform,1,1,left,8,8,8,8,0,0,0,8,8,0,0,0,8,8,8,0,0,8,8,0,30-08-21,30-08-21,09:18:10,Thu Sep 30 2021 09:18:10 GMT+0200 (hora de verano de Europa central),The main experiment item,yes,0,0,/Users/ethan/Documents/GitHub/OpenSesame/Sternberg/experiment_files,0,0,0,no,mono,no,18,no,white,no,no,768,108,3.6.1,legacy,legacy,5,osweb,1.4.0,1,0,n,37,,0,left,,,right,right,,left,822,,,20405,10982,,822,2,legacy,824,1536,24,864,24,0,0,1536,1632986343797,1,1024,2,48000,-16,experiment,0,even,Win32,3,83294,,,80029,111,81070,43279,111,20518,,85313,82078,86144,111,85313,Sternberg_updated,8,7996,9,yes,1024
90,90,882,882,black,no,practice,Mozilla,Netscape,"5.0 (Windows NT 10.0; Win64; x64) AppleWebKit/537.36 (KHTML, like Gecko) Chrome/94.0.4606.61 Safari/537.36",legacy,legacy,legacy,0,uniform,1,1,left,9,9,9,9,0,0,0,9,9,0,0,0,9,9,9,0,0,9,9,0,30-08-21,30-08-21,09:18:10,Thu Sep 30 2021 09:18:10 GMT+0200 (hora de verano de Europa central),The main experiment item,yes,0,0,/Users/ethan/Documents/GitHub/OpenSesame/Sternberg/experiment_files,0,0,0,no,mono,no,18,no,white,no,no,768,108,3.6.1,legacy,legacy,5 7 8 4 1 2,osweb,1.4.0,1,0,n,37,,0,left,,,right,right,,left,827,,,20405,10982,,827,2,legacy,824,1536,24,864,24,0,0,1536,1632986343797,6,1024,2,48000,-16,experiment,0,even,Win32,6,89411,,,86146,111,87185,43279,111,20518,,91429,88194,92260,111,91429,Sternberg_updated,9,8823,10,yes,1024
91,91,883,883,black,no,practice,Mozilla,Netscape,"5.0 (Windows NT 10.0; Win64; x64) AppleWebKit/537.36 (KHTML, like Gecko) Chrome/94.0.4606.61 Safari/537.36",legacy,legacy,legacy,0,uniform,1,1,right,10,10,10,10,0,0,0,10,10,0,0,0,10,10,10,0,0,10,10,0,30-08-21,30-08-21,09:18:10,Thu Sep 30 2021 09:18:10 GMT+0200 (hora de verano de Europa central),The main experiment item,yes,0,0,/Users/ethan/Documents/GitHub/OpenSesame/Sternberg/experiment_files,0,0,0,no,mono,no,18,no,white,no,no,768,108,3.6.1,legacy,legacy,1 7 9 8 5,osweb,1.4.0,1,4,y,37,,0,right,,,right,right,,right,886,,,20405,10982,,886,2,legacy,824,1536,24,864,24,0,0,1536,1632986343797,5,1024,2,48000,-16,experiment,0,even,Win32,8,95528,,,92262,111,93304,43279,111,20518,,97544,94311,98444,111,97544,Sternberg_updated,10,9709,11,yes,1024
92,92,880,880,black,no,practice,Mozilla,Netscape,"5.0 (Windows NT 10.0; Win64; x64) AppleWebKit/537.36 (KHTML, like Gecko) Chrome/94.0.4606.61 Safari/537.36",legacy,legacy,legacy,0,uniform,1,1,left,11,11,11,11,0,0,0,11,11,0,0,0,11,11,11,0,0,11,11,0,30-08-21,30-08-21,09:18:10,Thu Sep 30 2021 09:18:10 GMT+0200 (hora de verano de Europa central),The main experiment item,yes,0,0,/Users/ethan/Documents/GitHub/OpenSesame/Sternberg/experiment_files,0,0,0,no,mono,no,18,no,white,no,no,768,108,3.6.1,legacy,legacy,2 1,osweb,1.4.0,1,0,n,37,,0,left,,,right,right,,left,846,,,20405,10982,,846,2,legacy,824,1536,24,864,24,0,0,1536,1632986343797,2,1024,2,48000,-16,experiment,0,even,Win32,5,101711,,,98445,111,99486,43279,111,20518,,103729,100496,104577,111,103729,Sternberg_updated,11,10555,12,yes,1024
92,92,873,873,black,no,experiment,Mozilla,Netscape,"5.0 (Windows NT 10.0; Win64; x64) AppleWebKit/537.36 (KHTML, like Gecko) Chrome/94.0.4606.61 Safari/537.36",legacy,legacy,legacy,0,uniform,1,1,left,12,12,12,12,0,0,0,12,12,0,0,0,12,12,12,0,0,12,12,0,30-08-21,30-08-21,09:18:10,Thu Sep 30 2021 09:18:10 GMT+0200 (hora de verano de Europa central),The main experiment item,yes,0,0,/Users/ethan/Documents/GitHub/OpenSesame/Sternberg/experiment_files,0,0,0,no,mono,no,18,no,white,no,no,768,108,3.6.1,legacy,legacy,6 2 9 3 8 4,osweb,1.4.0,1,0,n,37,,0,left,,,right,right,right,left,793,,,20405,10982,15087,793,2,legacy,824,1536,24,864,24,0,0,1536,1632986343797,6,1024,2,48000,-16,experiment,0,even,Win32,1,122944,,,104580,111,120719,43279,111,20518,105596,124961,121728,125761,111,124961,Sternberg_updated,12,11348,13,yes,1024
93,93,850,850,black,no,experiment,Mozilla,Netscape,"5.0 (Windows NT 10.0; Win64; x64) AppleWebKit/537.36 (KHTML, like Gecko) Chrome/94.0.4606.61 Safari/537.36",legacy,legacy,legacy,0,uniform,1,1,right,13,13,13,13,0,0,0,13,13,0,0,0,13,13,13,0,0,13,13,0,30-08-21,30-08-21,09:18:10,Thu Sep 30 2021 09:18:10 GMT+0200 (hora de verano de Europa central),The main experiment item,yes,0,0,/Users/ethan/Documents/GitHub/OpenSesame/Sternberg/experiment_files,0,0,0,no,mono,no,18,no,white,no,no,768,108,3.6.1,legacy,legacy,9 8 4,osweb,1.4.0,1,1,y,37,,0,right,,,right,right,right,right,553,,,20405,10982,15087,553,2,legacy,824,1536,24,864,24,0,0,1536,1632986343797,3,1024,2,48000,-16,experiment,0,even,Win32,9,129027,,,125763,111,126801,43279,111,20518,105596,131045,127811,131610,111,131045,Sternberg_updated,13,11901,14,yes,1024
93,93,847,847,black,no,experiment,Mozilla,Netscape,"5.0 (Windows NT 10.0; Win64; x64) AppleWebKit/537.36 (KHTML, like Gecko) Chrome/94.0.4606.61 Safari/537.36",legacy,legacy,legacy,0,uniform,1,1,right,14,14,14,14,0,0,0,14,14,0,0,0,14,14,14,0,0,14,14,0,30-08-21,30-08-21,09:18:10,Thu Sep 30 2021 09:18:10 GMT+0200 (hora de verano de Europa central),The main experiment item,yes,0,0,/Users/ethan/Documents/GitHub/OpenSesame/Sternberg/experiment_files,0,0,0,no,mono,no,18,no,white,no,no,768,108,3.6.1,legacy,legacy,3 5 9 6 2 4,osweb,1.4.0,1,1,y,37,,0,right,,,right,right,right,right,797,,,20405,10982,15087,797,2,legacy,824,1536,24,864,24,0,0,1536,1632986343797,6,1024,2,48000,-16,experiment,0,even,Win32,3,134862,,,131612,111,132649,43279,111,20518,105596,136878,133661,137677,111,136878,Sternberg_updated,14,12698,15,yes,1024
94,94,833,833,black,no,experiment,Mozilla,Netscape,"5.0 (Windows NT 10.0; Win64; x64) AppleWebKit/537.36 (KHTML, like Gecko) Chrome/94.0.4606.61 Safari/537.36",legacy,legacy,legacy,0,uniform,1,1,left,15,15,15,15,0,0,0,15,15,0,0,0,15,15,15,0,0,15,15,0,30-08-21,30-08-21,09:18:10,Thu Sep 30 2021 09:18:10 GMT+0200 (hora de verano de Europa central),The main experiment item,yes,0,0,/Users/ethan/Documents/GitHub/OpenSesame/Sternberg/experiment_files,0,0,0,no,mono,no,18,no,white,no,no,768,108,3.6.1,legacy,legacy,4 2 6 9,osweb,1.4.0,1,0,n,37,,0,left,,,right,right,right,left,622,,,20405,10982,15087,622,2,legacy,824,1536,24,864,24,0,0,1536,1632986343797,4,1024,2,48000,-16,experiment,0,even,Win32,7,140945,,,137678,111,138716,43279,111,20518,105596,142961,139728,143594,111,142961,Sternberg_updated,15,13320,16,yes,1024
88,88,829,829,black,no,experiment,Mozilla,Netscape,"5.0 (Windows NT 10.0; Win64; x64) AppleWebKit/537.36 (KHTML, like Gecko) Chrome/94.0.4606.61 Safari/537.36",legacy,legacy,legacy,0,uniform,0,0,right,16,16,16,16,0,0,0,16,16,0,0,0,16,16,16,0,0,16,16,0,30-08-21,30-08-21,09:18:10,Thu Sep 30 2021 09:18:10 GMT+0200 (hora de verano de Europa central),The main experiment item,yes,0,0,/Users/ethan/Documents/GitHub/OpenSesame/Sternberg/experiment_files,0,0,0,no,mono,no,18,no,white,no,no,768,108,3.6.1,legacy,legacy,6 7 9 3 1 2,osweb,1.4.0,1,1,y,37,,0,left,,,right,right,right,left,773,,,20405,10982,15087,773,2,legacy,824,1536,24,864,24,0,0,1536,1632986343797,6,1024,2,48000,-16,experiment,0,even,Win32,6,146861,,,143595,111,144640,43279,111,20518,105596,148878,145645,149661,111,148877,Sternberg_updated,15,14093,17,yes,1024
89,89,828,828,black,no,experiment,Mozilla,Netscape,"5.0 (Windows NT 10.0; Win64; x64) AppleWebKit/537.36 (KHTML, like Gecko) Chrome/94.0.4606.61 Safari/537.36",legacy,legacy,legacy,0,uniform,1,1,left,17,17,17,17,0,0,0,17,17,0,0,0,17,17,17,0,0,17,17,0,30-08-21,30-08-21,09:18:10,Thu Sep 30 2021 09:18:10 GMT+0200 (hora de verano de Europa central),The main experiment item,yes,0,0,/Users/ethan/Documents/GitHub/OpenSesame/Sternberg/experiment_files,0,0,0,no,mono,no,18,no,white,no,no,768,108,3.6.1,legacy,legacy,9,osweb,1.4.0,1,0,n,37,,0,left,,,right,right,right,left,815,,,20405,10982,15087,815,2,legacy,824,1536,24,864,24,0,0,1536,1632986343797,1,1024,2,48000,-16,experiment,0,even,Win32,6,152928,,,143595,111,150702,149662,111,20518,105596,154944,151711,155760,111,154944,Sternberg_updated,16,14908,18,yes,1024
89,89,815,815,black,no,experiment,Mozilla,Netscape,"5.0 (Windows NT 10.0; Win64; x64) AppleWebKit/537.36 (KHTML, like Gecko) Chrome/94.0.4606.61 Safari/537.36",legacy,legacy,legacy,0,uniform,1,1,right,18,18,18,18,0,0,0,18,18,0,0,0,18,18,18,0,0,18,18,0,30-08-21,30-08-21,09:18:10,Thu Sep 30 2021 09:18:10 GMT+0200 (hora de verano de Europa central),The main experiment item,yes,0,0,/Users/ethan/Documents/GitHub/OpenSesame/Sternberg/experiment_files,0,0,0,no,mono,no,18,no,white,no,no,768,108,3.6.1,legacy,legacy,2 6 1 7 4,osweb,1.4.0,1,2,y,37,,0,right,,,right,right,right,right,580,,,20405,10982,15087,580,2,legacy,824,1536,24,864,24,0,0,1536,1632986343797,5,1024,2,48000,-16,experiment,0,even,Win32,6,159028,,,155762,111,156803,149662,111,20518,105596,161045,157811,161627,111,161045,Sternberg_updated,17,15488,19,yes,1024
90,90,816,816,black,no,experiment,Mozilla,Netscape,"5.0 (Windows NT 10.0; Win64; x64) AppleWebKit/537.36 (KHTML, like Gecko) Chrome/94.0.4606.61 Safari/537.36",legacy,legacy,legacy,0,uniform,1,1,right,19,19,19,19,0,0,0,19,19,0,0,0,19,19,19,0,0,19,19,0,30-08-21,30-08-21,09:18:10,Thu Sep 30 2021 09:18:10 GMT+0200 (hora de verano de Europa central),The main experiment item,yes,0,0,/Users/ethan/Documents/GitHub/OpenSesame/Sternberg/experiment_files,0,0,0,no,mono,no,18,no,white,no,no,768,108,3.6.1,legacy,legacy,7 4 2 6 3 5,osweb,1.4.0,1,6,y,37,,0,right,,,right,right,right,right,832,,,20405,10982,15087,832,2,legacy,824,1536,24,864,24,0,0,1536,1632986343797,6,1024,2,48000,-16,experiment,0,even,Win32,5,164894,,,161628,111,162668,149662,111,20518,105596,166911,163677,167744,111,166911,Sternberg_updated,18,16320,20,yes,1024
90,90,810,810,black,no,experiment,Mozilla,Netscape,"5.0 (Windows NT 10.0; Win64; x64) AppleWebKit/537.36 (KHTML, like Gecko) Chrome/94.0.4606.61 Safari/537.36",legacy,legacy,legacy,0,uniform,1,1,right,20,20,20,20,0,0,0,20,20,0,0,0,20,20,20,0,0,20,20,0,30-08-21,30-08-21,09:18:10,Thu Sep 30 2021 09:18:10 GMT+0200 (hora de verano de Europa central),The main experiment item,yes,0,0,/Users/ethan/Documents/GitHub/OpenSesame/Sternberg/experiment_files,0,0,0,no,mono,no,18,no,white,no,no,768,108,3.6.1,legacy,legacy,2 8 5 1,osweb,1.4.0,1,4,y,37,,0,right,,,right,right,right,right,688,,,20405,10982,15087,688,2,legacy,824,1536,24,864,24,0,0,1536,1632986343797,4,1024,2,48000,-16,experiment,0,even,Win32,1,171010,,,167745,111,168786,149662,111,20518,105596,173027,169796,173727,111,173027,Sternberg_updated,19,17008,21,yes,1024
91,91,809,809,black,no,experiment,Mozilla,Netscape,"5.0 (Windows NT 10.0; Win64; x64) AppleWebKit/537.36 (KHTML, like Gecko) Chrome/94.0.4606.61 Safari/537.36",legacy,legacy,legacy,0,uniform,1,1,right,21,21,21,21,0,0,0,21,21,0,0,0,21,21,21,0,0,21,21,0,30-08-21,30-08-21,09:18:10,Thu Sep 30 2021 09:18:10 GMT+0200 (hora de verano de Europa central),The main experiment item,yes,0,0,/Users/ethan/Documents/GitHub/OpenSesame/Sternberg/experiment_files,0,0,0,no,mono,no,18,no,white,no,no,768,108,3.6.1,legacy,legacy,5 7 8 2 3 8,osweb,1.4.0,1,5,y,37,,0,right,,,right,right,right,right,791,,,20405,10982,15087,791,2,legacy,824,1536,24,864,24,0,0,1536,1632986343797,6,1024,2,48000,-16,experiment,0,even,Win32,3,176994,,,173730,111,174774,149662,111,20518,105596,179011,175778,179810,111,179011,Sternberg_updated,20,17799,22,yes,1024
91,91,793,793,black,no,experiment,Mozilla,Netscape,"5.0 (Windows NT 10.0; Win64; x64) AppleWebKit/537.36 (KHTML, like Gecko) Chrome/94.0.4606.61 Safari/537.36",legacy,legacy,legacy,0,uniform,1,1,right,22,22,22,22,0,0,0,22,22,0,0,0,22,22,22,0,0,22,22,0,30-08-21,30-08-21,09:18:10,Thu Sep 30 2021 09:18:10 GMT+0200 (hora de verano de Europa central),The main experiment item,yes,0,0,/Users/ethan/Documents/GitHub/OpenSesame/Sternberg/experiment_files,0,0,0,no,mono,no,18,no,white,no,no,768,108,3.6.1,legacy,legacy,7 6,osweb,1.4.0,1,2,y,37,,0,right,,,right,right,right,right,431,,,20405,10982,15087,431,2,legacy,824,1536,24,864,24,0,0,1536,1632986343797,2,1024,2,48000,-16,experiment,0,even,Win32,6,183077,,,179811,111,180859,149662,111,20518,105596,185095,181861,185527,111,185095,Sternberg_updated,21,18230,23,yes,1024
92,92,781,781,black,no,experiment,Mozilla,Netscape,"5.0 (Windows NT 10.0; Win64; x64) AppleWebKit/537.36 (KHTML, like Gecko) Chrome/94.0.4606.61 Safari/537.36",legacy,legacy,legacy,0,uniform,1,1,left,23,23,23,23,0,0,0,23,23,0,0,0,23,23,23,0,0,23,23,0,30-08-21,30-08-21,09:18:10,Thu Sep 30 2021 09:18:10 GMT+0200 (hora de verano de Europa central),The main experiment item,yes,0,0,/Users/ethan/Documents/GitHub/OpenSesame/Sternberg/experiment_files,0,0,0,no,mono,no,18,no,white,no,no,768,108,3.6.1,legacy,legacy,5 7 3,osweb,1.4.0,1,0,n,37,,0,left,,,right,right,right,left,511,,,20405,10982,15087,511,2,legacy,824,1536,24,864,24,0,0,1536,1632986343797,3,1024,2,48000,-16,experiment,0,even,Win32,9,188796,,,185528,111,186567,149662,111,20518,105596,190811,187577,191327,111,190811,Sternberg_updated,22,18741,24,yes,1024
92,92,778,778,black,no,experiment,Mozilla,Netscape,"5.0 (Windows NT 10.0; Win64; x64) AppleWebKit/537.36 (KHTML, like Gecko) Chrome/94.0.4606.61 Safari/537.36",legacy,legacy,legacy,0,uniform,1,1,right,24,24,24,24,0,0,0,24,24,0,0,0,24,24,24,0,0,24,24,0,30-08-21,30-08-21,09:18:10,Thu Sep 30 2021 09:18:10 GMT+0200 (hora de verano de Europa central),The main experiment item,yes,0,0,/Users/ethan/Documents/GitHub/OpenSesame/Sternberg/experiment_files,0,0,0,no,mono,no,18,no,white,no,no,768,108,3.6.1,legacy,legacy,2 4 8 5 1 3,osweb,1.4.0,1,1,y,37,,0,right,,,right,right,right,right,720,,,20405,10982,15087,720,2,legacy,824,1536,24,864,24,0,0,1536,1632986343797,6,1024,2,48000,-16,experiment,0,even,Win32,2,194594,,,191328,111,192368,149662,111,20518,105596,196596,193378,197327,111,196596,Sternberg_updated,23,19461,25,yes,1024
92,92,773,773,black,no,experiment,Mozilla,Netscape,"5.0 (Windows NT 10.0; Win64; x64) AppleWebKit/537.36 (KHTML, like Gecko) Chrome/94.0.4606.61 Safari/537.36",legacy,legacy,legacy,0,uniform,1,1,right,25,25,25,25,0,0,0,25,25,0,0,0,25,25,25,0,0,25,25,0,30-08-21,30-08-21,09:18:10,Thu Sep 30 2021 09:18:10 GMT+0200 (hora de verano de Europa central),The main experiment item,yes,0,0,/Users/ethan/Documents/GitHub/OpenSesame/Sternberg/experiment_files,0,0,0,no,mono,no,18,no,white,no,no,768,108,3.6.1,legacy,legacy,5 2 6,osweb,1.4.0,1,2,y,37,,0,right,,,right,right,right,right,627,,,20405,10982,15087,627,2,legacy,824,1536,24,864,24,0,0,1536,1632986343797,3,1024,2,48000,-16,experiment,0,even,Win32,2,200594,,,197328,111,198366,149662,111,20518,105596,202596,199379,203227,111,202596,Sternberg_updated,24,20088,26,yes,1024
93,93,768,768,black,no,experiment,Mozilla,Netscape,"5.0 (Windows NT 10.0; Win64; x64) AppleWebKit/537.36 (KHTML, like Gecko) Chrome/94.0.4606.61 Safari/537.36",legacy,legacy,legacy,0,uniform,1,1,right,26,26,26,26,0,0,0,26,26,0,0,0,26,26,26,0,0,26,26,0,30-08-21,30-08-21,09:18:10,Thu Sep 30 2021 09:18:10 GMT+0200 (hora de verano de Europa central),The main experiment item,yes,0,0,/Users/ethan/Documents/GitHub/OpenSesame/Sternberg/experiment_files,0,0,0,no,mono,no,18,no,white,no,no,768,108,3.6.1,legacy,legacy,7 8 6 3 1,osweb,1.4.0,1,5,y,37,,0,right,,,right,right,right,right,647,,,20405,10982,15087,647,2,legacy,824,1536,24,864,24,0,0,1536,1632986343797,5,1024,2,48000,-16,experiment,0,even,Win32,1,206494,,,203228,111,204267,149662,111,20518,105596,208511,205277,209160,111,208511,Sternberg_updated,25,20735,27,yes,1024
93,93,761,761,black,no,experiment,Mozilla,Netscape,"5.0 (Windows NT 10.0; Win64; x64) AppleWebKit/537.36 (KHTML, like Gecko) Chrome/94.0.4606.61 Safari/537.36",legacy,legacy,legacy,0,uniform,1,1,right,27,27,27,27,0,0,0,27,27,0,0,0,27,27,27,0,0,27,27,0,30-08-21,30-08-21,09:18:10,Thu Sep 30 2021 09:18:10 GMT+0200 (hora de verano de Europa central),The main experiment item,yes,0,0,/Users/ethan/Documents/GitHub/OpenSesame/Sternberg/experiment_files,0,0,0,no,mono,no,18,no,white,no,no,768,108,3.6.1,legacy,legacy,6 9 7 4 5 1,osweb,1.4.0,1,2,y,37,,0,right,,,right,right,right,right,577,,,20405,10982,15087,577,2,legacy,824,1536,24,864,24,0,0,1536,1632986343797,6,1024,2,48000,-16,experiment,0,even,Win32,9,212428,,,209161,111,210201,149662,111,20518,105596,214444,211211,215027,111,214444,Sternberg_updated,26,21312,28,yes,1024
93,93,753,753,black,no,experiment,Mozilla,Netscape,"5.0 (Windows NT 10.0; Win64; x64) AppleWebKit/537.36 (KHTML, like Gecko) Chrome/94.0.4606.61 Safari/537.36",legacy,legacy,legacy,0,uniform,1,1,right,28,28,28,28,0,0,0,28,28,0,0,0,28,28,28,0,0,28,28,0,30-08-21,30-08-21,09:18:10,Thu Sep 30 2021 09:18:10 GMT+0200 (hora de verano de Europa central),The main experiment item,yes,0,0,/Users/ethan/Documents/GitHub/OpenSesame/Sternberg/experiment_files,0,0,0,no,mono,no,18,no,white,no,no,768,108,3.6.1,legacy,legacy,7 1 3,osweb,1.4.0,1,2,y,37,,0,right,,,right,right,right,right,513,,,20405,10982,15087,513,2,legacy,824,1536,24,864,24,0,0,1536,1632986343797,3,1024,2,48000,-16,experiment,0,even,Win32,1,218294,,,215028,111,216069,149662,111,20518,105596,220311,217078,220827,111,220311,Sternberg_updated,27,21825,29,yes,1024
93,93,755,755,black,no,experiment,Mozilla,Netscape,"5.0 (Windows NT 10.0; Win64; x64) AppleWebKit/537.36 (KHTML, like Gecko) Chrome/94.0.4606.61 Safari/537.36",legacy,legacy,legacy,0,uniform,1,1,left,29,29,29,29,0,0,0,29,29,0,0,0,29,29,29,0,0,29,29,0,30-08-21,30-08-21,09:18:10,Thu Sep 30 2021 09:18:10 GMT+0200 (hora de verano de Europa central),The main experiment item,yes,0,0,/Users/ethan/Documents/GitHub/OpenSesame/Sternberg/experiment_files,0,0,0,no,mono,no,18,no,white,no,no,768,108,3.6.1,legacy,legacy,7 4 2 8 1 9,osweb,1.4.0,1,0,n,37,,0,left,,,right,right,right,left,814,,,20405,10982,15087,814,2,legacy,824,1536,24,864,24,0,0,1536,1632986343797,6,1024,2,48000,-16,experiment,0,even,Win32,5,224094,,,220829,111,221869,149662,111,20518,105596,226096,222877,226910,111,226096,Sternberg_updated,28,22639,30,yes,1024
94,94,750,750,black,no,experiment,Mozilla,Netscape,"5.0 (Windows NT 10.0; Win64; x64) AppleWebKit/537.36 (KHTML, like Gecko) Chrome/94.0.4606.61 Safari/537.36",legacy,legacy,legacy,0,uniform,1,1,left,30,30,30,30,0,0,0,30,30,0,0,0,30,30,30,0,0,30,30,0,30-08-21,30-08-21,09:18:10,Thu Sep 30 2021 09:18:10 GMT+0200 (hora de verano de Europa central),The main experiment item,yes,0,0,/Users/ethan/Documents/GitHub/OpenSesame/Sternberg/experiment_files,0,0,0,no,mono,no,18,no,white,no,no,768,108,3.6.1,legacy,legacy,1 6 4,osweb,1.4.0,1,0,n,37,,0,left,,,right,right,right,left,626,,,20405,10982,15087,626,2,legacy,824,1536,24,864,24,0,0,1536,1632986343797,3,1024,2,48000,-16,experiment,0,even,Win32,7,230177,,,226911,111,227957,149662,111,20518,105596,232194,228961,232827,111,232194,Sternberg_updated,29,23265,31,yes,1024
94,94,748,748,black,no,experiment,Mozilla,Netscape,"5.0 (Windows NT 10.0; Win64; x64) AppleWebKit/537.36 (KHTML, like Gecko) Chrome/94.0.4606.61 Safari/537.36",legacy,legacy,legacy,0,uniform,1,1,right,31,31,31,31,0,0,0,31,31,0,0,0,31,31,31,0,0,31,31,0,30-08-21,30-08-21,09:18:10,Thu Sep 30 2021 09:18:10 GMT+0200 (hora de verano de Europa central),The main experiment item,yes,0,0,/Users/ethan/Documents/GitHub/OpenSesame/Sternberg/experiment_files,0,0,0,no,mono,no,18,no,white,no,no,768,108,3.6.1,legacy,legacy,8 7 3,osweb,1.4.0,1,1,y,37,,0,right,,,right,right,right,right,671,,,20405,10982,15087,671,2,legacy,824,1536,24,864,24,0,0,1536,1632986343797,3,1024,2,48000,-16,experiment,0,even,Win32,8,236095,,,232828,111,233869,149662,111,20518,105596,238110,234877,238793,111,238110,Sternberg_updated,30,23936,32,yes,1024
94,94,748,748,black,no,experiment,Mozilla,Netscape,"5.0 (Windows NT 10.0; Win64; x64) AppleWebKit/537.36 (KHTML, like Gecko) Chrome/94.0.4606.61 Safari/537.36",legacy,legacy,legacy,0,uniform,1,1,left,32,32,32,32,0,0,0,32,32,0,0,0,32,32,32,0,0,32,32,0,30-08-21,30-08-21,09:18:10,Thu Sep 30 2021 09:18:10 GMT+0200 (hora de verano de Europa central),The main experiment item,yes,0,0,/Users/ethan/Documents/GitHub/OpenSesame/Sternberg/experiment_files,0,0,0,no,mono,no,18,no,white,no,no,768,108,3.6.1,legacy,legacy,4 2 7 6 1 3,osweb,1.4.0,1,0,n,37,,0,left,,,right,right,right,left,756,,,20405,10982,15087,756,2,legacy,824,1536,24,864,24,0,0,1536,1632986343797,6,1024,2,48000,-16,experiment,0,even,Win32,8,242062,,,238795,111,239837,149662,111,20518,105596,244077,240844,244843,111,244077,Sternberg_updated,31,24692,33,yes,1024
94,94,744,744,black,no,experiment,Mozilla,Netscape,"5.0 (Windows NT 10.0; Win64; x64) AppleWebKit/537.36 (KHTML, like Gecko) Chrome/94.0.4606.61 Safari/537.36",legacy,legacy,legacy,0,uniform,1,1,right,33,33,33,33,0,0,0,33,33,0,0,0,33,33,33,0,0,33,33,0,30-08-21,30-08-21,09:18:10,Thu Sep 30 2021 09:18:10 GMT+0200 (hora de verano de Europa central),The main experiment item,yes,0,0,/Users/ethan/Documents/GitHub/OpenSesame/Sternberg/experiment_files,0,0,0,no,mono,no,18,no,white,no,no,768,108,3.6.1,legacy,legacy,3 5 4 7,osweb,1.4.0,1,1,y,37,,0,right,,,right,right,right,right,609,,,20405,10982,15087,609,2,legacy,824,1536,24,864,24,0,0,1536,1632986343797,4,1024,2,48000,-16,experiment,0,even,Win32,3,248110,,,244845,111,245886,149662,111,20518,105596,250128,246894,250743,111,250128,Sternberg_updated,32,25301,34,yes,1024
94,94,747,747,black,no,experiment,Mozilla,Netscape,"5.0 (Windows NT 10.0; Win64; x64) AppleWebKit/537.36 (KHTML, like Gecko) Chrome/94.0.4606.61 Safari/537.36",legacy,legacy,legacy,0,uniform,1,1,left,34,34,34,34,0,0,0,34,34,0,0,0,34,34,34,0,0,34,34,0,30-08-21,30-08-21,09:18:10,Thu Sep 30 2021 09:18:10 GMT+0200 (hora de verano de Europa central),The main experiment item,yes,0,0,/Users/ethan/Documents/GitHub/OpenSesame/Sternberg/experiment_files,0,0,0,no,mono,no,18,no,white,no,no,768,108,3.6.1,legacy,legacy,1,osweb,1.4.0,1,0,n,37,,0,left,,,right,right,right,left,856,,,20405,10982,15087,856,2,legacy,824,1536,24,864,24,0,0,1536,1632986343797,1,1024,2,48000,-16,experiment,0,even,Win32,7,254010,,,250744,111,251785,149662,111,20518,105596,256029,252794,256893,111,256029,Sternberg_updated,33,26157,35,yes,1024
94,94,740,740,black,no,experiment,Mozilla,Netscape,"5.0 (Windows NT 10.0; Win64; x64) AppleWebKit/537.36 (KHTML, like Gecko) Chrome/94.0.4606.61 Safari/537.36",legacy,legacy,legacy,0,uniform,1,1,right,35,35,35,35,0,0,0,35,35,0,0,0,35,35,35,0,0,35,35,0,30-08-21,30-08-21,09:18:10,Thu Sep 30 2021 09:18:10 GMT+0200 (hora de verano de Europa central),The main experiment item,yes,0,0,/Users/ethan/Documents/GitHub/OpenSesame/Sternberg/experiment_files,0,0,0,no,mono,no,18,no,white,no,no,768,108,3.6.1,legacy,legacy,2 3,osweb,1.4.0,1,1,y,37,,0,right,,,right,right,right,right,484,,,20405,10982,15087,484,2,legacy,824,1536,24,864,24,0,0,1536,1632986343797,2,1024,2,48000,-16,experiment,0,even,Win32,2,260160,,,256895,111,257934,149662,111,20518,105596,262162,258944,262660,111,262162,Sternberg_updated,34,26641,36,yes,1024
95,95,740,740,black,no,experiment,Mozilla,Netscape,"5.0 (Windows NT 10.0; Win64; x64) AppleWebKit/537.36 (KHTML, like Gecko) Chrome/94.0.4606.61 Safari/537.36",legacy,legacy,legacy,0,uniform,1,1,right,36,36,36,36,0,0,0,36,36,0,0,0,36,36,36,0,0,36,36,0,30-08-21,30-08-21,09:18:10,Thu Sep 30 2021 09:18:10 GMT+0200 (hora de verano de Europa central),The main experiment item,yes,0,0,/Users/ethan/Documents/GitHub/OpenSesame/Sternberg/experiment_files,0,0,0,no,mono,no,18,no,white,no,no,768,108,3.6.1,legacy,legacy,8 5 3 7 4 6,osweb,1.4.0,1,6,y,37,,0,right,,,right,right,right,right,742,,,20405,10982,15087,742,2,legacy,824,1536,24,864,24,0,0,1536,1632986343797,6,1024,2,48000,-16,experiment,0,even,Win32,6,265927,,,262661,111,263703,149662,111,20518,105596,267944,264712,268693,111,267944,Sternberg_updated,35,27383,37,yes,1024
95,95,734,734,black,no,experiment,Mozilla,Netscape,"5.0 (Windows NT 10.0; Win64; x64) AppleWebKit/537.36 (KHTML, like Gecko) Chrome/94.0.4606.61 Safari/537.36",legacy,legacy,legacy,0,uniform,1,1,right,37,37,37,37,0,0,0,37,37,0,0,0,37,37,37,0,0,37,37,0,30-08-21,30-08-21,09:18:10,Thu Sep 30 2021 09:18:10 GMT+0200 (hora de verano de Europa central),The main experiment item,yes,0,0,/Users/ethan/Documents/GitHub/OpenSesame/Sternberg/experiment_files,0,0,0,no,mono,no,18,no,white,no,no,768,108,3.6.1,legacy,legacy,4 3 2 5 8,osweb,1.4.0,1,2,y,37,,0,right,,,right,right,right,right,495,,,20405,10982,15087,495,2,legacy,824,1536,24,864,24,0,0,1536,1632986343797,5,1024,2,48000,-16,experiment,0,even,Win32,3,271961,,,268694,111,269734,149662,111,20518,105596,273978,270744,274476,111,273978,Sternberg_updated,36,27878,38,yes,1024
95,95,731,731,black,no,experiment,Mozilla,Netscape,"5.0 (Windows NT 10.0; Win64; x64) AppleWebKit/537.36 (KHTML, like Gecko) Chrome/94.0.4606.61 Safari/537.36",legacy,legacy,legacy,0,uniform,1,1,left,38,38,38,38,0,0,0,38,38,0,0,0,38,38,38,0,0,38,38,0,30-08-21,30-08-21,09:18:10,Thu Sep 30 2021 09:18:10 GMT+0200 (hora de verano de Europa central),The main experiment item,yes,0,0,/Users/ethan/Documents/GitHub/OpenSesame/Sternberg/experiment_files,0,0,0,no,mono,no,18,no,white,no,no,768,108,3.6.1,legacy,legacy,6 8 4,osweb,1.4.0,1,0,n,37,,0,left,,,right,right,right,left,645,,,20405,10982,15087,645,2,legacy,824,1536,24,864,24,0,0,1536,1632986343797,3,1024,2,48000,-16,experiment,0,even,Win32,1,277743,,,274478,111,275520,149662,111,20518,105596,279760,276527,280410,111,279760,Sternberg_updated,37,28523,39,yes,1024
95,95,726,726,black,no,experiment,Mozilla,Netscape,"5.0 (Windows NT 10.0; Win64; x64) AppleWebKit/537.36 (KHTML, like Gecko) Chrome/94.0.4606.61 Safari/537.36",legacy,legacy,legacy,0,uniform,1,1,right,39,39,39,39,0,0,0,39,39,0,0,0,39,39,39,0,0,39,39,0,30-08-21,30-08-21,09:18:10,Thu Sep 30 2021 09:18:10 GMT+0200 (hora de verano de Europa central),The main experiment item,yes,0,0,/Users/ethan/Documents/GitHub/OpenSesame/Sternberg/experiment_files,0,0,0,no,mono,no,18,no,white,no,no,768,108,3.6.1,legacy,legacy,4 9 7 8 5 3,osweb,1.4.0,1,4,y,37,,0,right,,,right,right,right,right,522,,,20405,10982,15087,522,2,legacy,824,1536,24,864,24,0,0,1536,1632986343797,6,1024,2,48000,-16,experiment,0,even,Win32,8,283677,,,280411,111,281450,149662,111,20518,105596,285694,282461,286227,111,285694,Sternberg_updated,38,29045,40,yes,1024
95,95,720,720,black,no,experiment,Mozilla,Netscape,"5.0 (Windows NT 10.0; Win64; x64) AppleWebKit/537.36 (KHTML, like Gecko) Chrome/94.0.4606.61 Safari/537.36",legacy,legacy,legacy,0,uniform,1,1,right,40,40,40,40,0,0,0,40,40,0,0,0,40,40,40,0,0,40,40,0,30-08-21,30-08-21,09:18:10,Thu Sep 30 2021 09:18:10 GMT+0200 (hora de verano de Europa central),The main experiment item,yes,0,0,/Users/ethan/Documents/GitHub/OpenSesame/Sternberg/experiment_files,0,0,0,no,mono,no,18,no,white,no,no,768,108,3.6.1,legacy,legacy,8 3,osweb,1.4.0,1,2,y,37,,0,right,,,right,right,right,right,464,,,20405,10982,15087,464,2,legacy,824,1536,24,864,24,0,0,1536,1632986343797,2,1024,2,48000,-16,experiment,0,even,Win32,3,289493,,,286228,111,287267,149662,111,20518,105596,291510,288277,291979,111,291510,Sternberg_updated,39,29509,41,yes,1024
95,95,716,716,black,no,experiment,Mozilla,Netscape,"5.0 (Windows NT 10.0; Win64; x64) AppleWebKit/537.36 (KHTML, like Gecko) Chrome/94.0.4606.61 Safari/537.36",legacy,legacy,legacy,0,uniform,1,1,right,41,41,41,41,0,0,0,41,41,0,0,0,41,41,41,0,0,41,41,0,30-08-21,30-08-21,09:18:10,Thu Sep 30 2021 09:18:10 GMT+0200 (hora de verano de Europa central),The main experiment item,yes,0,0,/Users/ethan/Documents/GitHub/OpenSesame/Sternberg/experiment_files,0,0,0,no,mono,no,18,no,white,no,no,768,108,3.6.1,legacy,legacy,6 9 3 1,osweb,1.4.0,1,4,y,37,,0,right,,,right,right,right,right,544,,,20405,10982,15087,544,2,legacy,824,1536,24,864,24,0,0,1536,1632986343797,4,1024,2,48000,-16,experiment,0,even,Win32,1,295243,,,291980,111,293019,149662,111,20518,105596,297261,294029,297810,111,297261,Sternberg_updated,40,30053,42,yes,1024
95,95,718,718,black,no,experiment,Mozilla,Netscape,"5.0 (Windows NT 10.0; Win64; x64) AppleWebKit/537.36 (KHTML, like Gecko) Chrome/94.0.4606.61 Safari/537.36",legacy,legacy,legacy,0,uniform,1,1,left,42,42,42,42,0,0,0,42,42,0,0,0,42,42,42,0,0,42,42,0,30-08-21,30-08-21,09:18:10,Thu Sep 30 2021 09:18:10 GMT+0200 (hora de verano de Europa central),The main experiment item,yes,0,0,/Users/ethan/Documents/GitHub/OpenSesame/Sternberg/experiment_files,0,0,0,no,mono,no,18,no,white,no,no,768,108,3.6.1,legacy,legacy,3 4 2,osweb,1.4.0,1,0,n,37,,0,left,,,right,right,right,left,809,,,20405,10982,15087,809,2,legacy,824,1536,24,864,24,0,0,1536,1632986343797,3,1024,2,48000,-16,experiment,0,even,Win32,5,301077,,,297811,111,298851,149662,111,20518,105596,303095,299861,303910,111,303095,Sternberg_updated,41,30862,43,yes,1024
93,93,714,714,black,no,experiment,Mozilla,Netscape,"5.0 (Windows NT 10.0; Win64; x64) AppleWebKit/537.36 (KHTML, like Gecko) Chrome/94.0.4606.61 Safari/537.36",legacy,legacy,legacy,0,uniform,0,0,left,43,43,43,43,0,0,0,43,43,0,0,0,43,43,43,0,0,43,43,0,30-08-21,30-08-21,09:18:10,Thu Sep 30 2021 09:18:10 GMT+0200 (hora de verano de Europa central),The main experiment item,yes,0,0,/Users/ethan/Documents/GitHub/OpenSesame/Sternberg/experiment_files,0,0,0,no,mono,no,18,no,white,no,no,768,108,3.6.1,legacy,legacy,2 8 6 3 1,osweb,1.4.0,1,0,n,37,,0,right,,,right,right,right,right,545,,,20405,10982,15087,545,2,legacy,824,1536,24,864,24,0,0,1536,1632986343797,5,1024,2,48000,-16,experiment,0,even,Win32,7,307177,,,303911,111,304952,149662,111,20518,105596,309193,305961,309743,111,309193,Sternberg_updated,41,31407,44,yes,1024
93,93,718,718,black,no,experiment,Mozilla,Netscape,"5.0 (Windows NT 10.0; Win64; x64) AppleWebKit/537.36 (KHTML, like Gecko) Chrome/94.0.4606.61 Safari/537.36",legacy,legacy,legacy,0,uniform,1,1,left,44,44,44,44,0,0,0,44,44,0,0,0,44,44,44,0,0,44,44,0,30-08-21,30-08-21,09:18:10,Thu Sep 30 2021 09:18:10 GMT+0200 (hora de verano de Europa central),The main experiment item,yes,0,0,/Users/ethan/Documents/GitHub/OpenSesame/Sternberg/experiment_files,0,0,0,no,mono,no,18,no,white,no,no,768,108,3.6.1,legacy,legacy,8 5 4 2 9 6,osweb,1.4.0,1,0,n,37,,0,left,,,right,right,right,left,893,,,20405,10982,15087,893,2,legacy,824,1536,24,864,24,0,0,1536,1632986343797,6,1024,2,48000,-16,experiment,0,even,Win32,3,313010,,,303911,111,310784,309745,111,20518,105596,315029,311793,315926,111,315029,Sternberg_updated,42,32300,45,yes,1024
93,93,717,717,black,no,experiment,Mozilla,Netscape,"5.0 (Windows NT 10.0; Win64; x64) AppleWebKit/537.36 (KHTML, like Gecko) Chrome/94.0.4606.61 Safari/537.36",legacy,legacy,legacy,0,uniform,1,1,left,45,45,45,45,0,0,0,45,45,0,0,0,45,45,45,0,0,45,45,0,30-08-21,30-08-21,09:18:10,Thu Sep 30 2021 09:18:10 GMT+0200 (hora de verano de Europa central),The main experiment item,yes,0,0,/Users/ethan/Documents/GitHub/OpenSesame/Sternberg/experiment_files,0,0,0,no,mono,no,18,no,white,no,no,768,108,3.6.1,legacy,legacy,2 7 5,osweb,1.4.0,1,0,n,37,,0,left,,,right,right,right,left,678,,,20405,10982,15087,678,2,legacy,824,1536,24,864,24,0,0,1536,1632986343797,3,1024,2,48000,-16,experiment,0,even,Win32,8,319193,,,315927,111,316968,309745,111,20518,105596,321210,317978,321893,111,321210,Sternberg_updated,43,32978,46,yes,1024
94,94,714,714,black,no,experiment,Mozilla,Netscape,"5.0 (Windows NT 10.0; Win64; x64) AppleWebKit/537.36 (KHTML, like Gecko) Chrome/94.0.4606.61 Safari/537.36",legacy,legacy,legacy,0,uniform,1,1,right,46,46,46,46,0,0,0,46,46,0,0,0,46,46,46,0,0,46,46,0,30-08-21,30-08-21,09:18:10,Thu Sep 30 2021 09:18:10 GMT+0200 (hora de verano de Europa central),The main experiment item,yes,0,0,/Users/ethan/Documents/GitHub/OpenSesame/Sternberg/experiment_files,0,0,0,no,mono,no,18,no,white,no,no,768,108,3.6.1,legacy,legacy,3 9 6 2,osweb,1.4.0,1,4,y,37,,0,right,,,right,right,right,right,572,,,20405,10982,15087,572,2,legacy,824,1536,24,864,24,0,0,1536,1632986343797,4,1024,2,48000,-16,experiment,0,even,Win32,2,325160,,,321894,111,322933,309745,111,20518,105596,327178,323943,327760,111,327178,Sternberg_updated,44,33550,47,yes,1024
94,94,714,714,black,no,experiment,Mozilla,Netscape,"5.0 (Windows NT 10.0; Win64; x64) AppleWebKit/537.36 (KHTML, like Gecko) Chrome/94.0.4606.61 Safari/537.36",legacy,legacy,legacy,0,uniform,1,1,left,47,47,47,47,0,0,0,47,47,0,0,0,47,47,47,0,0,47,47,0,30-08-21,30-08-21,09:18:10,Thu Sep 30 2021 09:18:10 GMT+0200 (hora de verano de Europa central),The main experiment item,yes,0,0,/Users/ethan/Documents/GitHub/OpenSesame/Sternberg/experiment_files,0,0,0,no,mono,no,18,no,white,no,no,768,108,3.6.1,legacy,legacy,8 5 7 3 6,osweb,1.4.0,1,0,n,37,,0,left,,,right,right,right,left,706,,,20405,10982,15087,706,2,legacy,824,1536,24,864,24,0,0,1536,1632986343797,5,1024,2,48000,-16,experiment,0,even,Win32,9,331027,,,327761,111,328803,309745,111,20518,105596,333043,329810,333760,111,333043,Sternberg_updated,45,34256,48,yes,1024
94,94,710,710,black,no,experiment,Mozilla,Netscape,"5.0 (Windows NT 10.0; Win64; x64) AppleWebKit/537.36 (KHTML, like Gecko) Chrome/94.0.4606.61 Safari/537.36",legacy,legacy,legacy,0,uniform,1,1,left,48,48,48,48,0,0,0,48,48,0,0,0,48,48,48,0,0,48,48,0,30-08-21,30-08-21,09:18:10,Thu Sep 30 2021 09:18:10 GMT+0200 (hora de verano de Europa central),The main experiment item,yes,0,0,/Users/ethan/Documents/GitHub/OpenSesame/Sternberg/experiment_files,0,0,0,no,mono,no,18,no,white,no,no,768,108,3.6.1,legacy,legacy,2 6 4 3 9,osweb,1.4.0,1,0,n,37,,0,left,,,right,right,right,left,558,,,20405,10982,15087,558,2,legacy,824,1536,24,864,24,0,0,1536,1632986343797,5,1024,2,48000,-16,experiment,0,even,Win32,1,337027,,,333761,111,334802,309745,111,20518,105596,339028,335810,339593,111,339028,Sternberg_updated,46,34814,49,yes,1024
94,94,716,716,black,no,experiment,Mozilla,Netscape,"5.0 (Windows NT 10.0; Win64; x64) AppleWebKit/537.36 (KHTML, like Gecko) Chrome/94.0.4606.61 Safari/537.36",legacy,legacy,legacy,0,uniform,1,1,right,49,49,49,49,0,0,0,49,49,0,0,0,49,49,49,0,0,49,49,0,30-08-21,30-08-21,09:18:10,Thu Sep 30 2021 09:18:10 GMT+0200 (hora de verano de Europa central),The main experiment item,yes,0,0,/Users/ethan/Documents/GitHub/OpenSesame/Sternberg/experiment_files,0,0,0,no,mono,no,18,no,white,no,no,768,108,3.6.1,legacy,legacy,3 9 7 6 4,osweb,1.4.0,1,3,y,37,,0,right,,,right,right,right,right,972,,,20405,10982,15087,972,2,legacy,824,1536,24,864,24,0,0,1536,1632986343797,5,1024,2,48000,-16,experiment,0,even,Win32,7,342860,,,339594,111,340634,309745,111,20518,105596,344877,341643,345860,111,344877,Sternberg_updated,47,35786,50,yes,1024
94,94,714,714,black,no,experiment,Mozilla,Netscape,"5.0 (Windows NT 10.0; Win64; x64) AppleWebKit/537.36 (KHTML, like Gecko) Chrome/94.0.4606.61 Safari/537.36",legacy,legacy,legacy,0,uniform,1,1,right,50,50,50,50,0,0,0,50,50,0,0,0,50,50,50,0,0,50,50,0,30-08-21,30-08-21,09:18:10,Thu Sep 30 2021 09:18:10 GMT+0200 (hora de verano de Europa central),The main experiment item,yes,0,0,/Users/ethan/Documents/GitHub/OpenSesame/Sternberg/experiment_files,0,0,0,no,mono,no,18,no,white,no,no,768,108,3.6.1,legacy,legacy,9 1 7 2,osweb,1.4.0,1,2,y,37,,0,right,,,right,right,right,right,626,,,20405,10982,15087,626,2,legacy,824,1536,24,864,24,0,0,1536,1632986343797,4,1024,2,48000,-16,experiment,0,even,Win32,1,349126,,,345861,111,346903,309745,111,20518,105596,351127,347912,351760,111,351127,Sternberg_updated,48,36412,51,yes,1024
94,94,710,710,black,no,experiment,Mozilla,Netscape,"5.0 (Windows NT 10.0; Win64; x64) AppleWebKit/537.36 (KHTML, like Gecko) Chrome/94.0.4606.61 Safari/537.36",legacy,legacy,legacy,0,uniform,1,1,left,51,51,51,51,0,0,0,51,51,0,0,0,51,51,51,0,0,51,51,0,30-08-21,30-08-21,09:18:10,Thu Sep 30 2021 09:18:10 GMT+0200 (hora de verano de Europa central),The main experiment item,yes,0,0,/Users/ethan/Documents/GitHub/OpenSesame/Sternberg/experiment_files,0,0,0,no,mono,no,18,no,white,no,no,768,108,3.6.1,legacy,legacy,4 1,osweb,1.4.0,1,0,n,37,,0,left,,,right,right,right,left,499,,,20405,10982,15087,499,2,legacy,824,1536,24,864,24,0,0,1536,1632986343797,2,1024,2,48000,-16,experiment,0,even,Win32,6,355027,,,351762,111,352799,309745,111,20518,105596,357028,353810,357527,111,357028,Sternberg_updated,49,36911,52,yes,1024
94,94,706,706,black,no,experiment,Mozilla,Netscape,"5.0 (Windows NT 10.0; Win64; x64) AppleWebKit/537.36 (KHTML, like Gecko) Chrome/94.0.4606.61 Safari/537.36",legacy,legacy,legacy,0,uniform,1,1,right,52,52,52,52,0,0,0,52,52,0,0,0,52,52,52,0,0,52,52,0,30-08-21,30-08-21,09:18:10,Thu Sep 30 2021 09:18:10 GMT+0200 (hora de verano de Europa central),The main experiment item,yes,0,0,/Users/ethan/Documents/GitHub/OpenSesame/Sternberg/experiment_files,0,0,0,no,mono,no,18,no,white,no,no,768,108,3.6.1,legacy,legacy,4,osweb,1.4.0,1,1,y,37,,0,right,,,right,right,right,right,500,,,20405,10982,15087,500,2,legacy,824,1536,24,864,24,0,0,1536,1632986343797,1,1024,2,48000,-16,experiment,0,even,Win32,4,360793,,,357529,111,358572,309745,111,20518,105596,362810,359577,363326,111,362810,Sternberg_updated,50,37411,53,yes,1024
94,94,704,704,black,no,experiment,Mozilla,Netscape,"5.0 (Windows NT 10.0; Win64; x64) AppleWebKit/537.36 (KHTML, like Gecko) Chrome/94.0.4606.61 Safari/537.36",legacy,legacy,legacy,0,uniform,1,1,left,53,53,53,53,0,0,0,53,53,0,0,0,53,53,53,0,0,53,53,0,30-08-21,30-08-21,09:18:10,Thu Sep 30 2021 09:18:10 GMT+0200 (hora de verano de Europa central),The main experiment item,yes,0,0,/Users/ethan/Documents/GitHub/OpenSesame/Sternberg/experiment_files,0,0,0,no,mono,no,18,no,white,no,no,768,108,3.6.1,legacy,legacy,5 9 2 3,osweb,1.4.0,1,0,n,37,,0,left,,,right,right,right,left,601,,,20405,10982,15087,601,2,legacy,824,1536,24,864,24,0,0,1536,1632986343797,4,1024,2,48000,-16,experiment,0,even,Win32,8,366593,,,363327,111,364367,309745,111,20518,105596,368610,365377,369226,111,368610,Sternberg_updated,51,38012,54,yes,1024
95,95,701,701,black,no,experiment,Mozilla,Netscape,"5.0 (Windows NT 10.0; Win64; x64) AppleWebKit/537.36 (KHTML, like Gecko) Chrome/94.0.4606.61 Safari/537.36",legacy,legacy,legacy,0,uniform,1,1,left,54,54,54,54,0,0,0,54,54,0,0,0,54,54,54,0,0,54,54,0,30-08-21,30-08-21,09:18:10,Thu Sep 30 2021 09:18:10 GMT+0200 (hora de verano de Europa central),The main experiment item,yes,0,0,/Users/ethan/Documents/GitHub/OpenSesame/Sternberg/experiment_files,0,0,0,no,mono,no,18,no,white,no,no,768,108,3.6.1,legacy,legacy,3 9 8 1 6 4,osweb,1.4.0,1,0,n,37,,0,left,,,right,right,right,left,533,,,20405,10982,15087,533,2,legacy,824,1536,24,864,24,0,0,1536,1632986343797,6,1024,2,48000,-16,experiment,0,even,Win32,7,372493,,,369230,111,370271,309745,111,20518,105596,374510,371277,375043,111,374510,Sternberg_updated,52,38545,55,yes,1024
95,95,700,700,black,no,experiment,Mozilla,Netscape,"5.0 (Windows NT 10.0; Win64; x64) AppleWebKit/537.36 (KHTML, like Gecko) Chrome/94.0.4606.61 Safari/537.36",legacy,legacy,legacy,0,uniform,1,1,right,55,55,55,55,0,0,0,55,55,0,0,0,55,55,55,0,0,55,55,0,30-08-21,30-08-21,09:18:10,Thu Sep 30 2021 09:18:10 GMT+0200 (hora de verano de Europa central),The main experiment item,yes,0,0,/Users/ethan/Documents/GitHub/OpenSesame/Sternberg/experiment_files,0,0,0,no,mono,no,18,no,white,no,no,768,108,3.6.1,legacy,legacy,6 7 8 5,osweb,1.4.0,1,3,y,37,,0,right,right,,right,right,right,right,656,99500,,20405,10982,15087,656,2,legacy,824,1536,24,864,24,0,0,1536,1632986343797,4,1024,2,48000,-16,experiment,0,even,Win32,8,477827,376060,,375044,111,475600,309745,111,20518,105596,479844,476610,480509,111,479844,Sternberg_updated,53,39201,56,yes,1024
95,95,699,699,black,no,experiment,Mozilla,Netscape,"5.0 (Windows NT 10.0; Win64; x64) AppleWebKit/537.36 (KHTML, like Gecko) Chrome/94.0.4606.61 Safari/537.36",legacy,legacy,legacy,0,uniform,1,1,left,56,56,56,56,0,0,0,56,56,0,0,0,56,56,56,0,0,56,56,0,30-08-21,30-08-21,09:18:10,Thu Sep 30 2021 09:18:10 GMT+0200 (hora de verano de Europa central),The main experiment item,yes,0,0,/Users/ethan/Documents/GitHub/OpenSesame/Sternberg/experiment_files,0,0,0,no,mono,no,18,no,white,no,no,768,108,3.6.1,legacy,legacy,3 4 9 6 7 8,osweb,1.4.0,1,0,n,37,,0,left,right,,right,right,right,left,617,99500,,20405,10982,15087,617,2,legacy,824,1536,24,864,24,0,0,1536,1632986343797,6,1024,2,48000,-16,experiment,0,even,Win32,2,483776,376060,,480510,111,481551,309745,111,20518,105596,485795,482560,486426,111,485795,Sternberg_updated,54,39818,57,yes,1024
95,95,698,698,black,no,experiment,Mozilla,Netscape,"5.0 (Windows NT 10.0; Win64; x64) AppleWebKit/537.36 (KHTML, like Gecko) Chrome/94.0.4606.61 Safari/537.36",legacy,legacy,legacy,0,uniform,1,1,right,57,57,57,57,0,0,0,57,57,0,0,0,57,57,57,0,0,57,57,0,30-08-21,30-08-21,09:18:10,Thu Sep 30 2021 09:18:10 GMT+0200 (hora de verano de Europa central),The main experiment item,yes,0,0,/Users/ethan/Documents/GitHub/OpenSesame/Sternberg/experiment_files,0,0,0,no,mono,no,18,no,white,no,no,768,108,3.6.1,legacy,legacy,9 6 2 4 1,osweb,1.4.0,1,4,y,37,,0,right,right,,right,right,right,right,677,99500,,20405,10982,15087,677,2,legacy,824,1536,24,864,24,0,0,1536,1632986343797,5,1024,2,48000,-16,experiment,0,even,Win32,4,489693,376060,,486428,111,487466,309745,111,20518,105596,491695,488477,492377,111,491695,Sternberg_updated,55,40495,58,yes,1024
95,95,703,703,black,no,experiment,Mozilla,Netscape,"5.0 (Windows NT 10.0; Win64; x64) AppleWebKit/537.36 (KHTML, like Gecko) Chrome/94.0.4606.61 Safari/537.36",legacy,legacy,legacy,0,uniform,1,1,left,58,58,58,58,0,0,0,58,58,0,0,0,58,58,58,0,0,58,58,0,30-08-21,30-08-21,09:18:10,Thu Sep 30 2021 09:18:10 GMT+0200 (hora de verano de Europa central),The main experiment item,yes,0,0,/Users/ethan/Documents/GitHub/OpenSesame/Sternberg/experiment_files,0,0,0,no,mono,no,18,no,white,no,no,768,108,3.6.1,legacy,legacy,8 2 1 4 5 9,osweb,1.4.0,1,0,n,37,,0,left,right,,right,right,right,left,978,99500,,20405,10982,15087,978,2,legacy,824,1536,24,864,24,0,0,1536,1632986343797,6,1024,2,48000,-16,experiment,0,even,Win32,7,495642,376060,,492378,111,493420,309745,111,20518,105596,497659,494427,498643,111,497659,Sternberg_updated,56,41473,59,yes,1024
95,95,699,699,black,no,experiment,Mozilla,Netscape,"5.0 (Windows NT 10.0; Win64; x64) AppleWebKit/537.36 (KHTML, like Gecko) Chrome/94.0.4606.61 Safari/537.36",legacy,legacy,legacy,0,uniform,1,1,right,59,59,59,59,0,0,0,59,59,0,0,0,59,59,59,0,0,59,59,0,30-08-21,30-08-21,09:18:10,Thu Sep 30 2021 09:18:10 GMT+0200 (hora de verano de Europa central),The main experiment item,yes,0,0,/Users/ethan/Documents/GitHub/OpenSesame/Sternberg/experiment_files,0,0,0,no,mono,no,18,no,white,no,no,768,108,3.6.1,legacy,legacy,7 2 3,osweb,1.4.0,1,3,y,37,,0,right,right,,right,right,right,right,456,99500,,20405,10982,15087,456,2,legacy,824,1536,24,864,24,0,0,1536,1632986343797,3,1024,2,48000,-16,experiment,0,even,Win32,3,501909,376060,,498644,111,499687,309745,111,20518,105596,503926,500695,504392,111,503926,Sternberg_updated,57,41929,60,yes,1024
95,95,701,701,black,no,experiment,Mozilla,Netscape,"5.0 (Windows NT 10.0; Win64; x64) AppleWebKit/537.36 (KHTML, like Gecko) Chrome/94.0.4606.61 Safari/537.36",legacy,legacy,legacy,0,uniform,1,1,left,60,60,60,60,0,0,0,60,60,0,0,0,60,60,60,0,0,60,60,0,30-08-21,30-08-21,09:18:10,Thu Sep 30 2021 09:18:10 GMT+0200 (hora de verano de Europa central),The main experiment item,yes,0,0,/Users/ethan/Documents/GitHub/OpenSesame/Sternberg/experiment_files,0,0,0,no,mono,no,18,no,white,no,no,768,108,3.6.1,legacy,legacy,2 5 1 4,osweb,1.4.0,1,0,n,37,,0,left,right,,right,right,right,left,825,99500,,20405,10982,15087,825,2,legacy,824,1536,24,864,24,0,0,1536,1632986343797,4,1024,2,48000,-16,experiment,0,even,Win32,6,507659,376060,,504393,111,505433,309745,111,20518,105596,509660,506443,510492,111,509660,Sternberg_updated,58,42754,61,yes,1024
95,95,699,699,black,no,experiment,Mozilla,Netscape,"5.0 (Windows NT 10.0; Win64; x64) AppleWebKit/537.36 (KHTML, like Gecko) Chrome/94.0.4606.61 Safari/537.36",legacy,legacy,legacy,0,uniform,1,1,left,61,61,61,61,0,0,0,61,61,0,0,0,61,61,61,0,0,61,61,0,30-08-21,30-08-21,09:18:10,Thu Sep 30 2021 09:18:10 GMT+0200 (hora de verano de Europa central),The main experiment item,yes,0,0,/Users/ethan/Documents/GitHub/OpenSesame/Sternberg/experiment_files,0,0,0,no,mono,no,18,no,white,no,no,768,108,3.6.1,legacy,legacy,1 4 3 6 5,osweb,1.4.0,1,0,n,37,,0,left,right,,right,right,right,left,590,99500,,20405,10982,15087,590,2,legacy,824,1536,24,864,24,0,0,1536,1632986343797,5,1024,2,48000,-16,experiment,0,even,Win32,8,513759,376060,,510494,111,511534,309745,111,20518,105596,515777,512543,516376,111,515777,Sternberg_updated,59,43344,62,yes,1024
95,95,696,696,black,no,experiment,Mozilla,Netscape,"5.0 (Windows NT 10.0; Win64; x64) AppleWebKit/537.36 (KHTML, like Gecko) Chrome/94.0.4606.61 Safari/537.36",legacy,legacy,legacy,0,uniform,1,1,right,62,62,62,62,0,0,0,62,62,0,0,0,62,62,62,0,0,62,62,0,30-08-21,30-08-21,09:18:10,Thu Sep 30 2021 09:18:10 GMT+0200 (hora de verano de Europa central),The main experiment item,yes,0,0,/Users/ethan/Documents/GitHub/OpenSesame/Sternberg/experiment_files,0,0,0,no,mono,no,18,no,white,no,no,768,108,3.6.1,legacy,legacy,3 5 7 1,osweb,1.4.0,1,3,y,37,,0,right,right,,right,right,right,right,519,99500,,20405,10982,15087,519,2,legacy,824,1536,24,864,24,0,0,1536,1632986343797,4,1024,2,48000,-16,experiment,0,even,Win32,7,519642,376060,,516377,111,517417,309745,111,20518,105596,521659,518426,522194,111,521659,Sternberg_updated,60,43863,63,yes,1024
95,95,701,701,black,no,experiment,Mozilla,Netscape,"5.0 (Windows NT 10.0; Win64; x64) AppleWebKit/537.36 (KHTML, like Gecko) Chrome/94.0.4606.61 Safari/537.36",legacy,legacy,legacy,0,uniform,1,1,right,63,63,63,63,0,0,0,63,63,0,0,0,63,63,63,0,0,63,63,0,30-08-21,30-08-21,09:18:10,Thu Sep 30 2021 09:18:10 GMT+0200 (hora de verano de Europa central),The main experiment item,yes,0,0,/Users/ethan/Documents/GitHub/OpenSesame/Sternberg/experiment_files,0,0,0,no,mono,no,18,no,white,no,no,768,108,3.6.1,legacy,legacy,9 5 8 1,osweb,1.4.0,1,2,y,37,,0,right,right,,right,right,right,right,970,99500,,20405,10982,15087,970,2,legacy,824,1536,24,864,24,0,0,1536,1632986343797,4,1024,2,48000,-16,experiment,0,even,Win32,5,525444,376060,,522195,111,523233,309745,111,20518,105596,527459,524243,528442,111,527459,Sternberg_updated,61,44833,64,yes,1024
95,95,699,699,black,no,experiment,Mozilla,Netscape,"5.0 (Windows NT 10.0; Win64; x64) AppleWebKit/537.36 (KHTML, like Gecko) Chrome/94.0.4606.61 Safari/537.36",legacy,legacy,legacy,0,uniform,1,1,left,64,64,64,64,0,0,0,64,64,0,0,0,64,64,64,0,0,64,64,0,30-08-21,30-08-21,09:18:10,Thu Sep 30 2021 09:18:10 GMT+0200 (hora de verano de Europa central),The main experiment item,yes,0,0,/Users/ethan/Documents/GitHub/OpenSesame/Sternberg/experiment_files,0,0,0,no,mono,no,18,no,white,no,no,768,108,3.6.1,legacy,legacy,1 3 2 6 9,osweb,1.4.0,1,0,n,37,,0,left,right,,right,right,right,left,612,99500,,20405,10982,15087,612,2,legacy,824,1536,24,864,24,0,0,1536,1632986343797,5,1024,2,48000,-16,experiment,0,even,Win32,5,531709,376060,,528444,111,529482,309745,111,20518,105596,533711,530493,534327,111,533711,Sternberg_updated,62,45445,65,yes,1024
95,95,696,696,black,no,experiment,Mozilla,Netscape,"5.0 (Windows NT 10.0; Win64; x64) AppleWebKit/537.36 (KHTML, like Gecko) Chrome/94.0.4606.61 Safari/537.36",legacy,legacy,legacy,0,uniform,1,1,right,65,65,65,65,0,0,0,65,65,0,0,0,65,65,65,0,0,65,65,0,30-08-21,30-08-21,09:18:10,Thu Sep 30 2021 09:18:10 GMT+0200 (hora de verano de Europa central),The main experiment item,yes,0,0,/Users/ethan/Documents/GitHub/OpenSesame/Sternberg/experiment_files,0,0,0,no,mono,no,18,no,white,no,no,768,108,3.6.1,legacy,legacy,1 4 9 3 2 5,osweb,1.4.0,1,3,y,37,,0,right,right,,right,right,right,right,522,99500,,20405,10982,15087,522,2,legacy,824,1536,24,864,24,0,0,1536,1632986343797,6,1024,2,48000,-16,experiment,0,even,Win32,9,537592,376060,,534330,111,535366,309745,111,20518,105596,539594,536376,540125,111,539594,Sternberg_updated,63,45967,66,yes,1024
96,96,692,692,black,no,experiment,Mozilla,Netscape,"5.0 (Windows NT 10.0; Win64; x64) AppleWebKit/537.36 (KHTML, like Gecko) Chrome/94.0.4606.61 Safari/537.36",legacy,legacy,legacy,0,uniform,1,1,right,66,66,66,66,0,0,0,66,66,0,0,0,66,66,66,0,0,66,66,0,30-08-21,30-08-21,09:18:10,Thu Sep 30 2021 09:18:10 GMT+0200 (hora de verano de Europa central),The main experiment item,yes,0,0,/Users/ethan/Documents/GitHub/OpenSesame/Sternberg/experiment_files,0,0,0,no,mono,no,18,no,white,no,no,768,108,3.6.1,legacy,legacy,8,osweb,1.4.0,1,1,y,37,,0,right,right,,right,right,right,right,422,99500,,20405,10982,15087,422,2,legacy,824,1536,24,864,24,0,0,1536,1632986343797,1,1024,2,48000,-16,experiment,0,even,Win32,8,543392,376060,,540127,111,541165,309745,111,20518,105596,545410,542176,545842,111,545410,Sternberg_updated,64,46389,67,yes,1024
96,96,689,689,black,no,experiment,Mozilla,Netscape,"5.0 (Windows NT 10.0; Win64; x64) AppleWebKit/537.36 (KHTML, like Gecko) Chrome/94.0.4606.61 Safari/537.36",legacy,legacy,legacy,0,uniform,1,1,right,67,67,67,67,0,0,0,67,67,0,0,0,67,67,67,0,0,67,67,0,30-08-21,30-08-21,09:18:10,Thu Sep 30 2021 09:18:10 GMT+0200 (hora de verano de Europa central),The main experiment item,yes,0,0,/Users/ethan/Documents/GitHub/OpenSesame/Sternberg/experiment_files,0,0,0,no,mono,no,18,no,white,no,no,768,108,3.6.1,legacy,legacy,6 1 2,osweb,1.4.0,1,3,y,37,,0,right,right,,right,right,right,right,492,99500,,20405,10982,15087,492,2,legacy,824,1536,24,864,24,0,0,1536,1632986343797,3,1024,2,48000,-16,experiment,0,even,Win32,2,549110,376060,,545843,111,546882,309745,111,20518,105596,551126,547892,551626,111,551126,Sternberg_updated,65,46881,68,yes,1024
96,96,693,693,black,no,experiment,Mozilla,Netscape,"5.0 (Windows NT 10.0; Win64; x64) AppleWebKit/537.36 (KHTML, like Gecko) Chrome/94.0.4606.61 Safari/537.36",legacy,legacy,legacy,0,uniform,1,1,left,68,68,68,68,0,0,0,68,68,0,0,0,68,68,68,0,0,68,68,0,30-08-21,30-08-21,09:18:10,Thu Sep 30 2021 09:18:10 GMT+0200 (hora de verano de Europa central),The main experiment item,yes,0,0,/Users/ethan/Documents/GitHub/OpenSesame/Sternberg/experiment_files,0,0,0,no,mono,no,18,no,white,no,no,768,108,3.6.1,legacy,legacy,1 7 5 2,osweb,1.4.0,1,0,n,37,,0,left,right,,right,right,right,left,909,99500,,20405,10982,15087,909,2,legacy,824,1536,24,864,24,0,0,1536,1632986343797,4,1024,2,48000,-16,experiment,0,even,Win32,3,554894,376060,,551627,111,552668,309745,111,20518,105596,556911,553676,557826,111,556911,Sternberg_updated,66,47790,69,yes,1024
96,96,694,694,black,no,experiment,Mozilla,Netscape,"5.0 (Windows NT 10.0; Win64; x64) AppleWebKit/537.36 (KHTML, like Gecko) Chrome/94.0.4606.61 Safari/537.36",legacy,legacy,legacy,0,uniform,1,1,right,69,69,69,69,0,0,0,69,69,0,0,0,69,69,69,0,0,69,69,0,30-08-21,30-08-21,09:18:10,Thu Sep 30 2021 09:18:10 GMT+0200 (hora de verano de Europa central),The main experiment item,yes,0,0,/Users/ethan/Documents/GitHub/OpenSesame/Sternberg/experiment_files,0,0,0,no,mono,no,18,no,white,no,no,768,108,3.6.1,legacy,legacy,4 6 2 5 1,osweb,1.4.0,1,5,y,37,,0,right,right,,right,right,right,right,793,99500,,20405,10982,15087,793,2,legacy,824,1536,24,864,24,0,0,1536,1632986343797,5,1024,2,48000,-16,experiment,0,even,Win32,1,561077,376060,,557827,111,558866,309745,111,20518,105596,563093,559876,563892,111,563093,Sternberg_updated,67,48583,70,yes,1024
96,96,693,693,black,no,experiment,Mozilla,Netscape,"5.0 (Windows NT 10.0; Win64; x64) AppleWebKit/537.36 (KHTML, like Gecko) Chrome/94.0.4606.61 Safari/537.36",legacy,legacy,legacy,0,uniform,1,1,left,70,70,70,70,0,0,0,70,70,0,0,0,70,70,70,0,0,70,70,0,30-08-21,30-08-21,09:18:10,Thu Sep 30 2021 09:18:10 GMT+0200 (hora de verano de Europa central),The main experiment item,yes,0,0,/Users/ethan/Documents/GitHub/OpenSesame/Sternberg/experiment_files,0,0,0,no,mono,no,18,no,white,no,no,768,108,3.6.1,legacy,legacy,5,osweb,1.4.0,1,0,n,37,,0,left,right,,right,right,right,left,646,99500,,20405,10982,15087,646,2,legacy,824,1536,24,864,24,0,0,1536,1632986343797,1,1024,2,48000,-16,experiment,0,even,Win32,8,567159,376060,,563893,111,564933,309745,111,20518,105596,569176,565942,569825,111,569176,Sternberg_updated,68,49229,71,yes,1024
96,96,696,696,black,no,experiment,Mozilla,Netscape,"5.0 (Windows NT 10.0; Win64; x64) AppleWebKit/537.36 (KHTML, like Gecko) Chrome/94.0.4606.61 Safari/537.36",legacy,legacy,legacy,0,uniform,1,1,left,71,71,71,71,0,0,0,71,71,0,0,0,71,71,71,0,0,71,71,0,30-08-21,30-08-21,09:18:10,Thu Sep 30 2021 09:18:10 GMT+0200 (hora de verano de Europa central),The main experiment item,yes,0,0,/Users/ethan/Documents/GitHub/OpenSesame/Sternberg/experiment_files,0,0,0,no,mono,no,18,no,white,no,no,768,108,3.6.1,legacy,legacy,8 4 3 5,osweb,1.4.0,1,0,n,37,,0,left,right,,right,right,right,left,890,99500,,20405,10982,15087,890,2,legacy,824,1536,24,864,24,0,0,1536,1632986343797,4,1024,2,48000,-16,experiment,0,even,Win32,6,573077,376060,,569828,111,570866,309745,111,20518,105596,575093,571876,575992,111,575093,Sternberg_updated,69,50119,72,yes,1024
96,96,697,697,black,no,experiment,Mozilla,Netscape,"5.0 (Windows NT 10.0; Win64; x64) AppleWebKit/537.36 (KHTML, like Gecko) Chrome/94.0.4606.61 Safari/537.36",legacy,legacy,legacy,0,uniform,1,1,right,72,72,72,72,0,0,0,72,72,0,0,0,72,72,72,0,0,72,72,0,30-08-21,30-08-21,09:18:10,Thu Sep 30 2021 09:18:10 GMT+0200 (hora de verano de Europa central),The main experiment item,yes,0,0,/Users/ethan/Documents/GitHub/OpenSesame/Sternberg/experiment_files,0,0,0,no,mono,no,18,no,white,no,no,768,108,3.6.1,legacy,legacy,5 2 9 6 1 7,osweb,1.4.0,1,3,y,37,,0,right,right,,right,right,right,right,783,99500,,20405,10982,15087,783,2,legacy,824,1536,24,864,24,0,0,1536,1632986343797,6,1024,2,48000,-16,experiment,0,even,Win32,9,579259,376060,,575993,111,577032,309745,111,20518,105596,581276,578043,582075,111,581276,Sternberg_updated,70,50902,73,yes,1024
96,96,695,695,black,no,experiment,Mozilla,Netscape,"5.0 (Windows NT 10.0; Win64; x64) AppleWebKit/537.36 (KHTML, like Gecko) Chrome/94.0.4606.61 Safari/537.36",legacy,legacy,legacy,0,uniform,1,1,left,73,73,73,73,0,0,0,73,73,0,0,0,73,73,73,0,0,73,73,0,30-08-21,30-08-21,09:18:10,Thu Sep 30 2021 09:18:10 GMT+0200 (hora de verano de Europa central),The main experiment item,yes,0,0,/Users/ethan/Documents/GitHub/OpenSesame/Sternberg/experiment_files,0,0,0,no,mono,no,18,no,white,no,no,768,108,3.6.1,legacy,legacy,7 1,osweb,1.4.0,1,0,n,37,,0,left,right,,right,right,right,left,564,99500,,20405,10982,15087,564,2,legacy,824,1536,24,864,24,0,0,1536,1632986343797,2,1024,2,48000,-16,experiment,0,even,Win32,8,585342,376060,,582076,111,583117,309745,111,20518,105596,587360,584127,587925,111,587360,Sternberg_updated,71,51466,74,yes,1024
96,96,698,698,black,no,experiment,Mozilla,Netscape,"5.0 (Windows NT 10.0; Win64; x64) AppleWebKit/537.36 (KHTML, like Gecko) Chrome/94.0.4606.61 Safari/537.36",legacy,legacy,legacy,0,uniform,1,1,left,74,74,74,74,0,0,0,74,74,0,0,0,74,74,74,0,0,74,74,0,30-08-21,30-08-21,09:18:10,Thu Sep 30 2021 09:18:10 GMT+0200 (hora de verano de Europa central),The main experiment item,yes,0,0,/Users/ethan/Documents/GitHub/OpenSesame/Sternberg/experiment_files,0,0,0,no,mono,no,18,no,white,no,no,768,108,3.6.1,legacy,legacy,1 4 9 2 5,osweb,1.4.0,1,0,n,37,,0,left,right,,right,right,right,left,847,99500,,20405,10982,15087,847,2,legacy,824,1536,24,864,24,0,0,1536,1632986343797,5,1024,2,48000,-16,experiment,0,even,Win32,7,591192,376060,,587926,111,588967,309745,111,20518,105596,593209,589976,594059,111,593209,Sternberg_updated,72,52313,75,yes,1024
96,96,697,697,black,no,experiment,Mozilla,Netscape,"5.0 (Windows NT 10.0; Win64; x64) AppleWebKit/537.36 (KHTML, like Gecko) Chrome/94.0.4606.61 Safari/537.36",legacy,legacy,legacy,0,uniform,1,1,left,75,75,75,75,0,0,0,75,75,0,0,0,75,75,75,0,0,75,75,0,30-08-21,30-08-21,09:18:10,Thu Sep 30 2021 09:18:10 GMT+0200 (hora de verano de Europa central),The main experiment item,yes,0,0,/Users/ethan/Documents/GitHub/OpenSesame/Sternberg/experiment_files,0,0,0,no,mono,no,18,no,white,no,no,768,108,3.6.1,legacy,legacy,7 1 5 6 3,osweb,1.4.0,1,0,n,37,,0,left,right,,right,right,right,left,686,99500,,20405,10982,15087,686,2,legacy,824,1536,24,864,24,0,0,1536,1632986343797,5,1024,2,48000,-16,experiment,0,even,Win32,8,597310,376060,,594060,111,595102,309745,111,20518,105596,599326,596109,600025,111,599326,Sternberg_updated,73,52999,76,yes,1024
96,96,698,698,black,no,experiment,Mozilla,Netscape,"5.0 (Windows NT 10.0; Win64; x64) AppleWebKit/537.36 (KHTML, like Gecko) Chrome/94.0.4606.61 Safari/537.36",legacy,legacy,legacy,0,uniform,1,1,right,76,76,76,76,0,0,0,76,76,0,0,0,76,76,76,0,0,76,76,0,30-08-21,30-08-21,09:18:10,Thu Sep 30 2021 09:18:10 GMT+0200 (hora de verano de Europa central),The main experiment item,yes,0,0,/Users/ethan/Documents/GitHub/OpenSesame/Sternberg/experiment_files,0,0,0,no,mono,no,18,no,white,no,no,768,108,3.6.1,legacy,legacy,3 2 1 4 7,osweb,1.4.0,1,2,y,37,,0,right,right,,right,right,right,right,780,99500,,20405,10982,15087,780,2,legacy,824,1536,24,864,24,0,0,1536,1632986343797,5,1024,2,48000,-16,experiment,0,even,Win32,2,603293,376060,,600026,111,601067,309745,111,20518,105596,605309,602077,606092,111,605309,Sternberg_updated,74,53779,77,yes,1024
96,96,697,697,black,no,experiment,Mozilla,Netscape,"5.0 (Windows NT 10.0; Win64; x64) AppleWebKit/537.36 (KHTML, like Gecko) Chrome/94.0.4606.61 Safari/537.36",legacy,legacy,legacy,0,uniform,1,1,right,77,77,77,77,0,0,0,77,77,0,0,0,77,77,77,0,0,77,77,0,30-08-21,30-08-21,09:18:10,Thu Sep 30 2021 09:18:10 GMT+0200 (hora de verano de Europa central),The main experiment item,yes,0,0,/Users/ethan/Documents/GitHub/OpenSesame/Sternberg/experiment_files,0,0,0,no,mono,no,18,no,white,no,no,768,108,3.6.1,legacy,legacy,9 1 6 7 8,osweb,1.4.0,1,1,y,37,,0,right,right,,right,right,right,right,566,99500,,20405,10982,15087,566,2,legacy,824,1536,24,864,24,0,0,1536,1632986343797,5,1024,2,48000,-16,experiment,0,even,Win32,9,609359,376060,,606093,111,607133,309745,111,20518,105596,611378,608142,611959,111,611378,Sternberg_updated,75,54345,78,yes,1024
96,96,696,696,black,no,experiment,Mozilla,Netscape,"5.0 (Windows NT 10.0; Win64; x64) AppleWebKit/537.36 (KHTML, like Gecko) Chrome/94.0.4606.61 Safari/537.36",legacy,legacy,legacy,0,uniform,1,1,right,78,78,78,78,0,0,0,78,78,0,0,0,78,78,78,0,0,78,78,0,30-08-21,30-08-21,09:18:10,Thu Sep 30 2021 09:18:10 GMT+0200 (hora de verano de Europa central),The main experiment item,yes,0,0,/Users/ethan/Documents/GitHub/OpenSesame/Sternberg/experiment_files,0,0,0,no,mono,no,18,no,white,no,no,768,108,3.6.1,legacy,legacy,8 9 5 6 7,osweb,1.4.0,1,1,y,37,,0,right,right,,right,right,right,right,626,99500,,20405,10982,15087,626,2,legacy,824,1536,24,864,24,0,0,1536,1632986343797,5,1024,2,48000,-16,experiment,0,even,Win32,8,615225,376060,,611960,111,612999,309745,111,20518,105596,617242,614010,617875,111,617242,Sternberg_updated,76,54971,79,yes,1024
96,96,698,698,black,no,experiment,Mozilla,Netscape,"5.0 (Windows NT 10.0; Win64; x64) AppleWebKit/537.36 (KHTML, like Gecko) Chrome/94.0.4606.61 Safari/537.36",legacy,legacy,legacy,0,uniform,1,1,left,79,79,79,79,0,0,0,79,79,0,0,0,79,79,79,0,0,79,79,0,30-08-21,30-08-21,09:18:10,Thu Sep 30 2021 09:18:10 GMT+0200 (hora de verano de Europa central),The main experiment item,yes,0,0,/Users/ethan/Documents/GitHub/OpenSesame/Sternberg/experiment_files,0,0,0,no,mono,no,18,no,white,no,no,768,108,3.6.1,legacy,legacy,7 6 4 8 1 2,osweb,1.4.0,1,0,n,37,,0,left,right,,right,right,right,left,842,99500,,20405,10982,15087,842,2,legacy,824,1536,24,864,24,0,0,1536,1632986343797,6,1024,2,48000,-16,experiment,0,even,Win32,9,621142,376060,,617876,111,618918,309745,111,20518,105596,623160,619926,624009,111,623160,Sternberg_updated,77,55813,80,yes,1024
95,95,698,698,black,no,experiment,Mozilla,Netscape,"5.0 (Windows NT 10.0; Win64; x64) AppleWebKit/537.36 (KHTML, like Gecko) Chrome/94.0.4606.61 Safari/537.36",legacy,legacy,legacy,0,uniform,0,0,right,80,80,80,80,0,0,0,80,80,0,0,0,80,80,80,0,0,80,80,0,30-08-21,30-08-21,09:18:10,Thu Sep 30 2021 09:18:10 GMT+0200 (hora de verano de Europa central),The main experiment item,yes,0,0,/Users/ethan/Documents/GitHub/OpenSesame/Sternberg/experiment_files,0,0,0,no,mono,no,18,no,white,no,no,768,108,3.6.1,legacy,legacy,2 3 7 4,osweb,1.4.0,1,1,y,37,,0,left,right,,right,right,right,left,750,99500,,20405,10982,15087,750,2,legacy,824,1536,24,864,24,0,0,1536,1632986343797,4,1024,2,48000,-16,experiment,0,even,Win32,2,627275,376060,,624010,111,625048,309745,111,20518,105596,629277,626059,630043,111,629277,Sternberg_updated,77,56563,81,yes,1024
95,95,697,697,black,no,experiment,Mozilla,Netscape,"5.0 (Windows NT 10.0; Win64; x64) AppleWebKit/537.36 (KHTML, like Gecko) Chrome/94.0.4606.61 Safari/537.36",legacy,legacy,legacy,0,uniform,1,1,right,81,81,81,81,0,0,0,81,81,0,0,0,81,81,81,0,0,81,81,0,30-08-21,30-08-21,09:18:10,Thu Sep 30 2021 09:18:10 GMT+0200 (hora de verano de Europa central),The main experiment item,yes,0,0,/Users/ethan/Documents/GitHub/OpenSesame/Sternberg/experiment_files,0,0,0,no,mono,no,18,no,white,no,no,768,108,3.6.1,legacy,legacy,4 6 5 8,osweb,1.4.0,1,1,y,37,,0,right,right,,right,right,right,right,621,99500,,20405,10982,15087,621,2,legacy,824,1536,24,864,24,0,0,1536,1632986343797,4,1024,2,48000,-16,experiment,0,even,Win32,4,633309,376060,,624010,111,631089,630044,111,20518,105596,635310,632093,635942,111,635310,Sternberg_updated,78,57184,82,yes,1024
95,95,694,694,black,no,experiment,Mozilla,Netscape,"5.0 (Windows NT 10.0; Win64; x64) AppleWebKit/537.36 (KHTML, like Gecko) Chrome/94.0.4606.61 Safari/537.36",legacy,legacy,legacy,0,uniform,1,1,right,82,82,82,82,0,0,0,82,82,0,0,0,82,82,82,0,0,82,82,0,30-08-21,30-08-21,09:18:10,Thu Sep 30 2021 09:18:10 GMT+0200 (hora de verano de Europa central),The main experiment item,yes,0,0,/Users/ethan/Documents/GitHub/OpenSesame/Sternberg/experiment_files,0,0,0,no,mono,no,18,no,white,no,no,768,108,3.6.1,legacy,legacy,7,osweb,1.4.0,1,1,y,37,,0,right,right,,right,right,right,right,452,99500,,20405,10982,15087,452,2,legacy,824,1536,24,864,24,0,0,1536,1632986343797,1,1024,2,48000,-16,experiment,0,even,Win32,7,639192,376060,,635943,111,636970,630044,111,20518,105596,641209,637976,641675,111,641209,Sternberg_updated,79,57636,83,yes,1024
95,95,693,693,black,no,experiment,Mozilla,Netscape,"5.0 (Windows NT 10.0; Win64; x64) AppleWebKit/537.36 (KHTML, like Gecko) Chrome/94.0.4606.61 Safari/537.36",legacy,legacy,legacy,0,uniform,1,1,left,83,83,83,83,0,0,0,83,83,0,0,0,83,83,83,0,0,83,83,0,30-08-21,30-08-21,09:18:10,Thu Sep 30 2021 09:18:10 GMT+0200 (hora de verano de Europa central),The main experiment item,yes,0,0,/Users/ethan/Documents/GitHub/OpenSesame/Sternberg/experiment_files,0,0,0,no,mono,no,18,no,white,no,no,768,108,3.6.1,legacy,legacy,7 9 1 6,osweb,1.4.0,1,0,n,37,,0,left,right,,right,right,right,left,536,99500,,20405,10982,15087,536,2,legacy,824,1536,24,864,24,0,0,1536,1632986343797,4,1024,2,48000,-16,experiment,0,even,Win32,4,644942,376060,,641677,111,642717,630044,111,20518,105596,646959,643726,647508,111,646959,Sternberg_updated,80,58172,84,yes,1024
95,95,691,691,black,no,experiment,Mozilla,Netscape,"5.0 (Windows NT 10.0; Win64; x64) AppleWebKit/537.36 (KHTML, like Gecko) Chrome/94.0.4606.61 Safari/537.36",legacy,legacy,legacy,0,uniform,1,1,left,84,84,84,84,0,0,0,84,84,0,0,0,84,84,84,0,0,84,84,0,30-08-21,30-08-21,09:18:10,Thu Sep 30 2021 09:18:10 GMT+0200 (hora de verano de Europa central),The main experiment item,yes,0,0,/Users/ethan/Documents/GitHub/OpenSesame/Sternberg/experiment_files,0,0,0,no,mono,no,18,no,white,no,no,768,108,3.6.1,legacy,legacy,4 8 1 2,osweb,1.4.0,1,0,n,37,,0,left,right,,right,right,right,left,574,99500,,20405,10982,15087,574,2,legacy,824,1536,24,864,24,0,0,1536,1632986343797,4,1024,2,48000,-16,experiment,0,even,Win32,7,650760,376060,,647509,111,648550,630044,111,20518,105596,652776,649559,653358,111,652775,Sternberg_updated,81,58746,85,yes,1024
95,95,692,692,black,no,experiment,Mozilla,Netscape,"5.0 (Windows NT 10.0; Win64; x64) AppleWebKit/537.36 (KHTML, like Gecko) Chrome/94.0.4606.61 Safari/537.36",legacy,legacy,legacy,0,uniform,1,1,left,85,85,85,85,0,0,0,85,85,0,0,0,85,85,85,0,0,85,85,0,30-08-21,30-08-21,09:18:10,Thu Sep 30 2021 09:18:10 GMT+0200 (hora de verano de Europa central),The main experiment item,yes,0,0,/Users/ethan/Documents/GitHub/OpenSesame/Sternberg/experiment_files,0,0,0,no,mono,no,18,no,white,no,no,768,108,3.6.1,legacy,legacy,6 9 4 5 3 2,osweb,1.4.0,1,0,n,37,,0,left,right,,right,right,right,left,728,99500,,20405,10982,15087,728,2,legacy,824,1536,24,864,24,0,0,1536,1632986343797,6,1024,2,48000,-16,experiment,0,even,Win32,8,656626,376060,,653360,111,654398,630044,111,20518,105596,658642,655409,659375,111,658642,Sternberg_updated,82,59474,86,yes,1024
95,95,689,689,black,no,experiment,Mozilla,Netscape,"5.0 (Windows NT 10.0; Win64; x64) AppleWebKit/537.36 (KHTML, like Gecko) Chrome/94.0.4606.61 Safari/537.36",legacy,legacy,legacy,0,uniform,1,1,right,86,86,86,86,0,0,0,86,86,0,0,0,86,86,86,0,0,86,86,0,30-08-21,30-08-21,09:18:10,Thu Sep 30 2021 09:18:10 GMT+0200 (hora de verano de Europa central),The main experiment item,yes,0,0,/Users/ethan/Documents/GitHub/OpenSesame/Sternberg/experiment_files,0,0,0,no,mono,no,18,no,white,no,no,768,108,3.6.1,legacy,legacy,8 1 6,osweb,1.4.0,1,3,y,37,,0,right,right,,right,right,right,right,464,99500,,20405,10982,15087,464,2,legacy,824,1536,24,864,24,0,0,1536,1632986343797,3,1024,2,48000,-16,experiment,0,even,Win32,6,662627,376060,,659376,111,660418,630044,111,20518,105596,664642,661426,665108,111,664642,Sternberg_updated,83,59938,87,yes,1024
95,95,687,687,black,no,experiment,Mozilla,Netscape,"5.0 (Windows NT 10.0; Win64; x64) AppleWebKit/537.36 (KHTML, like Gecko) Chrome/94.0.4606.61 Safari/537.36",legacy,legacy,legacy,0,uniform,1,1,right,87,87,87,87,0,0,0,87,87,0,0,0,87,87,87,0,0,87,87,0,30-08-21,30-08-21,09:18:10,Thu Sep 30 2021 09:18:10 GMT+0200 (hora de verano de Europa central),The main experiment item,yes,0,0,/Users/ethan/Documents/GitHub/OpenSesame/Sternberg/experiment_files,0,0,0,no,mono,no,18,no,white,no,no,768,108,3.6.1,legacy,legacy,4 1 5,osweb,1.4.0,1,2,y,37,,0,right,right,,right,right,right,right,546,99500,,20405,10982,15087,546,2,legacy,824,1536,24,864,24,0,0,1536,1632986343797,3,1024,2,48000,-16,experiment,0,even,Win32,1,668376,376060,,665109,111,666152,630044,111,20518,105596,670392,667159,670942,111,670392,Sternberg_updated,84,60484,88,yes,1024
96,96,685,685,black,no,experiment,Mozilla,Netscape,"5.0 (Windows NT 10.0; Win64; x64) AppleWebKit/537.36 (KHTML, like Gecko) Chrome/94.0.4606.61 Safari/537.36",legacy,legacy,legacy,0,uniform,1,1,left,88,88,88,88,0,0,0,88,88,0,0,0,88,88,88,0,0,88,88,0,30-08-21,30-08-21,09:18:10,Thu Sep 30 2021 09:18:10 GMT+0200 (hora de verano de Europa central),The main experiment item,yes,0,0,/Users/ethan/Documents/GitHub/OpenSesame/Sternberg/experiment_files,0,0,0,no,mono,no,18,no,white,no,no,768,108,3.6.1,legacy,legacy,1 4 9 3,osweb,1.4.0,1,0,n,37,,0,left,right,,right,right,right,left,493,99500,,20405,10982,15087,493,2,legacy,824,1536,24,864,24,0,0,1536,1632986343797,4,1024,2,48000,-16,experiment,0,even,Win32,5,674209,376060,,670943,111,671982,630044,111,20518,105596,676225,672992,676725,111,676225,Sternberg_updated,85,60977,89,yes,1024
96,96,683,683,black,no,experiment,Mozilla,Netscape,"5.0 (Windows NT 10.0; Win64; x64) AppleWebKit/537.36 (KHTML, like Gecko) Chrome/94.0.4606.61 Safari/537.36",legacy,legacy,legacy,0,uniform,1,1,right,89,89,89,89,0,0,0,89,89,0,0,0,89,89,89,0,0,89,89,0,30-08-21,30-08-21,09:18:10,Thu Sep 30 2021 09:18:10 GMT+0200 (hora de verano de Europa central),The main experiment item,yes,0,0,/Users/ethan/Documents/GitHub/OpenSesame/Sternberg/experiment_files,0,0,0,no,mono,no,18,no,white,no,no,768,108,3.6.1,legacy,legacy,7 1 8 5 6 2,osweb,1.4.0,1,2,y,37,,0,right,right,,right,right,right,right,525,99500,,20405,10982,15087,525,2,legacy,824,1536,24,864,24,0,0,1536,1632986343797,6,1024,2,48000,-16,experiment,0,even,Win32,1,679992,376060,,676726,111,677767,630044,111,20518,105596,682009,678776,682542,111,682009,Sternberg_updated,86,61502,90,yes,1024
96,96,681,681,black,no,experiment,Mozilla,Netscape,"5.0 (Windows NT 10.0; Win64; x64) AppleWebKit/537.36 (KHTML, like Gecko) Chrome/94.0.4606.61 Safari/537.36",legacy,legacy,legacy,0,uniform,1,1,right,90,90,90,90,0,0,0,90,90,0,0,0,90,90,90,0,0,90,90,0,30-08-21,30-08-21,09:18:10,Thu Sep 30 2021 09:18:10 GMT+0200 (hora de verano de Europa central),The main experiment item,yes,0,0,/Users/ethan/Documents/GitHub/OpenSesame/Sternberg/experiment_files,0,0,0,no,mono,no,18,no,white,no,no,768,108,3.6.1,legacy,legacy,9 4 2,osweb,1.4.0,1,1,y,37,,0,right,right,,right,right,right,right,489,99500,,20405,10982,15087,489,2,legacy,824,1536,24,864,24,0,0,1536,1632986343797,3,1024,2,48000,-16,experiment,0,even,Win32,9,685808,376060,,682543,111,683584,630044,111,20518,105596,687825,684593,688325,111,687825,Sternberg_updated,87,61991,91,yes,1024
96,96,680,680,black,no,experiment,Mozilla,Netscape,"5.0 (Windows NT 10.0; Win64; x64) AppleWebKit/537.36 (KHTML, like Gecko) Chrome/94.0.4606.61 Safari/537.36",legacy,legacy,legacy,0,uniform,1,1,left,91,91,91,91,0,0,0,91,91,0,0,0,91,91,91,0,0,91,91,0,30-08-21,30-08-21,09:18:10,Thu Sep 30 2021 09:18:10 GMT+0200 (hora de verano de Europa central),The main experiment item,yes,0,0,/Users/ethan/Documents/GitHub/OpenSesame/Sternberg/experiment_files,0,0,0,no,mono,no,18,no,white,no,no,768,108,3.6.1,legacy,legacy,7 8 6 1,osweb,1.4.0,1,0,n,37,,0,left,right,,right,right,right,left,564,99500,,20405,10982,15087,564,2,legacy,824,1536,24,864,24,0,0,1536,1632986343797,4,1024,2,48000,-16,experiment,0,even,Win32,3,691592,376060,,688326,111,689374,630044,111,20518,105596,693594,690375,694158,111,693594,Sternberg_updated,88,62555,92,yes,1024
96,96,678,678,black,no,experiment,Mozilla,Netscape,"5.0 (Windows NT 10.0; Win64; x64) AppleWebKit/537.36 (KHTML, like Gecko) Chrome/94.0.4606.61 Safari/537.36",legacy,legacy,legacy,0,uniform,1,1,right,92,92,92,92,0,0,0,92,92,0,0,0,92,92,92,0,0,92,92,0,30-08-21,30-08-21,09:18:10,Thu Sep 30 2021 09:18:10 GMT+0200 (hora de verano de Europa central),The main experiment item,yes,0,0,/Users/ethan/Documents/GitHub/OpenSesame/Sternberg/experiment_files,0,0,0,no,mono,no,18,no,white,no,no,768,108,3.6.1,legacy,legacy,8 9 6 1,osweb,1.4.0,1,2,y,37,,0,right,right,,right,right,right,right,461,99500,,20405,10982,15087,461,2,legacy,824,1536,24,864,24,0,0,1536,1632986343797,4,1024,2,48000,-16,experiment,0,even,Win32,9,697425,376060,,694159,111,695202,630044,111,20518,105596,699442,696209,699908,111,699442,Sternberg_updated,89,63016,93,yes,1024
96,96,676,676,black,no,experiment,Mozilla,Netscape,"5.0 (Windows NT 10.0; Win64; x64) AppleWebKit/537.36 (KHTML, like Gecko) Chrome/94.0.4606.61 Safari/537.36",legacy,legacy,legacy,0,uniform,1,1,right,93,93,93,93,0,0,0,93,93,0,0,0,93,93,93,0,0,93,93,0,30-08-21,30-08-21,09:18:10,Thu Sep 30 2021 09:18:10 GMT+0200 (hora de verano de Europa central),The main experiment item,yes,0,0,/Users/ethan/Documents/GitHub/OpenSesame/Sternberg/experiment_files,0,0,0,no,mono,no,18,no,white,no,no,768,108,3.6.1,legacy,legacy,4 1 8 7 5,osweb,1.4.0,1,3,y,37,,0,right,right,,right,right,right,right,487,99500,,20405,10982,15087,487,2,legacy,824,1536,24,864,24,0,0,1536,1632986343797,5,1024,2,48000,-16,experiment,0,even,Win32,8,703175,376060,,699911,111,700948,630044,111,20518,105596,705192,701959,705693,111,705192,Sternberg_updated,90,63503,94,yes,1024
95,95,673,673,black,no,experiment,Mozilla,Netscape,"5.0 (Windows NT 10.0; Win64; x64) AppleWebKit/537.36 (KHTML, like Gecko) Chrome/94.0.4606.61 Safari/537.36",legacy,legacy,legacy,0,uniform,0,0,left,94,94,94,94,0,0,0,94,94,0,0,0,94,94,94,0,0,94,94,0,30-08-21,30-08-21,09:18:10,Thu Sep 30 2021 09:18:10 GMT+0200 (hora de verano de Europa central),The main experiment item,yes,0,0,/Users/ethan/Documents/GitHub/OpenSesame/Sternberg/experiment_files,0,0,0,no,mono,no,18,no,white,no,no,768,108,3.6.1,legacy,legacy,1 6 4 3 9 7,osweb,1.4.0,1,0,n,37,,0,right,right,,right,right,right,right,440,99500,,20405,10982,15087,440,2,legacy,824,1536,24,864,24,0,0,1536,1632986343797,6,1024,2,48000,-16,experiment,0,even,Win32,8,708958,376060,,705694,111,706731,630044,111,20518,105596,710975,707743,711425,111,710975,Sternberg_updated,90,63943,95,yes,1024
95,95,672,672,black,no,experiment,Mozilla,Netscape,"5.0 (Windows NT 10.0; Win64; x64) AppleWebKit/537.36 (KHTML, like Gecko) Chrome/94.0.4606.61 Safari/537.36",legacy,legacy,legacy,0,uniform,1,1,left,95,95,95,95,0,0,0,95,95,0,0,0,95,95,95,0,0,95,95,0,30-08-21,30-08-21,09:18:10,Thu Sep 30 2021 09:18:10 GMT+0200 (hora de verano de Europa central),The main experiment item,yes,0,0,/Users/ethan/Documents/GitHub/OpenSesame/Sternberg/experiment_files,0,0,0,no,mono,no,18,no,white,no,no,768,108,3.6.1,legacy,legacy,2 3 8 5 6 7,osweb,1.4.0,1,0,n,37,,0,left,right,,right,right,right,left,541,99500,,20405,10982,15087,541,2,legacy,824,1536,24,864,24,0,0,1536,1632986343797,6,1024,2,48000,-16,experiment,0,even,Win32,1,714692,376060,,705694,111,712468,711426,111,20518,105596,716709,713477,717259,111,716709,Sternberg_updated,91,64484,96,yes,1024
95,95,671,671,black,no,experiment,Mozilla,Netscape,"5.0 (Windows NT 10.0; Win64; x64) AppleWebKit/537.36 (KHTML, like Gecko) Chrome/94.0.4606.61 Safari/537.36",legacy,legacy,legacy,0,uniform,1,1,left,96,96,96,96,0,0,0,96,96,0,0,0,96,96,96,0,0,96,96,0,30-08-21,30-08-21,09:18:10,Thu Sep 30 2021 09:18:10 GMT+0200 (hora de verano de Europa central),The main experiment item,yes,0,0,/Users/ethan/Documents/GitHub/OpenSesame/Sternberg/experiment_files,0,0,0,no,mono,no,18,no,white,no,no,768,108,3.6.1,legacy,legacy,1 7 5 2 9,osweb,1.4.0,1,0,n,37,,0,left,right,,right,right,right,left,573,99500,,20405,10982,15087,573,2,legacy,824,1536,24,864,24,0,0,1536,1632986343797,5,1024,2,48000,-16,experiment,0,even,Win32,3,720527,376060,,717260,111,718301,711426,111,20518,105596,722542,719309,723125,111,722542,Sternberg_updated,92,65057,97,yes,1024
95,95,670,670,black,no,experiment,Mozilla,Netscape,"5.0 (Windows NT 10.0; Win64; x64) AppleWebKit/537.36 (KHTML, like Gecko) Chrome/94.0.4606.61 Safari/537.36",legacy,legacy,legacy,0,uniform,1,1,right,97,97,97,97,0,0,0,97,97,0,0,0,97,97,97,0,0,97,97,0,30-08-21,30-08-21,09:18:10,Thu Sep 30 2021 09:18:10 GMT+0200 (hora de verano de Europa central),The main experiment item,yes,0,0,/Users/ethan/Documents/GitHub/OpenSesame/Sternberg/experiment_files,0,0,0,no,mono,no,18,no,white,no,no,768,108,3.6.1,legacy,legacy,8 5 4 7 3 1,osweb,1.4.0,1,2,y,37,,0,right,right,right,right,right,right,right,610,99500,55994,20405,10982,15087,610,2,legacy,824,1536,24,864,24,0,0,1536,1632986343797,6,1024,2,48000,-16,experiment,0,even,Win32,5,782391,376060,724142,723126,111,780164,711426,111,20518,105596,784409,781175,785026,111,784409,Sternberg_updated,93,65667,98,yes,1024
95,95,670,670,black,no,experiment,Mozilla,Netscape,"5.0 (Windows NT 10.0; Win64; x64) AppleWebKit/537.36 (KHTML, like Gecko) Chrome/94.0.4606.61 Safari/537.36",legacy,legacy,legacy,0,uniform,1,1,left,98,98,98,98,0,0,0,98,98,0,0,0,98,98,98,0,0,98,98,0,30-08-21,30-08-21,09:18:10,Thu Sep 30 2021 09:18:10 GMT+0200 (hora de verano de Europa central),The main experiment item,yes,0,0,/Users/ethan/Documents/GitHub/OpenSesame/Sternberg/experiment_files,0,0,0,no,mono,no,18,no,white,no,no,768,108,3.6.1,legacy,legacy,7 9,osweb,1.4.0,1,0,n,37,,0,left,right,right,right,right,right,left,633,99500,55994,20405,10982,15087,633,2,legacy,824,1536,24,864,24,0,0,1536,1632986343797,2,1024,2,48000,-16,experiment,0,even,Win32,1,788291,376060,724142,785027,111,786066,711426,111,20518,105596,790293,787075,790941,111,790293,Sternberg_updated,94,66300,99,yes,1024
95,95,668,668,black,no,experiment,Mozilla,Netscape,"5.0 (Windows NT 10.0; Win64; x64) AppleWebKit/537.36 (KHTML, like Gecko) Chrome/94.0.4606.61 Safari/537.36",legacy,legacy,legacy,0,uniform,1,1,right,99,99,99,99,0,0,0,99,99,0,0,0,99,99,99,0,0,99,99,0,30-08-21,30-08-21,09:18:10,Thu Sep 30 2021 09:18:10 GMT+0200 (hora de verano de Europa central),The main experiment item,yes,0,0,/Users/ethan/Documents/GitHub/OpenSesame/Sternberg/experiment_files,0,0,0,no,mono,no,18,no,white,no,no,768,108,3.6.1,legacy,legacy,3 4,osweb,1.4.0,1,1,y,37,,0,right,right,right,right,right,right,right,455,99500,55994,20405,10982,15087,455,2,legacy,824,1536,24,864,24,0,0,1536,1632986343797,2,1024,2,48000,-16,experiment,0,even,Win32,3,794208,376060,724142,790942,111,791986,711426,111,20518,105596,796225,792992,796691,111,796225,Sternberg_updated,95,66755,100,yes,1024
95,95,668,668,black,no,experiment,Mozilla,Netscape,"5.0 (Windows NT 10.0; Win64; x64) AppleWebKit/537.36 (KHTML, like Gecko) Chrome/94.0.4606.61 Safari/537.36",legacy,legacy,legacy,0,uniform,1,1,right,100,100,100,100,0,0,0,100,100,0,0,0,100,100,100,0,0,100,100,0,30-08-21,30-08-21,09:18:10,Thu Sep 30 2021 09:18:10 GMT+0200 (hora de verano de Europa central),The main experiment item,yes,0,0,/Users/ethan/Documents/GitHub/OpenSesame/Sternberg/experiment_files,0,0,0,no,mono,no,18,no,white,no,no,768,108,3.6.1,legacy,legacy,9 3 8 2 1 4,osweb,1.4.0,1,3,y,37,,0,right,right,right,right,right,right,right,667,99500,55994,20405,10982,15087,667,2,legacy,824,1536,24,864,24,0,0,1536,1632986343797,6,1024,2,48000,-16,experiment,0,even,Win32,8,799941,376060,724142,796692,111,797717,711426,111,20518,105596,801958,798725,802641,111,801958,Sternberg_updated,96,67422,101,yes,1024
95,95,668,668,black,no,experiment,Mozilla,Netscape,"5.0 (Windows NT 10.0; Win64; x64) AppleWebKit/537.36 (KHTML, like Gecko) Chrome/94.0.4606.61 Safari/537.36",legacy,legacy,legacy,0,uniform,1,1,left,101,101,101,101,0,0,0,101,101,0,0,0,101,101,101,0,0,101,101,0,30-08-21,30-08-21,09:18:10,Thu Sep 30 2021 09:18:10 GMT+0200 (hora de verano de Europa central),The main experiment item,yes,0,0,/Users/ethan/Documents/GitHub/OpenSesame/Sternberg/experiment_files,0,0,0,no,mono,no,18,no,white,no,no,768,108,3.6.1,legacy,legacy,5 2,osweb,1.4.0,1,0,n,37,,0,left,right,right,right,right,right,left,696,99500,55994,20405,10982,15087,696,2,legacy,824,1536,24,864,24,0,0,1536,1632986343797,2,1024,2,48000,-16,experiment,0,even,Win32,7,805909,376060,724142,802642,111,803681,711426,111,20518,105596,807925,804692,808624,111,807925,Sternberg_updated,97,68118,102,yes,1024
95,95,667,667,black,no,experiment,Mozilla,Netscape,"5.0 (Windows NT 10.0; Win64; x64) AppleWebKit/537.36 (KHTML, like Gecko) Chrome/94.0.4606.61 Safari/537.36",legacy,legacy,legacy,0,uniform,1,1,left,102,102,102,102,0,0,0,102,102,0,0,0,102,102,102,0,0,102,102,0,30-08-21,30-08-21,09:18:10,Thu Sep 30 2021 09:18:10 GMT+0200 (hora de verano de Europa central),The main experiment item,yes,0,0,/Users/ethan/Documents/GitHub/OpenSesame/Sternberg/experiment_files,0,0,0,no,mono,no,18,no,white,no,no,768,108,3.6.1,legacy,legacy,7 3 2 8,osweb,1.4.0,1,0,n,37,,0,left,right,right,right,right,right,left,615,99500,55994,20405,10982,15087,615,2,legacy,824,1536,24,864,24,0,0,1536,1632986343797,4,1024,2,48000,-16,experiment,0,even,Win32,4,811908,376060,724142,808625,111,809675,711426,111,20518,105596,813925,810693,814541,111,813925,Sternberg_updated,98,68733,103,yes,1024
95,95,667,667,black,no,experiment,Mozilla,Netscape,"5.0 (Windows NT 10.0; Win64; x64) AppleWebKit/537.36 (KHTML, like Gecko) Chrome/94.0.4606.61 Safari/537.36",legacy,legacy,legacy,0,uniform,1,1,left,103,103,103,103,0,0,0,103,103,0,0,0,103,103,103,0,0,103,103,0,30-08-21,30-08-21,09:18:10,Thu Sep 30 2021 09:18:10 GMT+0200 (hora de verano de Europa central),The main experiment item,yes,0,0,/Users/ethan/Documents/GitHub/OpenSesame/Sternberg/experiment_files,0,0,0,no,mono,no,18,no,white,no,no,768,108,3.6.1,legacy,legacy,1 7 8 3 9,osweb,1.4.0,1,0,n,37,,0,left,right,right,right,right,right,left,584,99500,55994,20405,10982,15087,584,2,legacy,824,1536,24,864,24,0,0,1536,1632986343797,5,1024,2,48000,-16,experiment,0,even,Win32,2,817809,376060,724142,814542,111,815581,711426,111,20518,105596,819825,816592,820424,111,819825,Sternberg_updated,99,69317,104,yes,1024
95,95,667,667,black,no,experiment,Mozilla,Netscape,"5.0 (Windows NT 10.0; Win64; x64) AppleWebKit/537.36 (KHTML, like Gecko) Chrome/94.0.4606.61 Safari/537.36",legacy,legacy,legacy,0,uniform,1,1,right,104,104,104,104,0,0,0,104,104,0,0,0,104,104,104,0,0,104,104,0,30-08-21,30-08-21,09:18:10,Thu Sep 30 2021 09:18:10 GMT+0200 (hora de verano de Europa central),The main experiment item,yes,0,0,/Users/ethan/Documents/GitHub/OpenSesame/Sternberg/experiment_files,0,0,0,no,mono,no,18,no,white,no,no,768,108,3.6.1,legacy,legacy,7 8 4 6 9 5,osweb,1.4.0,1,4,y,37,,0,right,right,right,right,right,right,right,674,99500,55994,20405,10982,15087,674,2,legacy,824,1536,24,864,24,0,0,1536,1632986343797,6,1024,2,48000,-16,experiment,0,even,Win32,6,823691,376060,724142,820425,111,821464,711426,111,20518,105596,825708,822475,826391,111,825708,Sternberg_updated,100,69991,105,yes,1024
95,95,669,669,black,no,experiment,Mozilla,Netscape,"5.0 (Windows NT 10.0; Win64; x64) AppleWebKit/537.36 (KHTML, like Gecko) Chrome/94.0.4606.61 Safari/537.36",legacy,legacy,legacy,0,uniform,1,1,left,105,105,105,105,0,0,0,105,105,0,0,0,105,105,105,0,0,105,105,0,30-08-21,30-08-21,09:18:10,Thu Sep 30 2021 09:18:10 GMT+0200 (hora de verano de Europa central),The main experiment item,yes,0,0,/Users/ethan/Documents/GitHub/OpenSesame/Sternberg/experiment_files,0,0,0,no,mono,no,18,no,white,no,no,768,108,3.6.1,legacy,legacy,3 9 1,osweb,1.4.0,1,0,n,37,,0,left,right,right,right,right,right,left,887,99500,55994,20405,10982,15087,887,2,legacy,824,1536,24,864,24,0,0,1536,1632986343797,3,1024,2,48000,-16,experiment,0,even,Win32,7,829659,376060,724142,826392,111,827438,711426,111,20518,105596,831675,828442,832575,111,831675,Sternberg_updated,101,70878,106,yes,1024
95,95,670,670,black,no,experiment,Mozilla,Netscape,"5.0 (Windows NT 10.0; Win64; x64) AppleWebKit/537.36 (KHTML, like Gecko) Chrome/94.0.4606.61 Safari/537.36",legacy,legacy,legacy,0,uniform,1,1,left,106,106,106,106,0,0,0,106,106,0,0,0,106,106,106,0,0,106,106,0,30-08-21,30-08-21,09:18:10,Thu Sep 30 2021 09:18:10 GMT+0200 (hora de verano de Europa central),The main experiment item,yes,0,0,/Users/ethan/Documents/GitHub/OpenSesame/Sternberg/experiment_files,0,0,0,no,mono,no,18,no,white,no,no,768,108,3.6.1,legacy,legacy,6 3 1 7 9 8,osweb,1.4.0,1,0,n,37,,0,left,right,right,right,right,right,left,833,99500,55994,20405,10982,15087,833,2,legacy,824,1536,24,864,24,0,0,1536,1632986343797,6,1024,2,48000,-16,experiment,0,even,Win32,4,835843,376060,724142,832576,111,833616,711426,111,20518,105596,837860,834625,838708,111,837860,Sternberg_updated,102,71711,107,yes,1024
95,95,670,670,black,no,experiment,Mozilla,Netscape,"5.0 (Windows NT 10.0; Win64; x64) AppleWebKit/537.36 (KHTML, like Gecko) Chrome/94.0.4606.61 Safari/537.36",legacy,legacy,legacy,0,uniform,1,1,left,107,107,107,107,0,0,0,107,107,0,0,0,107,107,107,0,0,107,107,0,30-08-21,30-08-21,09:18:10,Thu Sep 30 2021 09:18:10 GMT+0200 (hora de verano de Europa central),The main experiment item,yes,0,0,/Users/ethan/Documents/GitHub/OpenSesame/Sternberg/experiment_files,0,0,0,no,mono,no,18,no,white,no,no,768,108,3.6.1,legacy,legacy,9 7 4 5 8,osweb,1.4.0,1,0,n,37,,0,left,right,right,right,right,right,left,623,99500,55994,20405,10982,15087,623,2,legacy,824,1536,24,864,24,0,0,1536,1632986343797,5,1024,2,48000,-16,experiment,0,even,Win32,6,841959,376060,724142,838709,111,839749,711426,111,20518,105596,843975,840758,844608,111,843975,Sternberg_updated,103,72334,108,yes,1024
95,95,668,668,black,no,experiment,Mozilla,Netscape,"5.0 (Windows NT 10.0; Win64; x64) AppleWebKit/537.36 (KHTML, like Gecko) Chrome/94.0.4606.61 Safari/537.36",legacy,legacy,legacy,0,uniform,1,1,right,108,108,108,108,0,0,0,108,108,0,0,0,108,108,108,0,0,108,108,0,30-08-21,30-08-21,09:18:10,Thu Sep 30 2021 09:18:10 GMT+0200 (hora de verano de Europa central),The main experiment item,yes,0,0,/Users/ethan/Documents/GitHub/OpenSesame/Sternberg/experiment_files,0,0,0,no,mono,no,18,no,white,no,no,768,108,3.6.1,legacy,legacy,2 5 4 8 7,osweb,1.4.0,1,3,y,37,,0,right,right,right,right,right,right,right,502,99500,55994,20405,10982,15087,502,2,legacy,824,1536,24,864,24,0,0,1536,1632986343797,5,1024,2,48000,-16,experiment,0,even,Win32,4,847875,376060,724142,844610,111,845647,711426,111,20518,105596,849893,846659,850408,111,849893,Sternberg_updated,104,72836,109,yes,1024
95,95,668,668,black,no,experiment,Mozilla,Netscape,"5.0 (Windows NT 10.0; Win64; x64) AppleWebKit/537.36 (KHTML, like Gecko) Chrome/94.0.4606.61 Safari/537.36",legacy,legacy,legacy,0,uniform,1,1,left,109,109,109,109,0,0,0,109,109,0,0,0,109,109,109,0,0,109,109,0,30-08-21,30-08-21,09:18:10,Thu Sep 30 2021 09:18:10 GMT+0200 (hora de verano de Europa central),The main experiment item,yes,0,0,/Users/ethan/Documents/GitHub/OpenSesame/Sternberg/experiment_files,0,0,0,no,mono,no,18,no,white,no,no,768,108,3.6.1,legacy,legacy,6 9 5,osweb,1.4.0,1,0,n,37,,0,left,right,right,right,right,right,left,659,99500,55994,20405,10982,15087,659,2,legacy,824,1536,24,864,24,0,0,1536,1632986343797,3,1024,2,48000,-16,experiment,0,even,Win32,8,853660,376060,724142,850409,111,851448,711426,111,20518,105596,855676,852458,856341,111,855676,Sternberg_updated,105,73495,110,yes,1024
95,95,667,667,black,no,experiment,Mozilla,Netscape,"5.0 (Windows NT 10.0; Win64; x64) AppleWebKit/537.36 (KHTML, like Gecko) Chrome/94.0.4606.61 Safari/537.36",legacy,legacy,legacy,0,uniform,1,1,left,110,110,110,110,0,0,0,110,110,0,0,0,110,110,110,0,0,110,110,0,30-08-21,30-08-21,09:18:10,Thu Sep 30 2021 09:18:10 GMT+0200 (hora de verano de Europa central),The main experiment item,yes,0,0,/Users/ethan/Documents/GitHub/OpenSesame/Sternberg/experiment_files,0,0,0,no,mono,no,18,no,white,no,no,768,108,3.6.1,legacy,legacy,8 6 3 4 7,osweb,1.4.0,1,0,n,37,,0,left,right,right,right,right,right,left,535,99500,55994,20405,10982,15087,535,2,legacy,824,1536,24,864,24,0,0,1536,1632986343797,5,1024,2,48000,-16,experiment,0,even,Win32,1,859608,376060,724142,856342,111,857381,711426,111,20518,105596,861625,858391,862175,111,861625,Sternberg_updated,106,74030,111,yes,1024
96,96,666,666,black,no,experiment,Mozilla,Netscape,"5.0 (Windows NT 10.0; Win64; x64) AppleWebKit/537.36 (KHTML, like Gecko) Chrome/94.0.4606.61 Safari/537.36",legacy,legacy,legacy,0,uniform,1,1,left,111,111,111,111,0,0,0,111,111,0,0,0,111,111,111,0,0,111,111,0,30-08-21,30-08-21,09:18:10,Thu Sep 30 2021 09:18:10 GMT+0200 (hora de verano de Europa central),The main experiment item,yes,0,0,/Users/ethan/Documents/GitHub/OpenSesame/Sternberg/experiment_files,0,0,0,no,mono,no,18,no,white,no,no,768,108,3.6.1,legacy,legacy,8 4 3 9,osweb,1.4.0,1,0,n,37,,0,left,right,right,right,right,right,left,588,99500,55994,20405,10982,15087,588,2,legacy,824,1536,24,864,24,0,0,1536,1632986343797,4,1024,2,48000,-16,experiment,0,even,Win32,5,865441,376060,724142,862176,111,863213,711426,111,20518,105596,867458,864225,868058,111,867458,Sternberg_updated,107,74618,112,yes,1024
96,96,666,666,black,no,experiment,Mozilla,Netscape,"5.0 (Windows NT 10.0; Win64; x64) AppleWebKit/537.36 (KHTML, like Gecko) Chrome/94.0.4606.61 Safari/537.36",legacy,legacy,legacy,0,uniform,1,1,left,112,112,112,112,0,0,0,112,112,0,0,0,112,112,112,0,0,112,112,0,30-08-21,30-08-21,09:18:10,Thu Sep 30 2021 09:18:10 GMT+0200 (hora de verano de Europa central),The main experiment item,yes,0,0,/Users/ethan/Documents/GitHub/OpenSesame/Sternberg/experiment_files,0,0,0,no,mono,no,18,no,white,no,no,768,108,3.6.1,legacy,legacy,8 9,osweb,1.4.0,1,0,n,37,,0,left,right,right,right,right,right,left,626,99500,55994,20405,10982,15087,626,2,legacy,824,1536,24,864,24,0,0,1536,1632986343797,2,1024,2,48000,-16,experiment,0,even,Win32,5,871325,376060,724142,868059,111,869099,711426,111,20518,105596,873341,870108,873974,111,873341,Sternberg_updated,108,75244,113,yes,1024
96,96,667,667,black,no,experiment,Mozilla,Netscape,"5.0 (Windows NT 10.0; Win64; x64) AppleWebKit/537.36 (KHTML, like Gecko) Chrome/94.0.4606.61 Safari/537.36",legacy,legacy,legacy,0,uniform,1,1,right,113,113,113,113,0,0,0,113,113,0,0,0,113,113,113,0,0,113,113,0,30-08-21,30-08-21,09:18:10,Thu Sep 30 2021 09:18:10 GMT+0200 (hora de verano de Europa central),The main experiment item,yes,0,0,/Users/ethan/Documents/GitHub/OpenSesame/Sternberg/experiment_files,0,0,0,no,mono,no,18,no,white,no,no,768,108,3.6.1,legacy,legacy,8 5 1 3 9,osweb,1.4.0,1,4,y,37,,0,right,right,right,right,right,right,right,807,99500,55994,20405,10982,15087,807,2,legacy,824,1536,24,864,24,0,0,1536,1632986343797,5,1024,2,48000,-16,experiment,0,even,Win32,3,877241,376060,724142,873975,111,875014,711426,111,20518,105596,879258,876025,880076,111,879258,Sternberg_updated,109,76051,114,yes,1024
96,96,666,666,black,no,experiment,Mozilla,Netscape,"5.0 (Windows NT 10.0; Win64; x64) AppleWebKit/537.36 (KHTML, like Gecko) Chrome/94.0.4606.61 Safari/537.36",legacy,legacy,legacy,0,uniform,1,1,left,114,114,114,114,0,0,0,114,114,0,0,0,114,114,114,0,0,114,114,0,30-08-21,30-08-21,09:18:10,Thu Sep 30 2021 09:18:10 GMT+0200 (hora de verano de Europa central),The main experiment item,yes,0,0,/Users/ethan/Documents/GitHub/OpenSesame/Sternberg/experiment_files,0,0,0,no,mono,no,18,no,white,no,no,768,108,3.6.1,legacy,legacy,1 5 3 2 8,osweb,1.4.0,1,0,n,37,,0,left,right,right,right,right,right,left,519,99500,55994,20405,10982,15087,519,2,legacy,824,1536,24,864,24,0,0,1536,1632986343797,5,1024,2,48000,-16,experiment,0,even,Win32,4,883341,376060,724142,880077,111,881115,711426,111,20518,105596,885358,882125,885891,111,885358,Sternberg_updated,110,76570,115,yes,1024
96,96,665,665,black,no,experiment,Mozilla,Netscape,"5.0 (Windows NT 10.0; Win64; x64) AppleWebKit/537.36 (KHTML, like Gecko) Chrome/94.0.4606.61 Safari/537.36",legacy,legacy,legacy,0,uniform,1,1,right,115,115,115,115,0,0,0,115,115,0,0,0,115,115,115,0,0,115,115,0,30-08-21,30-08-21,09:18:10,Thu Sep 30 2021 09:18:10 GMT+0200 (hora de verano de Europa central),The main experiment item,yes,0,0,/Users/ethan/Documents/GitHub/OpenSesame/Sternberg/experiment_files,0,0,0,no,mono,no,18,no,white,no,no,768,108,3.6.1,legacy,legacy,5 7 3 6 2,osweb,1.4.0,1,5,y,37,,0,right,right,right,right,right,right,right,581,99500,55994,20405,10982,15087,581,2,legacy,824,1536,24,864,24,0,0,1536,1632986343797,5,1024,2,48000,-16,experiment,0,even,Win32,2,889158,376060,724142,885892,111,886933,711426,111,20518,105596,891175,887942,891757,111,891175,Sternberg_updated,111,77151,116,yes,1024
96,96,664,664,black,no,experiment,Mozilla,Netscape,"5.0 (Windows NT 10.0; Win64; x64) AppleWebKit/537.36 (KHTML, like Gecko) Chrome/94.0.4606.61 Safari/537.36",legacy,legacy,legacy,0,uniform,1,1,right,116,116,116,116,0,0,0,116,116,0,0,0,116,116,116,0,0,116,116,0,30-08-21,30-08-21,09:18:10,Thu Sep 30 2021 09:18:10 GMT+0200 (hora de verano de Europa central),The main experiment item,yes,0,0,/Users/ethan/Documents/GitHub/OpenSesame/Sternberg/experiment_files,0,0,0,no,mono,no,18,no,white,no,no,768,108,3.6.1,legacy,legacy,2 4 6 9,osweb,1.4.0,1,3,y,37,,0,right,right,right,right,right,right,right,511,99500,55994,20405,10982,15087,511,2,legacy,824,1536,24,864,24,0,0,1536,1632986343797,4,1024,2,48000,-16,experiment,0,even,Win32,6,895010,376060,724142,891758,111,892786,711426,111,20518,105596,897031,893792,897557,111,897031,Sternberg_updated,112,77662,117,yes,1024
