acc,accuracy,average_response_time,avg_rt,background,bidi,block,browser_codename,browser_name,browser_version,canvas_backend,clock_backend,color_backend,compensation,coordinates,correct,correct_keyboard_response,correct_response,count_ISI,count_break1,count_break_2,count_correct_feedback,count_credits,count_experiment,count_experimentLoop,count_fixation,count_incorrect_feedback,count_instructions1a,count_instructions1b,count_instructions2,count_keyboard_response,count_memory_set,count_new_logger,count_osweb,count_practiceLoop,count_practiceSequence,count_probe,count_thankYou,date_startdate,date_startdateUTC,date_starttime,datetime,description,disable_garbage_collection,experiment_debug,experiment_parameters,experiment_path,experiment_pilot,experiment_taskname,experiment_taskversion,font_bold,font_family,font_italic,font_size,font_underline,foreground,form_clicks,fullscreen,height,jatosStudyResultId,jatosVersion,keyboard_backend,mouse_backend,numberSet,opensesame_codename,opensesame_version,penwidth,posInSet,present,queryParams_batchId,queryParams_generalMultiple,repeat_cycle,response,response_break1,response_break_2,response_instructions1a,response_instructions1b,response_instructions2,response_keyboard_response,response_time,response_time_break1,response_time_break_2,response_time_instructions1a,response_time_instructions1b,response_time_instructions2,response_time_keyboard_response,round_decimals,sampler_backend,screen_availableHeight,screen_availableWidth,screen_colorDepth,screen_height,screen_pixelDepth,screen_screenX,screen_screenY,screen_width,sessionid,setSize,sound_buf_size,sound_channels,sound_freq,sound_sample_size,start,subject_nr,subject_parity,system_os,target,time_ISI,time_break1,time_break_2,time_correct_feedback,time_experimentLoop,time_fixation,time_incorrect_feedback,time_instructions1a,time_instructions1b,time_instructions2,time_keyboard_response,time_memory_set,time_new_logger,time_practiceLoop,time_probe,title,total_correct,total_response_time,total_responses,uniform_coordinates,width
0,0,2001,2001,black,no,practice,Mozilla,Netscape,"5.0 (Macintosh; Intel Mac OS X 10_13_6) AppleWebKit/537.36 (KHTML, like Gecko) Chrome/94.0.4606.71 Safari/537.36",legacy,legacy,legacy,0,uniform,0,0,left,0,0,0,0,0,0,0,0,0,0,0,0,0,0,0,0,0,0,0,0,04-09-21,04-09-21,10:17:00,Mon Oct 04 2021 10:17:00 GMT+0200 (Centraleuropæisk sommertid),The main experiment item,yes,0,0,/Users/ethan/Documents/GitHub/OpenSesame/Sternberg/experiment_files,0,0,0,no,mono,no,18,no,white,no,no,768,130,3.6.1,legacy,legacy,3 1 9 4,osweb,1.4.0,1,0,n,36,,0,None,,,space,right,,None,2001,,,20020,19366,,2001,2,legacy,721,1280,24,800,24,0,23,1280,1633335448645,4,1024,2,48000,-16,experiment,0,even,MacIntel,6,41715,,,,55,39493,,55,20086,,43717,40500,45718,55,43716,Sternberg_updated,0,2001,1,yes,1024
50,50,1472,1472,black,no,practice,Mozilla,Netscape,"5.0 (Macintosh; Intel Mac OS X 10_13_6) AppleWebKit/537.36 (KHTML, like Gecko) Chrome/94.0.4606.71 Safari/537.36",legacy,legacy,legacy,0,uniform,1,1,left,1,1,1,1,0,0,0,1,1,0,0,0,1,1,1,0,0,1,1,0,04-09-21,04-09-21,10:17:00,Mon Oct 04 2021 10:17:00 GMT+0200 (Centraleuropæisk sommertid),The main experiment item,yes,0,0,/Users/ethan/Documents/GitHub/OpenSesame/Sternberg/experiment_files,0,0,0,no,mono,no,18,no,white,no,no,768,130,3.6.1,legacy,legacy,4 1 5,osweb,1.4.0,1,0,n,36,,0,left,,,space,right,,left,942,,,20020,19366,,942,2,legacy,721,1280,24,800,24,0,23,1280,1633335448645,3,1024,2,48000,-16,experiment,0,even,MacIntel,2,48985,,,,55,46755,45721,55,20086,,50986,47768,51936,55,50986,Sternberg_updated,1,2943,2,yes,1024
67,67,1350,1350,black,no,practice,Mozilla,Netscape,"5.0 (Macintosh; Intel Mac OS X 10_13_6) AppleWebKit/537.36 (KHTML, like Gecko) Chrome/94.0.4606.71 Safari/537.36",legacy,legacy,legacy,0,uniform,1,1,left,2,2,2,2,0,0,0,2,2,0,0,0,2,2,2,0,0,2,2,0,04-09-21,04-09-21,10:17:00,Mon Oct 04 2021 10:17:00 GMT+0200 (Centraleuropæisk sommertid),The main experiment item,yes,0,0,/Users/ethan/Documents/GitHub/OpenSesame/Sternberg/experiment_files,0,0,0,no,mono,no,18,no,white,no,no,768,130,3.6.1,legacy,legacy,5,osweb,1.4.0,1,0,n,36,,0,left,,,space,right,,left,1108,,,20020,19366,,1108,2,legacy,721,1280,24,800,24,0,23,1280,1633335448645,1,1024,2,48000,-16,experiment,0,even,MacIntel,3,55200,,,51937,55,52966,45721,55,20086,,57217,53982,58334,55,57217,Sternberg_updated,2,4051,3,yes,1024
75,75,1159,1159,black,no,practice,Mozilla,Netscape,"5.0 (Macintosh; Intel Mac OS X 10_13_6) AppleWebKit/537.36 (KHTML, like Gecko) Chrome/94.0.4606.71 Safari/537.36",legacy,legacy,legacy,0,uniform,1,1,left,3,3,3,3,0,0,0,3,3,0,0,0,3,3,3,0,0,3,3,0,04-09-21,04-09-21,10:17:00,Mon Oct 04 2021 10:17:00 GMT+0200 (Centraleuropæisk sommertid),The main experiment item,yes,0,0,/Users/ethan/Documents/GitHub/OpenSesame/Sternberg/experiment_files,0,0,0,no,mono,no,18,no,white,no,no,768,130,3.6.1,legacy,legacy,2 1,osweb,1.4.0,1,0,n,36,,0,left,,,space,right,,left,583,,,20020,19366,,583,2,legacy,721,1280,24,800,24,0,23,1280,1633335448645,2,1024,2,48000,-16,experiment,0,even,MacIntel,5,61602,,,58335,55,59380,45721,55,20086,,63604,60385,64196,55,63603,Sternberg_updated,3,4634,4,yes,1024
80,80,1050,1050,black,no,practice,Mozilla,Netscape,"5.0 (Macintosh; Intel Mac OS X 10_13_6) AppleWebKit/537.36 (KHTML, like Gecko) Chrome/94.0.4606.71 Safari/537.36",legacy,legacy,legacy,0,uniform,1,1,right,4,4,4,4,0,0,0,4,4,0,0,0,4,4,4,0,0,4,4,0,04-09-21,04-09-21,10:17:00,Mon Oct 04 2021 10:17:00 GMT+0200 (Centraleuropæisk sommertid),The main experiment item,yes,0,0,/Users/ethan/Documents/GitHub/OpenSesame/Sternberg/experiment_files,0,0,0,no,mono,no,18,no,white,no,no,768,130,3.6.1,legacy,legacy,6,osweb,1.4.0,1,1,y,36,,0,right,,,space,right,,right,617,,,20020,19366,,617,2,legacy,721,1280,24,800,24,0,23,1280,1633335448645,1,1024,2,48000,-16,experiment,0,even,MacIntel,6,67465,,,64197,55,65230,45721,55,20086,,69466,66248,70099,55,69466,Sternberg_updated,4,5251,5,yes,1024
83,83,1067,1067,black,no,practice,Mozilla,Netscape,"5.0 (Macintosh; Intel Mac OS X 10_13_6) AppleWebKit/537.36 (KHTML, like Gecko) Chrome/94.0.4606.71 Safari/537.36",legacy,legacy,legacy,0,uniform,1,1,right,5,5,5,5,0,0,0,5,5,0,0,0,5,5,5,0,0,5,5,0,04-09-21,04-09-21,10:17:00,Mon Oct 04 2021 10:17:00 GMT+0200 (Centraleuropæisk sommertid),The main experiment item,yes,0,0,/Users/ethan/Documents/GitHub/OpenSesame/Sternberg/experiment_files,0,0,0,no,mono,no,18,no,white,no,no,768,130,3.6.1,legacy,legacy,4 3 1 7 9 8,osweb,1.4.0,1,1,y,36,,0,right,,,space,right,,right,1150,,,20020,19366,,1150,2,legacy,721,1280,24,800,24,0,23,1280,1633335448645,6,1024,2,48000,-16,experiment,0,even,MacIntel,4,73351,,,70100,55,71133,45721,55,20086,,75359,72134,76510,55,75359,Sternberg_updated,5,6401,6,yes,1024
71,71,1004,1004,black,no,practice,Mozilla,Netscape,"5.0 (Macintosh; Intel Mac OS X 10_13_6) AppleWebKit/537.36 (KHTML, like Gecko) Chrome/94.0.4606.71 Safari/537.36",legacy,legacy,legacy,0,uniform,0,0,right,6,6,6,6,0,0,0,6,6,0,0,0,6,6,6,0,0,6,6,0,04-09-21,04-09-21,10:17:00,Mon Oct 04 2021 10:17:00 GMT+0200 (Centraleuropæisk sommertid),The main experiment item,yes,0,0,/Users/ethan/Documents/GitHub/OpenSesame/Sternberg/experiment_files,0,0,0,no,mono,no,18,no,white,no,no,768,130,3.6.1,legacy,legacy,4 8,osweb,1.4.0,1,1,y,36,,0,left,,,space,right,,left,625,,,20020,19366,,625,2,legacy,721,1280,24,800,24,0,23,1280,1633335448645,2,1024,2,48000,-16,experiment,0,even,MacIntel,4,79777,,,76511,55,77550,45721,55,20086,,81779,78560,82411,55,81779,Sternberg_updated,5,7026,7,yes,1024
75,75,972,972,black,no,practice,Mozilla,Netscape,"5.0 (Macintosh; Intel Mac OS X 10_13_6) AppleWebKit/537.36 (KHTML, like Gecko) Chrome/94.0.4606.71 Safari/537.36",legacy,legacy,legacy,0,uniform,1,1,right,7,7,7,7,0,0,0,7,7,0,0,0,7,7,7,0,0,7,7,0,04-09-21,04-09-21,10:17:00,Mon Oct 04 2021 10:17:00 GMT+0200 (Centraleuropæisk sommertid),The main experiment item,yes,0,0,/Users/ethan/Documents/GitHub/OpenSesame/Sternberg/experiment_files,0,0,0,no,mono,no,18,no,white,no,no,768,130,3.6.1,legacy,legacy,2 9 4,osweb,1.4.0,1,3,y,36,,0,right,,,space,right,,right,748,,,20020,19366,,748,2,legacy,721,1280,24,800,24,0,23,1280,1633335448645,3,1024,2,48000,-16,experiment,0,even,MacIntel,4,85663,,,76511,55,83446,82412,55,20086,,87680,84462,88431,55,87680,Sternberg_updated,6,7774,8,yes,1024
78,78,964,964,black,no,practice,Mozilla,Netscape,"5.0 (Macintosh; Intel Mac OS X 10_13_6) AppleWebKit/537.36 (KHTML, like Gecko) Chrome/94.0.4606.71 Safari/537.36",legacy,legacy,legacy,0,uniform,1,1,right,8,8,8,8,0,0,0,8,8,0,0,0,8,8,8,0,0,8,8,0,04-09-21,04-09-21,10:17:00,Mon Oct 04 2021 10:17:00 GMT+0200 (Centraleuropæisk sommertid),The main experiment item,yes,0,0,/Users/ethan/Documents/GitHub/OpenSesame/Sternberg/experiment_files,0,0,0,no,mono,no,18,no,white,no,no,768,130,3.6.1,legacy,legacy,1 5 2 9,osweb,1.4.0,1,2,y,36,,0,right,,,space,right,,right,906,,,20020,19366,,906,2,legacy,721,1280,24,800,24,0,23,1280,1633335448645,4,1024,2,48000,-16,experiment,0,even,MacIntel,5,91683,,,88432,55,89467,82412,55,20086,,93700,90482,94617,55,93700,Sternberg_updated,7,8680,9,yes,1024
80,80,927,927,black,no,practice,Mozilla,Netscape,"5.0 (Macintosh; Intel Mac OS X 10_13_6) AppleWebKit/537.36 (KHTML, like Gecko) Chrome/94.0.4606.71 Safari/537.36",legacy,legacy,legacy,0,uniform,1,1,right,9,9,9,9,0,0,0,9,9,0,0,0,9,9,9,0,0,9,9,0,04-09-21,04-09-21,10:17:00,Mon Oct 04 2021 10:17:00 GMT+0200 (Centraleuropæisk sommertid),The main experiment item,yes,0,0,/Users/ethan/Documents/GitHub/OpenSesame/Sternberg/experiment_files,0,0,0,no,mono,no,18,no,white,no,no,768,130,3.6.1,legacy,legacy,1 7 9 8 5,osweb,1.4.0,1,4,y,36,,0,right,,,space,right,,right,590,,,20020,19366,,590,2,legacy,721,1280,24,800,24,0,23,1280,1633335448645,5,1024,2,48000,-16,experiment,0,even,MacIntel,8,97883,,,94618,55,95654,82412,55,20086,,99886,96667,100485,55,99886,Sternberg_updated,8,9270,10,yes,1024
82,82,895,895,black,no,practice,Mozilla,Netscape,"5.0 (Macintosh; Intel Mac OS X 10_13_6) AppleWebKit/537.36 (KHTML, like Gecko) Chrome/94.0.4606.71 Safari/537.36",legacy,legacy,legacy,0,uniform,1,1,left,10,10,10,10,0,0,0,10,10,0,0,0,10,10,10,0,0,10,10,0,04-09-21,04-09-21,10:17:00,Mon Oct 04 2021 10:17:00 GMT+0200 (Centraleuropæisk sommertid),The main experiment item,yes,0,0,/Users/ethan/Documents/GitHub/OpenSesame/Sternberg/experiment_files,0,0,0,no,mono,no,18,no,white,no,no,768,130,3.6.1,legacy,legacy,9 6 7 4 5,osweb,1.4.0,1,0,n,36,,0,left,,,space,right,,left,574,,,20020,19366,,574,2,legacy,721,1280,24,800,24,0,23,1280,1633335448645,5,1024,2,48000,-16,experiment,0,even,MacIntel,3,103736,,,100486,55,101527,82412,55,20086,,105738,102535,106317,55,105738,Sternberg_updated,9,9844,11,yes,1024
83,83,874,874,black,no,practice,Mozilla,Netscape,"5.0 (Macintosh; Intel Mac OS X 10_13_6) AppleWebKit/537.36 (KHTML, like Gecko) Chrome/94.0.4606.71 Safari/537.36",legacy,legacy,legacy,0,uniform,1,1,left,11,11,11,11,0,0,0,11,11,0,0,0,11,11,11,0,0,11,11,0,04-09-21,04-09-21,10:17:00,Mon Oct 04 2021 10:17:00 GMT+0200 (Centraleuropæisk sommertid),The main experiment item,yes,0,0,/Users/ethan/Documents/GitHub/OpenSesame/Sternberg/experiment_files,0,0,0,no,mono,no,18,no,white,no,no,768,130,3.6.1,legacy,legacy,5 7 8 4 1 2,osweb,1.4.0,1,0,n,36,,0,left,,,space,right,,left,643,,,20020,19366,,643,2,legacy,721,1280,24,800,24,0,23,1280,1633335448645,6,1024,2,48000,-16,experiment,0,even,MacIntel,6,109584,,,106318,55,107358,82412,55,20086,,111586,108368,112236,55,111586,Sternberg_updated,10,10487,12,yes,1024
85,85,872,872,black,no,experiment,Mozilla,Netscape,"5.0 (Macintosh; Intel Mac OS X 10_13_6) AppleWebKit/537.36 (KHTML, like Gecko) Chrome/94.0.4606.71 Safari/537.36",legacy,legacy,legacy,0,uniform,1,1,right,12,12,12,12,0,0,0,12,12,0,0,0,12,12,12,0,0,12,12,0,04-09-21,04-09-21,10:17:00,Mon Oct 04 2021 10:17:00 GMT+0200 (Centraleuropæisk sommertid),The main experiment item,yes,0,0,/Users/ethan/Documents/GitHub/OpenSesame/Sternberg/experiment_files,0,0,0,no,mono,no,18,no,white,no,no,768,130,3.6.1,legacy,legacy,2 4 8 5 1 3,osweb,1.4.0,1,1,y,36,,0,right,,,space,right,right,right,854,,,20020,19366,32262,854,2,legacy,721,1280,24,800,24,0,23,1280,1633335448645,6,1024,2,48000,-16,experiment,0,even,MacIntel,2,147775,,,112237,55,145547,82412,55,20086,113256,149776,146560,150643,55,149776,Sternberg_updated,11,11341,13,yes,1024
79,79,879,879,black,no,experiment,Mozilla,Netscape,"5.0 (Macintosh; Intel Mac OS X 10_13_6) AppleWebKit/537.36 (KHTML, like Gecko) Chrome/94.0.4606.71 Safari/537.36",legacy,legacy,legacy,0,uniform,0,0,right,13,13,13,13,0,0,0,13,13,0,0,0,13,13,13,0,0,13,13,0,04-09-21,04-09-21,10:17:00,Mon Oct 04 2021 10:17:00 GMT+0200 (Centraleuropæisk sommertid),The main experiment item,yes,0,0,/Users/ethan/Documents/GitHub/OpenSesame/Sternberg/experiment_files,0,0,0,no,mono,no,18,no,white,no,no,768,130,3.6.1,legacy,legacy,8 5 4 7 3 1,osweb,1.4.0,1,2,y,36,,0,left,,,space,right,right,left,960,,,20020,19366,32262,960,2,legacy,721,1280,24,800,24,0,23,1280,1633335448645,6,1024,2,48000,-16,experiment,0,even,MacIntel,5,153895,,,150644,55,151677,82412,55,20086,113256,155912,152694,156880,55,155912,Sternberg_updated,11,12301,14,yes,1024
80,80,869,869,black,no,experiment,Mozilla,Netscape,"5.0 (Macintosh; Intel Mac OS X 10_13_6) AppleWebKit/537.36 (KHTML, like Gecko) Chrome/94.0.4606.71 Safari/537.36",legacy,legacy,legacy,0,uniform,1,1,right,14,14,14,14,0,0,0,14,14,0,0,0,14,14,14,0,0,14,14,0,04-09-21,04-09-21,10:17:00,Mon Oct 04 2021 10:17:00 GMT+0200 (Centraleuropæisk sommertid),The main experiment item,yes,0,0,/Users/ethan/Documents/GitHub/OpenSesame/Sternberg/experiment_files,0,0,0,no,mono,no,18,no,white,no,no,768,130,3.6.1,legacy,legacy,7 1 3,osweb,1.4.0,1,2,y,36,,0,right,,,space,right,right,right,733,,,20020,19366,32262,733,2,legacy,721,1280,24,800,24,0,23,1280,1633335448645,3,1024,2,48000,-16,experiment,0,even,MacIntel,1,160129,,,150644,55,157910,156881,55,20086,113256,162130,158912,162880,55,162130,Sternberg_updated,12,13034,15,yes,1024
81,81,852,852,black,no,experiment,Mozilla,Netscape,"5.0 (Macintosh; Intel Mac OS X 10_13_6) AppleWebKit/537.36 (KHTML, like Gecko) Chrome/94.0.4606.71 Safari/537.36",legacy,legacy,legacy,0,uniform,1,1,left,15,15,15,15,0,0,0,15,15,0,0,0,15,15,15,0,0,15,15,0,04-09-21,04-09-21,10:17:00,Mon Oct 04 2021 10:17:00 GMT+0200 (Centraleuropæisk sommertid),The main experiment item,yes,0,0,/Users/ethan/Documents/GitHub/OpenSesame/Sternberg/experiment_files,0,0,0,no,mono,no,18,no,white,no,no,768,130,3.6.1,legacy,legacy,5,osweb,1.4.0,1,0,n,36,,0,left,,,space,right,right,left,599,,,20020,19366,32262,599,2,legacy,721,1280,24,800,24,0,23,1280,1633335448645,1,1024,2,48000,-16,experiment,0,even,MacIntel,8,166131,,,162881,55,163913,156881,55,20086,113256,168132,164914,168742,55,168132,Sternberg_updated,13,13633,16,yes,1024
82,82,842,842,black,no,experiment,Mozilla,Netscape,"5.0 (Macintosh; Intel Mac OS X 10_13_6) AppleWebKit/537.36 (KHTML, like Gecko) Chrome/94.0.4606.71 Safari/537.36",legacy,legacy,legacy,0,uniform,1,1,right,16,16,16,16,0,0,0,16,16,0,0,0,16,16,16,0,0,16,16,0,04-09-21,04-09-21,10:17:00,Mon Oct 04 2021 10:17:00 GMT+0200 (Centraleuropæisk sommertid),The main experiment item,yes,0,0,/Users/ethan/Documents/GitHub/OpenSesame/Sternberg/experiment_files,0,0,0,no,mono,no,18,no,white,no,no,768,130,3.6.1,legacy,legacy,6 1 2,osweb,1.4.0,1,3,y,36,,0,right,,,space,right,right,right,686,,,20020,19366,32262,686,2,legacy,721,1280,24,800,24,0,23,1280,1633335448645,3,1024,2,48000,-16,experiment,0,even,MacIntel,2,172011,,,168743,55,169778,156881,55,20086,113256,174028,170794,174729,55,174028,Sternberg_updated,14,14319,17,yes,1024
83,83,839,839,black,no,experiment,Mozilla,Netscape,"5.0 (Macintosh; Intel Mac OS X 10_13_6) AppleWebKit/537.36 (KHTML, like Gecko) Chrome/94.0.4606.71 Safari/537.36",legacy,legacy,legacy,0,uniform,1,1,left,17,17,17,17,0,0,0,17,17,0,0,0,17,17,17,0,0,17,17,0,04-09-21,04-09-21,10:17:00,Mon Oct 04 2021 10:17:00 GMT+0200 (Centraleuropæisk sommertid),The main experiment item,yes,0,0,/Users/ethan/Documents/GitHub/OpenSesame/Sternberg/experiment_files,0,0,0,no,mono,no,18,no,white,no,no,768,130,3.6.1,legacy,legacy,1 6 4 3 9 7,osweb,1.4.0,1,0,n,36,,0,left,,,space,right,right,left,785,,,20020,19366,32262,785,2,legacy,721,1280,24,800,24,0,23,1280,1633335448645,6,1024,2,48000,-16,experiment,0,even,MacIntel,8,177980,,,174731,55,175762,156881,55,20086,113256,179989,176764,180790,55,179989,Sternberg_updated,15,15104,18,yes,1024
84,84,835,835,black,no,experiment,Mozilla,Netscape,"5.0 (Macintosh; Intel Mac OS X 10_13_6) AppleWebKit/537.36 (KHTML, like Gecko) Chrome/94.0.4606.71 Safari/537.36",legacy,legacy,legacy,0,uniform,1,1,right,18,18,18,18,0,0,0,18,18,0,0,0,18,18,18,0,0,18,18,0,04-09-21,04-09-21,10:17:00,Mon Oct 04 2021 10:17:00 GMT+0200 (Centraleuropæisk sommertid),The main experiment item,yes,0,0,/Users/ethan/Documents/GitHub/OpenSesame/Sternberg/experiment_files,0,0,0,no,mono,no,18,no,white,no,no,768,130,3.6.1,legacy,legacy,2 4 6 9,osweb,1.4.0,1,3,y,36,,0,right,,,space,right,right,right,766,,,20020,19366,32262,766,2,legacy,721,1280,24,800,24,0,23,1280,1633335448645,4,1024,2,48000,-16,experiment,0,even,MacIntel,6,184041,,,180791,55,181823,156881,55,20086,113256,186042,182824,186808,55,186042,Sternberg_updated,16,15870,19,yes,1024
85,85,832,832,black,no,experiment,Mozilla,Netscape,"5.0 (Macintosh; Intel Mac OS X 10_13_6) AppleWebKit/537.36 (KHTML, like Gecko) Chrome/94.0.4606.71 Safari/537.36",legacy,legacy,legacy,0,uniform,1,1,left,19,19,19,19,0,0,0,19,19,0,0,0,19,19,19,0,0,19,19,0,04-09-21,04-09-21,10:17:00,Mon Oct 04 2021 10:17:00 GMT+0200 (Centraleuropæisk sommertid),The main experiment item,yes,0,0,/Users/ethan/Documents/GitHub/OpenSesame/Sternberg/experiment_files,0,0,0,no,mono,no,18,no,white,no,no,768,130,3.6.1,legacy,legacy,6 7 5 9,osweb,1.4.0,1,0,n,36,,0,left,,,space,right,right,left,772,,,20020,19366,32262,772,2,legacy,721,1280,24,800,24,0,23,1280,1633335448645,4,1024,2,48000,-16,experiment,0,even,MacIntel,2,190069,,,186810,55,187844,156881,55,20086,113256,192086,188852,192870,55,192086,Sternberg_updated,17,16642,20,yes,1024
86,86,826,826,black,no,experiment,Mozilla,Netscape,"5.0 (Macintosh; Intel Mac OS X 10_13_6) AppleWebKit/537.36 (KHTML, like Gecko) Chrome/94.0.4606.71 Safari/537.36",legacy,legacy,legacy,0,uniform,1,1,right,20,20,20,20,0,0,0,20,20,0,0,0,20,20,20,0,0,20,20,0,04-09-21,04-09-21,10:17:00,Mon Oct 04 2021 10:17:00 GMT+0200 (Centraleuropæisk sommertid),The main experiment item,yes,0,0,/Users/ethan/Documents/GitHub/OpenSesame/Sternberg/experiment_files,0,0,0,no,mono,no,18,no,white,no,no,768,130,3.6.1,legacy,legacy,2 6 1 7 4,osweb,1.4.0,1,2,y,36,,0,right,,,space,right,right,right,708,,,20020,19366,32262,708,2,legacy,721,1280,24,800,24,0,23,1280,1633335448645,5,1024,2,48000,-16,experiment,0,even,MacIntel,6,196138,,,192871,55,193904,156881,55,20086,113256,198140,194921,198856,55,198140,Sternberg_updated,18,17350,21,yes,1024
86,86,847,847,black,no,experiment,Mozilla,Netscape,"5.0 (Macintosh; Intel Mac OS X 10_13_6) AppleWebKit/537.36 (KHTML, like Gecko) Chrome/94.0.4606.71 Safari/537.36",legacy,legacy,legacy,0,uniform,1,1,left,21,21,21,21,0,0,0,21,21,0,0,0,21,21,21,0,0,21,21,0,04-09-21,04-09-21,10:17:00,Mon Oct 04 2021 10:17:00 GMT+0200 (Centraleuropæisk sommertid),The main experiment item,yes,0,0,/Users/ethan/Documents/GitHub/OpenSesame/Sternberg/experiment_files,0,0,0,no,mono,no,18,no,white,no,no,768,130,3.6.1,legacy,legacy,2 3 8 5 6 7,osweb,1.4.0,1,0,n,36,,0,left,,,space,right,right,left,1283,,,20020,19366,32262,1283,2,legacy,721,1280,24,800,24,0,23,1280,1633335448645,6,1024,2,48000,-16,experiment,0,even,MacIntel,1,202110,,,198857,55,199881,156881,55,20086,113256,204127,200893,205411,55,204127,Sternberg_updated,19,18633,22,yes,1024
87,87,853,853,black,no,experiment,Mozilla,Netscape,"5.0 (Macintosh; Intel Mac OS X 10_13_6) AppleWebKit/537.36 (KHTML, like Gecko) Chrome/94.0.4606.71 Safari/537.36",legacy,legacy,legacy,0,uniform,1,1,left,22,22,22,22,0,0,0,22,22,0,0,0,22,22,22,0,0,22,22,0,04-09-21,04-09-21,10:17:00,Mon Oct 04 2021 10:17:00 GMT+0200 (Centraleuropæisk sommertid),The main experiment item,yes,0,0,/Users/ethan/Documents/GitHub/OpenSesame/Sternberg/experiment_files,0,0,0,no,mono,no,18,no,white,no,no,768,130,3.6.1,legacy,legacy,4 8 1 2,osweb,1.4.0,1,0,n,36,,0,left,,,space,right,right,left,994,,,20020,19366,32262,994,2,legacy,721,1280,24,800,24,0,23,1280,1633335448645,4,1024,2,48000,-16,experiment,0,even,MacIntel,7,208663,,,205412,55,206444,156881,55,20086,113256,210680,207446,211684,55,210680,Sternberg_updated,20,19627,23,yes,1024
83,83,846,846,black,no,experiment,Mozilla,Netscape,"5.0 (Macintosh; Intel Mac OS X 10_13_6) AppleWebKit/537.36 (KHTML, like Gecko) Chrome/94.0.4606.71 Safari/537.36",legacy,legacy,legacy,0,uniform,0,0,right,23,23,23,23,0,0,0,23,23,0,0,0,23,23,23,0,0,23,23,0,04-09-21,04-09-21,10:17:00,Mon Oct 04 2021 10:17:00 GMT+0200 (Centraleuropæisk sommertid),The main experiment item,yes,0,0,/Users/ethan/Documents/GitHub/OpenSesame/Sternberg/experiment_files,0,0,0,no,mono,no,18,no,white,no,no,768,130,3.6.1,legacy,legacy,3 2 1 4 7,osweb,1.4.0,1,2,y,36,,0,left,,,space,right,right,left,678,,,20020,19366,32262,678,2,legacy,721,1280,24,800,24,0,23,1280,1633335448645,5,1024,2,48000,-16,experiment,0,even,MacIntel,2,214935,,,211685,55,212715,156881,55,20086,113256,216953,213718,217636,55,216953,Sternberg_updated,20,20305,24,yes,1024
84,84,860,860,black,no,experiment,Mozilla,Netscape,"5.0 (Macintosh; Intel Mac OS X 10_13_6) AppleWebKit/537.36 (KHTML, like Gecko) Chrome/94.0.4606.71 Safari/537.36",legacy,legacy,legacy,0,uniform,1,1,left,24,24,24,24,0,0,0,24,24,0,0,0,24,24,24,0,0,24,24,0,04-09-21,04-09-21,10:17:00,Mon Oct 04 2021 10:17:00 GMT+0200 (Centraleuropæisk sommertid),The main experiment item,yes,0,0,/Users/ethan/Documents/GitHub/OpenSesame/Sternberg/experiment_files,0,0,0,no,mono,no,18,no,white,no,no,768,130,3.6.1,legacy,legacy,4 1,osweb,1.4.0,1,0,n,36,,0,left,,,space,right,right,left,1189,,,20020,19366,32262,1189,2,legacy,721,1280,24,800,24,0,23,1280,1633335448645,2,1024,2,48000,-16,experiment,0,even,MacIntel,6,220888,,,211685,55,218670,217637,55,20086,113256,222900,219671,224101,55,222900,Sternberg_updated,21,21494,25,yes,1024
85,85,849,849,black,no,experiment,Mozilla,Netscape,"5.0 (Macintosh; Intel Mac OS X 10_13_6) AppleWebKit/537.36 (KHTML, like Gecko) Chrome/94.0.4606.71 Safari/537.36",legacy,legacy,legacy,0,uniform,1,1,right,25,25,25,25,0,0,0,25,25,0,0,0,25,25,25,0,0,25,25,0,04-09-21,04-09-21,10:17:00,Mon Oct 04 2021 10:17:00 GMT+0200 (Centraleuropæisk sommertid),The main experiment item,yes,0,0,/Users/ethan/Documents/GitHub/OpenSesame/Sternberg/experiment_files,0,0,0,no,mono,no,18,no,white,no,no,768,130,3.6.1,legacy,legacy,1 4 9 3 2 5,osweb,1.4.0,1,3,y,36,,0,right,,,space,right,right,right,590,,,20020,19366,32262,590,2,legacy,721,1280,24,800,24,0,23,1280,1633335448645,6,1024,2,48000,-16,experiment,0,even,MacIntel,9,227352,,,224102,55,225133,217637,55,20086,113256,229353,226136,229953,55,229353,Sternberg_updated,22,22084,26,yes,1024
85,85,850,850,black,no,experiment,Mozilla,Netscape,"5.0 (Macintosh; Intel Mac OS X 10_13_6) AppleWebKit/537.36 (KHTML, like Gecko) Chrome/94.0.4606.71 Safari/537.36",legacy,legacy,legacy,0,uniform,1,1,right,26,26,26,26,0,0,0,26,26,0,0,0,26,26,26,0,0,26,26,0,04-09-21,04-09-21,10:17:00,Mon Oct 04 2021 10:17:00 GMT+0200 (Centraleuropæisk sommertid),The main experiment item,yes,0,0,/Users/ethan/Documents/GitHub/OpenSesame/Sternberg/experiment_files,0,0,0,no,mono,no,18,no,white,no,no,768,130,3.6.1,legacy,legacy,4 1 5,osweb,1.4.0,1,2,y,36,,0,right,,,space,right,right,right,876,,,20020,19366,32262,876,2,legacy,721,1280,24,800,24,0,23,1280,1633335448645,3,1024,2,48000,-16,experiment,0,even,MacIntel,1,233213,,,229954,55,230986,217637,55,20086,113256,235214,231996,236097,55,235214,Sternberg_updated,23,22960,27,yes,1024
86,86,844,844,black,no,experiment,Mozilla,Netscape,"5.0 (Macintosh; Intel Mac OS X 10_13_6) AppleWebKit/537.36 (KHTML, like Gecko) Chrome/94.0.4606.71 Safari/537.36",legacy,legacy,legacy,0,uniform,1,1,left,27,27,27,27,0,0,0,27,27,0,0,0,27,27,27,0,0,27,27,0,04-09-21,04-09-21,10:17:00,Mon Oct 04 2021 10:17:00 GMT+0200 (Centraleuropæisk sommertid),The main experiment item,yes,0,0,/Users/ethan/Documents/GitHub/OpenSesame/Sternberg/experiment_files,0,0,0,no,mono,no,18,no,white,no,no,768,130,3.6.1,legacy,legacy,7 1 8 4 9 3,osweb,1.4.0,1,0,n,36,,0,left,,,space,right,right,left,685,,,20020,19366,32262,685,2,legacy,721,1280,24,800,24,0,23,1280,1633335448645,6,1024,2,48000,-16,experiment,0,even,MacIntel,6,239349,,,236098,55,237131,217637,55,20086,113256,241366,238148,242066,55,241366,Sternberg_updated,24,23645,28,yes,1024
86,86,834,834,black,no,experiment,Mozilla,Netscape,"5.0 (Macintosh; Intel Mac OS X 10_13_6) AppleWebKit/537.36 (KHTML, like Gecko) Chrome/94.0.4606.71 Safari/537.36",legacy,legacy,legacy,0,uniform,1,1,left,28,28,28,28,0,0,0,28,28,0,0,0,28,28,28,0,0,28,28,0,04-09-21,04-09-21,10:17:00,Mon Oct 04 2021 10:17:00 GMT+0200 (Centraleuropæisk sommertid),The main experiment item,yes,0,0,/Users/ethan/Documents/GitHub/OpenSesame/Sternberg/experiment_files,0,0,0,no,mono,no,18,no,white,no,no,768,130,3.6.1,legacy,legacy,3 4 2,osweb,1.4.0,1,0,n,36,,0,left,,,space,right,right,left,551,,,20020,19366,32262,551,2,legacy,721,1280,24,800,24,0,23,1280,1633335448645,3,1024,2,48000,-16,experiment,0,even,MacIntel,5,245297,,,242067,55,243094,217637,55,20086,113256,247314,244096,247881,55,247314,Sternberg_updated,25,24196,29,yes,1024
87,87,838,838,black,no,experiment,Mozilla,Netscape,"5.0 (Macintosh; Intel Mac OS X 10_13_6) AppleWebKit/537.36 (KHTML, like Gecko) Chrome/94.0.4606.71 Safari/537.36",legacy,legacy,legacy,0,uniform,1,1,left,29,29,29,29,0,0,0,29,29,0,0,0,29,29,29,0,0,29,29,0,04-09-21,04-09-21,10:17:00,Mon Oct 04 2021 10:17:00 GMT+0200 (Centraleuropæisk sommertid),The main experiment item,yes,0,0,/Users/ethan/Documents/GitHub/OpenSesame/Sternberg/experiment_files,0,0,0,no,mono,no,18,no,white,no,no,768,130,3.6.1,legacy,legacy,7 3 2 8,osweb,1.4.0,1,0,n,36,,0,left,,,space,right,right,left,947,,,20020,19366,32262,947,2,legacy,721,1280,24,800,24,0,23,1280,1633335448645,4,1024,2,48000,-16,experiment,0,even,MacIntel,4,251149,,,247882,55,248915,217637,55,20086,113256,253150,249932,254099,55,253150,Sternberg_updated,26,25143,30,yes,1024
84,84,840,840,black,no,experiment,Mozilla,Netscape,"5.0 (Macintosh; Intel Mac OS X 10_13_6) AppleWebKit/537.36 (KHTML, like Gecko) Chrome/94.0.4606.71 Safari/537.36",legacy,legacy,legacy,0,uniform,0,0,right,30,30,30,30,0,0,0,30,30,0,0,0,30,30,30,0,0,30,30,0,04-09-21,04-09-21,10:17:00,Mon Oct 04 2021 10:17:00 GMT+0200 (Centraleuropæisk sommertid),The main experiment item,yes,0,0,/Users/ethan/Documents/GitHub/OpenSesame/Sternberg/experiment_files,0,0,0,no,mono,no,18,no,white,no,no,768,130,3.6.1,legacy,legacy,7 4 2 6 3 5,osweb,1.4.0,1,6,y,36,,0,left,,,space,right,right,left,908,,,20020,19366,32262,908,2,legacy,721,1280,24,800,24,0,23,1280,1633335448645,6,1024,2,48000,-16,experiment,0,even,MacIntel,5,257357,,,254100,55,255128,217637,55,20086,113256,259358,256140,260275,55,259358,Sternberg_updated,26,26051,31,yes,1024
81,81,837,837,black,no,experiment,Mozilla,Netscape,"5.0 (Macintosh; Intel Mac OS X 10_13_6) AppleWebKit/537.36 (KHTML, like Gecko) Chrome/94.0.4606.71 Safari/537.36",legacy,legacy,legacy,0,uniform,0,0,right,31,31,31,31,0,0,0,31,31,0,0,0,31,31,31,0,0,31,31,0,04-09-21,04-09-21,10:17:00,Mon Oct 04 2021 10:17:00 GMT+0200 (Centraleuropæisk sommertid),The main experiment item,yes,0,0,/Users/ethan/Documents/GitHub/OpenSesame/Sternberg/experiment_files,0,0,0,no,mono,no,18,no,white,no,no,768,130,3.6.1,legacy,legacy,8 7 3,osweb,1.4.0,1,1,y,36,,0,left,,,space,right,right,left,740,,,20020,19366,32262,740,2,legacy,721,1280,24,800,24,0,23,1280,1633335448645,3,1024,2,48000,-16,experiment,0,even,MacIntel,8,263543,,,254100,55,261308,260275,55,20086,113256,265560,262326,266311,55,265560,Sternberg_updated,26,26791,32,yes,1024
82,82,830,830,black,no,experiment,Mozilla,Netscape,"5.0 (Macintosh; Intel Mac OS X 10_13_6) AppleWebKit/537.36 (KHTML, like Gecko) Chrome/94.0.4606.71 Safari/537.36",legacy,legacy,legacy,0,uniform,1,1,right,32,32,32,32,0,0,0,32,32,0,0,0,32,32,32,0,0,32,32,0,04-09-21,04-09-21,10:17:00,Mon Oct 04 2021 10:17:00 GMT+0200 (Centraleuropæisk sommertid),The main experiment item,yes,0,0,/Users/ethan/Documents/GitHub/OpenSesame/Sternberg/experiment_files,0,0,0,no,mono,no,18,no,white,no,no,768,130,3.6.1,legacy,legacy,4 1 8 7 5,osweb,1.4.0,1,3,y,36,,0,right,,,space,right,right,right,584,,,20020,19366,32262,584,2,legacy,721,1280,24,800,24,0,23,1280,1633335448645,5,1024,2,48000,-16,experiment,0,even,MacIntel,8,269563,,,254100,55,267344,266312,55,20086,113256,271564,268346,272164,55,271564,Sternberg_updated,27,27375,33,yes,1024
82,82,825,825,black,no,experiment,Mozilla,Netscape,"5.0 (Macintosh; Intel Mac OS X 10_13_6) AppleWebKit/537.36 (KHTML, like Gecko) Chrome/94.0.4606.71 Safari/537.36",legacy,legacy,legacy,0,uniform,1,1,right,33,33,33,33,0,0,0,33,33,0,0,0,33,33,33,0,0,33,33,0,04-09-21,04-09-21,10:17:00,Mon Oct 04 2021 10:17:00 GMT+0200 (Centraleuropæisk sommertid),The main experiment item,yes,0,0,/Users/ethan/Documents/GitHub/OpenSesame/Sternberg/experiment_files,0,0,0,no,mono,no,18,no,white,no,no,768,130,3.6.1,legacy,legacy,9 6 2 4 1,osweb,1.4.0,1,4,y,36,,0,right,,,space,right,right,right,674,,,20020,19366,32262,674,2,legacy,721,1280,24,800,24,0,23,1280,1633335448645,5,1024,2,48000,-16,experiment,0,even,MacIntel,4,275432,,,272165,55,273198,266312,55,20086,113256,277443,274216,278127,55,277443,Sternberg_updated,28,28049,34,yes,1024
83,83,821,821,black,no,experiment,Mozilla,Netscape,"5.0 (Macintosh; Intel Mac OS X 10_13_6) AppleWebKit/537.36 (KHTML, like Gecko) Chrome/94.0.4606.71 Safari/537.36",legacy,legacy,legacy,0,uniform,1,1,left,34,34,34,34,0,0,0,34,34,0,0,0,34,34,34,0,0,34,34,0,04-09-21,04-09-21,10:17:00,Mon Oct 04 2021 10:17:00 GMT+0200 (Centraleuropæisk sommertid),The main experiment item,yes,0,0,/Users/ethan/Documents/GitHub/OpenSesame/Sternberg/experiment_files,0,0,0,no,mono,no,18,no,white,no,no,768,130,3.6.1,legacy,legacy,2 5 1 4,osweb,1.4.0,1,0,n,36,,0,left,,,space,right,right,left,679,,,20020,19366,32262,679,2,legacy,721,1280,24,800,24,0,23,1280,1633335448645,4,1024,2,48000,-16,experiment,0,even,MacIntel,6,281362,,,278128,55,279159,266312,55,20086,113256,283379,280161,284062,55,283379,Sternberg_updated,29,28728,35,yes,1024
83,83,821,821,black,no,experiment,Mozilla,Netscape,"5.0 (Macintosh; Intel Mac OS X 10_13_6) AppleWebKit/537.36 (KHTML, like Gecko) Chrome/94.0.4606.71 Safari/537.36",legacy,legacy,legacy,0,uniform,1,1,left,35,35,35,35,0,0,0,35,35,0,0,0,35,35,35,0,0,35,35,0,04-09-21,04-09-21,10:17:00,Mon Oct 04 2021 10:17:00 GMT+0200 (Centraleuropæisk sommertid),The main experiment item,yes,0,0,/Users/ethan/Documents/GitHub/OpenSesame/Sternberg/experiment_files,0,0,0,no,mono,no,18,no,white,no,no,768,130,3.6.1,legacy,legacy,1 7 5 2 9,osweb,1.4.0,1,0,n,36,,0,left,,,space,right,right,left,833,,,20020,19366,32262,833,2,legacy,721,1280,24,800,24,0,23,1280,1633335448645,5,1024,2,48000,-16,experiment,0,even,MacIntel,3,287309,,,284063,55,285096,266312,55,20086,113256,289326,286097,290160,55,289326,Sternberg_updated,30,29561,36,yes,1024
84,84,821,821,black,no,experiment,Mozilla,Netscape,"5.0 (Macintosh; Intel Mac OS X 10_13_6) AppleWebKit/537.36 (KHTML, like Gecko) Chrome/94.0.4606.71 Safari/537.36",legacy,legacy,legacy,0,uniform,1,1,left,36,36,36,36,0,0,0,36,36,0,0,0,36,36,36,0,0,36,36,0,04-09-21,04-09-21,10:17:00,Mon Oct 04 2021 10:17:00 GMT+0200 (Centraleuropæisk sommertid),The main experiment item,yes,0,0,/Users/ethan/Documents/GitHub/OpenSesame/Sternberg/experiment_files,0,0,0,no,mono,no,18,no,white,no,no,768,130,3.6.1,legacy,legacy,8 9,osweb,1.4.0,1,0,n,36,,0,left,,,space,right,right,left,834,,,20020,19366,32262,834,2,legacy,721,1280,24,800,24,0,23,1280,1633335448645,2,1024,2,48000,-16,experiment,0,even,MacIntel,5,293427,,,290161,55,291194,266312,55,20086,113256,295429,292211,296279,55,295429,Sternberg_updated,31,30395,37,yes,1024
84,84,818,818,black,no,experiment,Mozilla,Netscape,"5.0 (Macintosh; Intel Mac OS X 10_13_6) AppleWebKit/537.36 (KHTML, like Gecko) Chrome/94.0.4606.71 Safari/537.36",legacy,legacy,legacy,0,uniform,1,1,left,37,37,37,37,0,0,0,37,37,0,0,0,37,37,37,0,0,37,37,0,04-09-21,04-09-21,10:17:00,Mon Oct 04 2021 10:17:00 GMT+0200 (Centraleuropæisk sommertid),The main experiment item,yes,0,0,/Users/ethan/Documents/GitHub/OpenSesame/Sternberg/experiment_files,0,0,0,no,mono,no,18,no,white,no,no,768,130,3.6.1,legacy,legacy,3 9 1,osweb,1.4.0,1,0,n,36,,0,left,,,space,right,right,left,695,,,20020,19366,32262,695,2,legacy,721,1280,24,800,24,0,23,1280,1633335448645,3,1024,2,48000,-16,experiment,0,even,MacIntel,7,299526,,,296280,55,297306,266312,55,20086,113256,301543,298308,302243,55,301543,Sternberg_updated,32,31090,38,yes,1024
85,85,818,818,black,no,experiment,Mozilla,Netscape,"5.0 (Macintosh; Intel Mac OS X 10_13_6) AppleWebKit/537.36 (KHTML, like Gecko) Chrome/94.0.4606.71 Safari/537.36",legacy,legacy,legacy,0,uniform,1,1,right,38,38,38,38,0,0,0,38,38,0,0,0,38,38,38,0,0,38,38,0,04-09-21,04-09-21,10:17:00,Mon Oct 04 2021 10:17:00 GMT+0200 (Centraleuropæisk sommertid),The main experiment item,yes,0,0,/Users/ethan/Documents/GitHub/OpenSesame/Sternberg/experiment_files,0,0,0,no,mono,no,18,no,white,no,no,768,130,3.6.1,legacy,legacy,6 9 3 1,osweb,1.4.0,1,4,y,36,,0,right,,,space,right,right,right,820,,,20020,19366,32262,820,2,legacy,721,1280,24,800,24,0,23,1280,1633335448645,4,1024,2,48000,-16,experiment,0,even,MacIntel,1,305495,,,302244,55,303275,266312,55,20086,113256,307512,304278,308334,55,307512,Sternberg_updated,33,31910,39,yes,1024
85,85,818,818,black,no,experiment,Mozilla,Netscape,"5.0 (Macintosh; Intel Mac OS X 10_13_6) AppleWebKit/537.36 (KHTML, like Gecko) Chrome/94.0.4606.71 Safari/537.36",legacy,legacy,legacy,0,uniform,1,1,left,39,39,39,39,0,0,0,39,39,0,0,0,39,39,39,0,0,39,39,0,04-09-21,04-09-21,10:17:00,Mon Oct 04 2021 10:17:00 GMT+0200 (Centraleuropæisk sommertid),The main experiment item,yes,0,0,/Users/ethan/Documents/GitHub/OpenSesame/Sternberg/experiment_files,0,0,0,no,mono,no,18,no,white,no,no,768,130,3.6.1,legacy,legacy,8 2 1 4 5 9,osweb,1.4.0,1,0,n,36,,0,left,,,space,right,right,left,793,,,20020,19366,32262,793,2,legacy,721,1280,24,800,24,0,23,1280,1633335448645,6,1024,2,48000,-16,experiment,0,even,MacIntel,7,311587,,,308335,55,309352,266312,55,20086,113256,313605,310370,314404,55,313605,Sternberg_updated,34,32703,40,yes,1024
83,83,818,818,black,no,experiment,Mozilla,Netscape,"5.0 (Macintosh; Intel Mac OS X 10_13_6) AppleWebKit/537.36 (KHTML, like Gecko) Chrome/94.0.4606.71 Safari/537.36",legacy,legacy,legacy,0,uniform,0,0,left,40,40,40,40,0,0,0,40,40,0,0,0,40,40,40,0,0,40,40,0,04-09-21,04-09-21,10:17:00,Mon Oct 04 2021 10:17:00 GMT+0200 (Centraleuropæisk sommertid),The main experiment item,yes,0,0,/Users/ethan/Documents/GitHub/OpenSesame/Sternberg/experiment_files,0,0,0,no,mono,no,18,no,white,no,no,768,130,3.6.1,legacy,legacy,6 9 7 3 8 2,osweb,1.4.0,1,0,n,36,,0,right,,,space,right,right,right,853,,,20020,19366,32262,853,2,legacy,721,1280,24,800,24,0,23,1280,1633335448645,6,1024,2,48000,-16,experiment,0,even,MacIntel,5,317656,,,314405,55,315437,266312,55,20086,113256,319672,316439,320538,55,319672,Sternberg_updated,34,33556,41,yes,1024
83,83,831,831,black,no,experiment,Mozilla,Netscape,"5.0 (Macintosh; Intel Mac OS X 10_13_6) AppleWebKit/537.36 (KHTML, like Gecko) Chrome/94.0.4606.71 Safari/537.36",legacy,legacy,legacy,0,uniform,1,1,left,41,41,41,41,0,0,0,41,41,0,0,0,41,41,41,0,0,41,41,0,04-09-21,04-09-21,10:17:00,Mon Oct 04 2021 10:17:00 GMT+0200 (Centraleuropæisk sommertid),The main experiment item,yes,0,0,/Users/ethan/Documents/GitHub/OpenSesame/Sternberg/experiment_files,0,0,0,no,mono,no,18,no,white,no,no,768,130,3.6.1,legacy,legacy,1 4 9 3,osweb,1.4.0,1,0,n,36,,0,left,,,space,right,right,left,1356,,,20020,19366,32262,1356,2,legacy,721,1280,24,800,24,0,23,1280,1633335448645,4,1024,2,48000,-16,experiment,0,even,MacIntel,5,323790,,,314405,55,321572,320539,55,20086,113256,325791,322573,327158,55,325791,Sternberg_updated,35,34912,42,yes,1024
84,84,831,831,black,no,experiment,Mozilla,Netscape,"5.0 (Macintosh; Intel Mac OS X 10_13_6) AppleWebKit/537.36 (KHTML, like Gecko) Chrome/94.0.4606.71 Safari/537.36",legacy,legacy,legacy,0,uniform,1,1,right,42,42,42,42,0,0,0,42,42,0,0,0,42,42,42,0,0,42,42,0,04-09-21,04-09-21,10:17:00,Mon Oct 04 2021 10:17:00 GMT+0200 (Centraleuropæisk sommertid),The main experiment item,yes,0,0,/Users/ethan/Documents/GitHub/OpenSesame/Sternberg/experiment_files,0,0,0,no,mono,no,18,no,white,no,no,768,130,3.6.1,legacy,legacy,7 8 6 3 1,osweb,1.4.0,1,5,y,36,,0,right,,,space,right,right,right,825,,,20020,19366,32262,825,2,legacy,721,1280,24,800,24,0,23,1280,1633335448645,5,1024,2,48000,-16,experiment,0,even,MacIntel,1,330414,,,327159,55,328192,320539,55,20086,113256,332415,329197,333249,55,332415,Sternberg_updated,36,35737,43,yes,1024
84,84,833,833,black,no,experiment,Mozilla,Netscape,"5.0 (Macintosh; Intel Mac OS X 10_13_6) AppleWebKit/537.36 (KHTML, like Gecko) Chrome/94.0.4606.71 Safari/537.36",legacy,legacy,legacy,0,uniform,1,1,left,43,43,43,43,0,0,0,43,43,0,0,0,43,43,43,0,0,43,43,0,04-09-21,04-09-21,10:17:00,Mon Oct 04 2021 10:17:00 GMT+0200 (Centraleuropæisk sommertid),The main experiment item,yes,0,0,/Users/ethan/Documents/GitHub/OpenSesame/Sternberg/experiment_files,0,0,0,no,mono,no,18,no,white,no,no,768,130,3.6.1,legacy,legacy,7 9,osweb,1.4.0,1,0,n,36,,0,left,,,space,right,right,left,908,,,20020,19366,32262,908,2,legacy,721,1280,24,800,24,0,23,1280,1633335448645,2,1024,2,48000,-16,experiment,0,even,MacIntel,1,336517,,,333249,55,334284,320539,55,20086,113256,338534,335300,339452,55,338534,Sternberg_updated,37,36645,44,yes,1024
84,84,833,833,black,no,experiment,Mozilla,Netscape,"5.0 (Macintosh; Intel Mac OS X 10_13_6) AppleWebKit/537.36 (KHTML, like Gecko) Chrome/94.0.4606.71 Safari/537.36",legacy,legacy,legacy,0,uniform,1,1,left,44,44,44,44,0,0,0,44,44,0,0,0,44,44,44,0,0,44,44,0,04-09-21,04-09-21,10:17:00,Mon Oct 04 2021 10:17:00 GMT+0200 (Centraleuropæisk sommertid),The main experiment item,yes,0,0,/Users/ethan/Documents/GitHub/OpenSesame/Sternberg/experiment_files,0,0,0,no,mono,no,18,no,white,no,no,768,130,3.6.1,legacy,legacy,9 8 2 7 4,osweb,1.4.0,1,0,n,36,,0,left,,,space,right,right,left,847,,,20020,19366,32262,847,2,legacy,721,1280,24,800,24,0,23,1280,1633335448645,5,1024,2,48000,-16,experiment,0,even,MacIntel,5,342690,,,339453,55,340473,320539,55,20086,113256,344692,341474,345541,55,344692,Sternberg_updated,38,37492,45,yes,1024
83,83,840,840,black,no,experiment,Mozilla,Netscape,"5.0 (Macintosh; Intel Mac OS X 10_13_6) AppleWebKit/537.36 (KHTML, like Gecko) Chrome/94.0.4606.71 Safari/537.36",legacy,legacy,legacy,0,uniform,0,0,right,45,45,45,45,0,0,0,45,45,0,0,0,45,45,45,0,0,45,45,0,04-09-21,04-09-21,10:17:00,Mon Oct 04 2021 10:17:00 GMT+0200 (Centraleuropæisk sommertid),The main experiment item,yes,0,0,/Users/ethan/Documents/GitHub/OpenSesame/Sternberg/experiment_files,0,0,0,no,mono,no,18,no,white,no,no,768,130,3.6.1,legacy,legacy,9 3 1 2 5,osweb,1.4.0,1,4,y,36,,0,left,,,space,right,right,left,1141,,,20020,19366,32262,1141,2,legacy,721,1280,24,800,24,0,23,1280,1633335448645,5,1024,2,48000,-16,experiment,0,even,MacIntel,2,348777,,,345542,55,346558,320539,55,20086,113256,350778,347560,351922,55,350778,Sternberg_updated,38,38633,46,yes,1024
83,83,838,838,black,no,experiment,Mozilla,Netscape,"5.0 (Macintosh; Intel Mac OS X 10_13_6) AppleWebKit/537.36 (KHTML, like Gecko) Chrome/94.0.4606.71 Safari/537.36",legacy,legacy,legacy,0,uniform,1,1,left,46,46,46,46,0,0,0,46,46,0,0,0,46,46,46,0,0,46,46,0,04-09-21,04-09-21,10:17:00,Mon Oct 04 2021 10:17:00 GMT+0200 (Centraleuropæisk sommertid),The main experiment item,yes,0,0,/Users/ethan/Documents/GitHub/OpenSesame/Sternberg/experiment_files,0,0,0,no,mono,no,18,no,white,no,no,768,130,3.6.1,legacy,legacy,1 4 3 6 5,osweb,1.4.0,1,0,n,36,,0,left,,,space,right,right,left,767,,,20020,19366,32262,767,2,legacy,721,1280,24,800,24,0,23,1280,1633335448645,5,1024,2,48000,-16,experiment,0,even,MacIntel,8,355190,,,345542,55,352956,351923,55,20086,113256,357192,353974,357976,55,357192,Sternberg_updated,39,39400,47,yes,1024
83,83,844,844,black,no,experiment,Mozilla,Netscape,"5.0 (Macintosh; Intel Mac OS X 10_13_6) AppleWebKit/537.36 (KHTML, like Gecko) Chrome/94.0.4606.71 Safari/537.36",legacy,legacy,legacy,0,uniform,1,1,left,47,47,47,47,0,0,0,47,47,0,0,0,47,47,47,0,0,47,47,0,04-09-21,04-09-21,10:17:00,Mon Oct 04 2021 10:17:00 GMT+0200 (Centraleuropæisk sommertid),The main experiment item,yes,0,0,/Users/ethan/Documents/GitHub/OpenSesame/Sternberg/experiment_files,0,0,0,no,mono,no,18,no,white,no,no,768,130,3.6.1,legacy,legacy,5 3 8 7 2 4,osweb,1.4.0,1,0,n,36,,0,left,,,space,right,right,left,1097,,,20020,19366,32262,1097,2,legacy,721,1280,24,800,24,0,23,1280,1633335448645,6,1024,2,48000,-16,experiment,0,even,MacIntel,9,361236,,,357976,55,359009,351923,55,20086,113256,363255,360026,364353,55,363255,Sternberg_updated,40,40497,48,yes,1024
84,84,843,843,black,no,experiment,Mozilla,Netscape,"5.0 (Macintosh; Intel Mac OS X 10_13_6) AppleWebKit/537.36 (KHTML, like Gecko) Chrome/94.0.4606.71 Safari/537.36",legacy,legacy,legacy,0,uniform,1,1,right,48,48,48,48,0,0,0,48,48,0,0,0,48,48,48,0,0,48,48,0,04-09-21,04-09-21,10:17:00,Mon Oct 04 2021 10:17:00 GMT+0200 (Centraleuropæisk sommertid),The main experiment item,yes,0,0,/Users/ethan/Documents/GitHub/OpenSesame/Sternberg/experiment_files,0,0,0,no,mono,no,18,no,white,no,no,768,130,3.6.1,legacy,legacy,2 5 4 8 7,osweb,1.4.0,1,3,y,36,,0,right,,,space,right,right,right,802,,,20020,19366,32262,802,2,legacy,721,1280,24,800,24,0,23,1280,1633335448645,5,1024,2,48000,-16,experiment,0,even,MacIntel,4,367606,,,364354,55,365372,351923,55,20086,113256,369623,366389,370440,55,369623,Sternberg_updated,41,41299,49,yes,1024
84,84,842,842,black,no,experiment,Mozilla,Netscape,"5.0 (Macintosh; Intel Mac OS X 10_13_6) AppleWebKit/537.36 (KHTML, like Gecko) Chrome/94.0.4606.71 Safari/537.36",legacy,legacy,legacy,0,uniform,1,1,right,49,49,49,49,0,0,0,49,49,0,0,0,49,49,49,0,0,49,49,0,04-09-21,04-09-21,10:17:00,Mon Oct 04 2021 10:17:00 GMT+0200 (Centraleuropæisk sommertid),The main experiment item,yes,0,0,/Users/ethan/Documents/GitHub/OpenSesame/Sternberg/experiment_files,0,0,0,no,mono,no,18,no,white,no,no,768,130,3.6.1,legacy,legacy,3 4 9 6 2 9,osweb,1.4.0,1,5,y,36,,0,right,,,space,right,right,right,795,,,20020,19366,32262,795,2,legacy,721,1280,24,800,24,0,23,1280,1633335448645,6,1024,2,48000,-16,experiment,0,even,MacIntel,2,373684,,,370441,55,371466,351923,55,20086,113256,375685,372468,376485,55,375685,Sternberg_updated,42,42094,50,yes,1024
84,84,838,838,black,no,experiment,Mozilla,Netscape,"5.0 (Macintosh; Intel Mac OS X 10_13_6) AppleWebKit/537.36 (KHTML, like Gecko) Chrome/94.0.4606.71 Safari/537.36",legacy,legacy,legacy,0,uniform,1,1,left,50,50,50,50,0,0,0,50,50,0,0,0,50,50,50,0,0,50,50,0,04-09-21,04-09-21,10:17:00,Mon Oct 04 2021 10:17:00 GMT+0200 (Centraleuropæisk sommertid),The main experiment item,yes,0,0,/Users/ethan/Documents/GitHub/OpenSesame/Sternberg/experiment_files,0,0,0,no,mono,no,18,no,white,no,no,768,130,3.6.1,legacy,legacy,4 2 6 9,osweb,1.4.0,1,0,n,36,,0,left,,,space,right,right,left,621,,,20020,19366,32262,621,2,legacy,721,1280,24,800,24,0,23,1280,1633335448645,4,1024,2,48000,-16,experiment,0,even,MacIntel,7,379704,,,376485,55,377502,351923,55,20086,113256,381705,378503,382342,55,381705,Sternberg_updated,43,42715,51,yes,1024
85,85,833,833,black,no,experiment,Mozilla,Netscape,"5.0 (Macintosh; Intel Mac OS X 10_13_6) AppleWebKit/537.36 (KHTML, like Gecko) Chrome/94.0.4606.71 Safari/537.36",legacy,legacy,legacy,0,uniform,1,1,right,51,51,51,51,0,0,0,51,51,0,0,0,51,51,51,0,0,51,51,0,04-09-21,04-09-21,10:17:00,Mon Oct 04 2021 10:17:00 GMT+0200 (Centraleuropæisk sommertid),The main experiment item,yes,0,0,/Users/ethan/Documents/GitHub/OpenSesame/Sternberg/experiment_files,0,0,0,no,mono,no,18,no,white,no,no,768,130,3.6.1,legacy,legacy,3 5 9 6 2 4,osweb,1.4.0,1,1,y,36,,0,right,,,space,right,right,right,602,,,20020,19366,32262,602,2,legacy,721,1280,24,800,24,0,23,1280,1633335448645,6,1024,2,48000,-16,experiment,0,even,MacIntel,3,385577,,,382343,55,383375,351923,55,20086,113256,387578,384376,388195,55,387578,Sternberg_updated,44,43317,52,yes,1024
85,85,831,831,black,no,experiment,Mozilla,Netscape,"5.0 (Macintosh; Intel Mac OS X 10_13_6) AppleWebKit/537.36 (KHTML, like Gecko) Chrome/94.0.4606.71 Safari/537.36",legacy,legacy,legacy,0,uniform,1,1,left,52,52,52,52,0,0,0,52,52,0,0,0,52,52,52,0,0,52,52,0,04-09-21,04-09-21,10:17:00,Mon Oct 04 2021 10:17:00 GMT+0200 (Centraleuropæisk sommertid),The main experiment item,yes,0,0,/Users/ethan/Documents/GitHub/OpenSesame/Sternberg/experiment_files,0,0,0,no,mono,no,18,no,white,no,no,768,130,3.6.1,legacy,legacy,1 4 9 2 5,osweb,1.4.0,1,0,n,36,,0,left,,,space,right,right,left,707,,,20020,19366,32262,707,2,legacy,721,1280,24,800,24,0,23,1280,1633335448645,5,1024,2,48000,-16,experiment,0,even,MacIntel,7,391446,,,388196,55,389227,351923,55,20086,113256,393453,390229,394170,55,393453,Sternberg_updated,45,44024,53,yes,1024
85,85,828,828,black,no,experiment,Mozilla,Netscape,"5.0 (Macintosh; Intel Mac OS X 10_13_6) AppleWebKit/537.36 (KHTML, like Gecko) Chrome/94.0.4606.71 Safari/537.36",legacy,legacy,legacy,0,uniform,1,1,right,53,53,53,53,0,0,0,53,53,0,0,0,53,53,53,0,0,53,53,0,04-09-21,04-09-21,10:17:00,Mon Oct 04 2021 10:17:00 GMT+0200 (Centraleuropæisk sommertid),The main experiment item,yes,0,0,/Users/ethan/Documents/GitHub/OpenSesame/Sternberg/experiment_files,0,0,0,no,mono,no,18,no,white,no,no,768,130,3.6.1,legacy,legacy,3 5 4 7,osweb,1.4.0,1,1,y,36,,0,right,,,space,right,right,right,678,,,20020,19366,32262,678,2,legacy,721,1280,24,800,24,0,23,1280,1633335448645,4,1024,2,48000,-16,experiment,0,even,MacIntel,3,397439,,,394171,55,395206,351923,55,20086,113256,399456,396222,400139,55,399456,Sternberg_updated,46,44702,54,yes,1024
85,85,824,824,black,no,experiment,Mozilla,Netscape,"5.0 (Macintosh; Intel Mac OS X 10_13_6) AppleWebKit/537.36 (KHTML, like Gecko) Chrome/94.0.4606.71 Safari/537.36",legacy,legacy,legacy,0,uniform,1,1,right,54,54,54,54,0,0,0,54,54,0,0,0,54,54,54,0,0,54,54,0,04-09-21,04-09-21,10:17:00,Mon Oct 04 2021 10:17:00 GMT+0200 (Centraleuropæisk sommertid),The main experiment item,yes,0,0,/Users/ethan/Documents/GitHub/OpenSesame/Sternberg/experiment_files,0,0,0,no,mono,no,18,no,white,no,no,768,130,3.6.1,legacy,legacy,6 5,osweb,1.4.0,1,2,y,36,,0,right,,,space,right,right,right,622,,,20020,19366,32262,622,2,legacy,721,1280,24,800,24,0,23,1280,1633335448645,2,1024,2,48000,-16,experiment,0,even,MacIntel,5,403397,,,400142,55,401174,351923,55,20086,113256,405414,402191,406047,55,405414,Sternberg_updated,47,45324,55,yes,1024
86,86,823,823,black,no,experiment,Mozilla,Netscape,"5.0 (Macintosh; Intel Mac OS X 10_13_6) AppleWebKit/537.36 (KHTML, like Gecko) Chrome/94.0.4606.71 Safari/537.36",legacy,legacy,legacy,0,uniform,1,1,right,55,55,55,55,0,0,0,55,55,0,0,0,55,55,55,0,0,55,55,0,04-09-21,04-09-21,10:17:00,Mon Oct 04 2021 10:17:00 GMT+0200 (Centraleuropæisk sommertid),The main experiment item,yes,0,0,/Users/ethan/Documents/GitHub/OpenSesame/Sternberg/experiment_files,0,0,0,no,mono,no,18,no,white,no,no,768,130,3.6.1,legacy,legacy,4 3 2 5 8,osweb,1.4.0,1,2,y,36,,0,right,right,,space,right,right,right,754,21857,,20020,19366,32262,754,2,legacy,721,1280,24,800,24,0,23,1280,1633335448645,5,1024,2,48000,-16,experiment,0,even,MacIntel,3,431141,407049,,406048,55,428923,351923,55,20086,113256,433143,429925,433909,55,433143,Sternberg_updated,48,46078,56,yes,1024
86,86,818,818,black,no,experiment,Mozilla,Netscape,"5.0 (Macintosh; Intel Mac OS X 10_13_6) AppleWebKit/537.36 (KHTML, like Gecko) Chrome/94.0.4606.71 Safari/537.36",legacy,legacy,legacy,0,uniform,1,1,right,56,56,56,56,0,0,0,56,56,0,0,0,56,56,56,0,0,56,56,0,04-09-21,04-09-21,10:17:00,Mon Oct 04 2021 10:17:00 GMT+0200 (Centraleuropæisk sommertid),The main experiment item,yes,0,0,/Users/ethan/Documents/GitHub/OpenSesame/Sternberg/experiment_files,0,0,0,no,mono,no,18,no,white,no,no,768,130,3.6.1,legacy,legacy,3 5 7 1,osweb,1.4.0,1,3,y,36,,0,right,right,,space,right,right,right,568,21857,,20020,19366,32262,568,2,legacy,721,1280,24,800,24,0,23,1280,1633335448645,4,1024,2,48000,-16,experiment,0,even,MacIntel,7,437160,407049,,433910,55,434942,351923,55,20086,113256,439162,435944,439745,55,439162,Sternberg_updated,49,46646,57,yes,1024
86,86,815,815,black,no,experiment,Mozilla,Netscape,"5.0 (Macintosh; Intel Mac OS X 10_13_6) AppleWebKit/537.36 (KHTML, like Gecko) Chrome/94.0.4606.71 Safari/537.36",legacy,legacy,legacy,0,uniform,1,1,left,57,57,57,57,0,0,0,57,57,0,0,0,57,57,57,0,0,57,57,0,04-09-21,04-09-21,10:17:00,Mon Oct 04 2021 10:17:00 GMT+0200 (Centraleuropæisk sommertid),The main experiment item,yes,0,0,/Users/ethan/Documents/GitHub/OpenSesame/Sternberg/experiment_files,0,0,0,no,mono,no,18,no,white,no,no,768,130,3.6.1,legacy,legacy,6 9 4 5 2,osweb,1.4.0,1,0,n,36,,0,left,right,,space,right,right,left,650,21857,,20020,19366,32262,650,2,legacy,721,1280,24,800,24,0,23,1280,1633335448645,5,1024,2,48000,-16,experiment,0,even,MacIntel,1,442990,407049,,439746,55,440772,351923,55,20086,113256,444992,441774,445658,55,444992,Sternberg_updated,50,47296,58,yes,1024
86,86,814,814,black,no,experiment,Mozilla,Netscape,"5.0 (Macintosh; Intel Mac OS X 10_13_6) AppleWebKit/537.36 (KHTML, like Gecko) Chrome/94.0.4606.71 Safari/537.36",legacy,legacy,legacy,0,uniform,1,1,left,58,58,58,58,0,0,0,58,58,0,0,0,58,58,58,0,0,58,58,0,04-09-21,04-09-21,10:17:00,Mon Oct 04 2021 10:17:00 GMT+0200 (Centraleuropæisk sommertid),The main experiment item,yes,0,0,/Users/ethan/Documents/GitHub/OpenSesame/Sternberg/experiment_files,0,0,0,no,mono,no,18,no,white,no,no,768,130,3.6.1,legacy,legacy,8 5 7 3 6,osweb,1.4.0,1,0,n,36,,0,left,right,,space,right,right,left,720,21857,,20020,19366,32262,720,2,legacy,721,1280,24,800,24,0,23,1280,1633335448645,5,1024,2,48000,-16,experiment,0,even,MacIntel,9,448926,407049,,445659,55,446692,351923,55,20086,113256,450928,447710,451661,55,450928,Sternberg_updated,51,48016,59,yes,1024
87,87,810,810,black,no,experiment,Mozilla,Netscape,"5.0 (Macintosh; Intel Mac OS X 10_13_6) AppleWebKit/537.36 (KHTML, like Gecko) Chrome/94.0.4606.71 Safari/537.36",legacy,legacy,legacy,0,uniform,1,1,right,59,59,59,59,0,0,0,59,59,0,0,0,59,59,59,0,0,59,59,0,04-09-21,04-09-21,10:17:00,Mon Oct 04 2021 10:17:00 GMT+0200 (Centraleuropæisk sommertid),The main experiment item,yes,0,0,/Users/ethan/Documents/GitHub/OpenSesame/Sternberg/experiment_files,0,0,0,no,mono,no,18,no,white,no,no,768,130,3.6.1,legacy,legacy,2 8 5 1,osweb,1.4.0,1,4,y,36,,0,right,right,,space,right,right,right,594,21857,,20020,19366,32262,594,2,legacy,721,1280,24,800,24,0,23,1280,1633335448645,4,1024,2,48000,-16,experiment,0,even,MacIntel,1,454885,407049,,451662,55,452682,351923,55,20086,113256,456902,453684,457502,55,456902,Sternberg_updated,52,48610,60,yes,1024
87,87,811,811,black,no,experiment,Mozilla,Netscape,"5.0 (Macintosh; Intel Mac OS X 10_13_6) AppleWebKit/537.36 (KHTML, like Gecko) Chrome/94.0.4606.71 Safari/537.36",legacy,legacy,legacy,0,uniform,1,1,right,60,60,60,60,0,0,0,60,60,0,0,0,60,60,60,0,0,60,60,0,04-09-21,04-09-21,10:17:00,Mon Oct 04 2021 10:17:00 GMT+0200 (Centraleuropæisk sommertid),The main experiment item,yes,0,0,/Users/ethan/Documents/GitHub/OpenSesame/Sternberg/experiment_files,0,0,0,no,mono,no,18,no,white,no,no,768,130,3.6.1,legacy,legacy,5 2 9 6 1 7,osweb,1.4.0,1,3,y,36,,0,right,right,,space,right,right,right,857,21857,,20020,19366,32262,857,2,legacy,721,1280,24,800,24,0,23,1280,1633335448645,6,1024,2,48000,-16,experiment,0,even,MacIntel,9,460771,407049,,457503,55,458536,351923,55,20086,113256,462788,459554,463655,55,462788,Sternberg_updated,53,49467,61,yes,1024
87,87,808,808,black,no,experiment,Mozilla,Netscape,"5.0 (Macintosh; Intel Mac OS X 10_13_6) AppleWebKit/537.36 (KHTML, like Gecko) Chrome/94.0.4606.71 Safari/537.36",legacy,legacy,legacy,0,uniform,1,1,right,61,61,61,61,0,0,0,61,61,0,0,0,61,61,61,0,0,61,61,0,04-09-21,04-09-21,10:17:00,Mon Oct 04 2021 10:17:00 GMT+0200 (Centraleuropæisk sommertid),The main experiment item,yes,0,0,/Users/ethan/Documents/GitHub/OpenSesame/Sternberg/experiment_files,0,0,0,no,mono,no,18,no,white,no,no,768,130,3.6.1,legacy,legacy,8 5 3 7 4 6,osweb,1.4.0,1,6,y,36,,0,right,right,,space,right,right,right,611,21857,,20020,19366,32262,611,2,legacy,721,1280,24,800,24,0,23,1280,1633335448645,6,1024,2,48000,-16,experiment,0,even,MacIntel,6,466889,407049,,463656,55,464687,351923,55,20086,113256,468906,465688,469523,55,468906,Sternberg_updated,54,50078,62,yes,1024
87,87,808,808,black,no,experiment,Mozilla,Netscape,"5.0 (Macintosh; Intel Mac OS X 10_13_6) AppleWebKit/537.36 (KHTML, like Gecko) Chrome/94.0.4606.71 Safari/537.36",legacy,legacy,legacy,0,uniform,1,1,left,62,62,62,62,0,0,0,62,62,0,0,0,62,62,62,0,0,62,62,0,04-09-21,04-09-21,10:17:00,Mon Oct 04 2021 10:17:00 GMT+0200 (Centraleuropæisk sommertid),The main experiment item,yes,0,0,/Users/ethan/Documents/GitHub/OpenSesame/Sternberg/experiment_files,0,0,0,no,mono,no,18,no,white,no,no,768,130,3.6.1,legacy,legacy,2 6 4 3 9,osweb,1.4.0,1,0,n,36,,0,left,right,,space,right,right,left,834,21857,,20020,19366,32262,834,2,legacy,721,1280,24,800,24,0,23,1280,1633335448645,5,1024,2,48000,-16,experiment,0,even,MacIntel,1,472775,407049,,469524,55,470556,351923,55,20086,113256,474792,471558,475643,55,474791,Sternberg_updated,55,50912,63,yes,1024
88,88,805,805,black,no,experiment,Mozilla,Netscape,"5.0 (Macintosh; Intel Mac OS X 10_13_6) AppleWebKit/537.36 (KHTML, like Gecko) Chrome/94.0.4606.71 Safari/537.36",legacy,legacy,legacy,0,uniform,1,1,right,63,63,63,63,0,0,0,63,63,0,0,0,63,63,63,0,0,63,63,0,04-09-21,04-09-21,10:17:00,Mon Oct 04 2021 10:17:00 GMT+0200 (Centraleuropæisk sommertid),The main experiment item,yes,0,0,/Users/ethan/Documents/GitHub/OpenSesame/Sternberg/experiment_files,0,0,0,no,mono,no,18,no,white,no,no,768,130,3.6.1,legacy,legacy,7,osweb,1.4.0,1,1,y,36,,0,right,right,,space,right,right,right,583,21857,,20020,19366,32262,583,2,legacy,721,1280,24,800,24,0,23,1280,1633335448645,1,1024,2,48000,-16,experiment,0,even,MacIntel,7,478890,407049,,475644,55,476671,351923,55,20086,113256,480891,477673,481475,55,480891,Sternberg_updated,56,51495,64,yes,1024
88,88,801,801,black,no,experiment,Mozilla,Netscape,"5.0 (Macintosh; Intel Mac OS X 10_13_6) AppleWebKit/537.36 (KHTML, like Gecko) Chrome/94.0.4606.71 Safari/537.36",legacy,legacy,legacy,0,uniform,1,1,right,64,64,64,64,0,0,0,64,64,0,0,0,64,64,64,0,0,64,64,0,04-09-21,04-09-21,10:17:00,Mon Oct 04 2021 10:17:00 GMT+0200 (Centraleuropæisk sommertid),The main experiment item,yes,0,0,/Users/ethan/Documents/GitHub/OpenSesame/Sternberg/experiment_files,0,0,0,no,mono,no,18,no,white,no,no,768,130,3.6.1,legacy,legacy,6 2,osweb,1.4.0,1,1,y,36,,0,right,right,,space,right,right,right,573,21857,,20020,19366,32262,573,2,legacy,721,1280,24,800,24,0,23,1280,1633335448645,2,1024,2,48000,-16,experiment,0,even,MacIntel,6,484726,407049,,481476,55,482508,351923,55,20086,113256,486727,483509,487311,55,486727,Sternberg_updated,57,52068,65,yes,1024
88,88,798,798,black,no,experiment,Mozilla,Netscape,"5.0 (Macintosh; Intel Mac OS X 10_13_6) AppleWebKit/537.36 (KHTML, like Gecko) Chrome/94.0.4606.71 Safari/537.36",legacy,legacy,legacy,0,uniform,1,1,right,65,65,65,65,0,0,0,65,65,0,0,0,65,65,65,0,0,65,65,0,04-09-21,04-09-21,10:17:00,Mon Oct 04 2021 10:17:00 GMT+0200 (Centraleuropæisk sommertid),The main experiment item,yes,0,0,/Users/ethan/Documents/GitHub/OpenSesame/Sternberg/experiment_files,0,0,0,no,mono,no,18,no,white,no,no,768,130,3.6.1,legacy,legacy,7 6,osweb,1.4.0,1,2,y,36,,0,right,right,,space,right,right,right,608,21857,,20020,19366,32262,608,2,legacy,721,1280,24,800,24,0,23,1280,1633335448645,2,1024,2,48000,-16,experiment,0,even,MacIntel,6,490556,407049,,487311,55,488338,351923,55,20086,113256,492558,489340,493175,55,492558,Sternberg_updated,58,52676,66,yes,1024
88,88,800,800,black,no,experiment,Mozilla,Netscape,"5.0 (Macintosh; Intel Mac OS X 10_13_6) AppleWebKit/537.36 (KHTML, like Gecko) Chrome/94.0.4606.71 Safari/537.36",legacy,legacy,legacy,0,uniform,1,1,right,66,66,66,66,0,0,0,66,66,0,0,0,66,66,66,0,0,66,66,0,04-09-21,04-09-21,10:17:00,Mon Oct 04 2021 10:17:00 GMT+0200 (Centraleuropæisk sommertid),The main experiment item,yes,0,0,/Users/ethan/Documents/GitHub/OpenSesame/Sternberg/experiment_files,0,0,0,no,mono,no,18,no,white,no,no,768,130,3.6.1,legacy,legacy,9 5 8 1,osweb,1.4.0,1,2,y,36,,0,right,right,,space,right,right,right,942,21857,,20020,19366,32262,942,2,legacy,721,1280,24,800,24,0,23,1280,1633335448645,4,1024,2,48000,-16,experiment,0,even,MacIntel,5,496426,407049,,493176,55,494208,351923,55,20086,113256,498427,495209,499377,55,498427,Sternberg_updated,59,53618,67,yes,1024
88,88,800,800,black,no,experiment,Mozilla,Netscape,"5.0 (Macintosh; Intel Mac OS X 10_13_6) AppleWebKit/537.36 (KHTML, like Gecko) Chrome/94.0.4606.71 Safari/537.36",legacy,legacy,legacy,0,uniform,1,1,left,67,67,67,67,0,0,0,67,67,0,0,0,67,67,67,0,0,67,67,0,04-09-21,04-09-21,10:17:00,Mon Oct 04 2021 10:17:00 GMT+0200 (Centraleuropæisk sommertid),The main experiment item,yes,0,0,/Users/ethan/Documents/GitHub/OpenSesame/Sternberg/experiment_files,0,0,0,no,mono,no,18,no,white,no,no,768,130,3.6.1,legacy,legacy,9 5 3 2 8 6,osweb,1.4.0,1,0,n,36,,0,left,right,,space,right,right,left,750,21857,,20020,19366,32262,750,2,legacy,721,1280,24,800,24,0,23,1280,1633335448645,6,1024,2,48000,-16,experiment,0,even,MacIntel,7,502641,407049,,499378,55,500410,351923,55,20086,113256,504642,501424,505409,55,504642,Sternberg_updated,60,54368,68,yes,1024
88,88,796,796,black,no,experiment,Mozilla,Netscape,"5.0 (Macintosh; Intel Mac OS X 10_13_6) AppleWebKit/537.36 (KHTML, like Gecko) Chrome/94.0.4606.71 Safari/537.36",legacy,legacy,legacy,0,uniform,1,1,right,68,68,68,68,0,0,0,68,68,0,0,0,68,68,68,0,0,68,68,0,04-09-21,04-09-21,10:17:00,Mon Oct 04 2021 10:17:00 GMT+0200 (Centraleuropæisk sommertid),The main experiment item,yes,0,0,/Users/ethan/Documents/GitHub/OpenSesame/Sternberg/experiment_files,0,0,0,no,mono,no,18,no,white,no,no,768,130,3.6.1,legacy,legacy,4 6 2 5 1,osweb,1.4.0,1,5,y,36,,0,right,right,,space,right,right,right,560,21857,,20020,19366,32262,560,2,legacy,721,1280,24,800,24,0,23,1280,1633335448645,5,1024,2,48000,-16,experiment,0,even,MacIntel,1,508660,407049,,505410,55,506441,351923,55,20086,113256,510661,507443,511222,55,510661,Sternberg_updated,61,54928,69,yes,1024
89,89,793,793,black,no,experiment,Mozilla,Netscape,"5.0 (Macintosh; Intel Mac OS X 10_13_6) AppleWebKit/537.36 (KHTML, like Gecko) Chrome/94.0.4606.71 Safari/537.36",legacy,legacy,legacy,0,uniform,1,1,right,69,69,69,69,0,0,0,69,69,0,0,0,69,69,69,0,0,69,69,0,04-09-21,04-09-21,10:17:00,Mon Oct 04 2021 10:17:00 GMT+0200 (Centraleuropæisk sommertid),The main experiment item,yes,0,0,/Users/ethan/Documents/GitHub/OpenSesame/Sternberg/experiment_files,0,0,0,no,mono,no,18,no,white,no,no,768,130,3.6.1,legacy,legacy,2 3 7 4,osweb,1.4.0,1,1,y,36,,0,right,right,,space,right,right,right,608,21857,,20020,19366,32262,608,2,legacy,721,1280,24,800,24,0,23,1280,1633335448645,4,1024,2,48000,-16,experiment,0,even,MacIntel,2,514458,407049,,511223,55,512255,351923,55,20086,113256,516475,513257,517092,55,516475,Sternberg_updated,62,55536,70,yes,1024
89,89,790,790,black,no,experiment,Mozilla,Netscape,"5.0 (Macintosh; Intel Mac OS X 10_13_6) AppleWebKit/537.36 (KHTML, like Gecko) Chrome/94.0.4606.71 Safari/537.36",legacy,legacy,legacy,0,uniform,1,1,right,70,70,70,70,0,0,0,70,70,0,0,0,70,70,70,0,0,70,70,0,04-09-21,04-09-21,10:17:00,Mon Oct 04 2021 10:17:00 GMT+0200 (Centraleuropæisk sommertid),The main experiment item,yes,0,0,/Users/ethan/Documents/GitHub/OpenSesame/Sternberg/experiment_files,0,0,0,no,mono,no,18,no,white,no,no,768,130,3.6.1,legacy,legacy,3 9 6 2,osweb,1.4.0,1,4,y,36,,0,right,right,,space,right,right,right,585,21857,,20020,19366,32262,585,2,legacy,721,1280,24,800,24,0,23,1280,1633335448645,4,1024,2,48000,-16,experiment,0,even,MacIntel,2,520327,407049,,517092,55,518124,351923,55,20086,113256,522335,519126,522935,55,522335,Sternberg_updated,63,56121,71,yes,1024
89,89,794,794,black,no,experiment,Mozilla,Netscape,"5.0 (Macintosh; Intel Mac OS X 10_13_6) AppleWebKit/537.36 (KHTML, like Gecko) Chrome/94.0.4606.71 Safari/537.36",legacy,legacy,legacy,0,uniform,1,1,left,71,71,71,71,0,0,0,71,71,0,0,0,71,71,71,0,0,71,71,0,04-09-21,04-09-21,10:17:00,Mon Oct 04 2021 10:17:00 GMT+0200 (Centraleuropæisk sommertid),The main experiment item,yes,0,0,/Users/ethan/Documents/GitHub/OpenSesame/Sternberg/experiment_files,0,0,0,no,mono,no,18,no,white,no,no,768,130,3.6.1,legacy,legacy,1 7 8 3 9,osweb,1.4.0,1,0,n,36,,0,left,right,,space,right,right,left,1026,21857,,20020,19366,32262,1026,2,legacy,721,1280,24,800,24,0,23,1280,1633335448645,5,1024,2,48000,-16,experiment,0,even,MacIntel,2,526170,407049,,522936,55,523967,351923,55,20086,113256,528187,524969,529221,55,528187,Sternberg_updated,64,57147,72,yes,1024
89,89,793,793,black,no,experiment,Mozilla,Netscape,"5.0 (Macintosh; Intel Mac OS X 10_13_6) AppleWebKit/537.36 (KHTML, like Gecko) Chrome/94.0.4606.71 Safari/537.36",legacy,legacy,legacy,0,uniform,1,1,left,72,72,72,72,0,0,0,72,72,0,0,0,72,72,72,0,0,72,72,0,04-09-21,04-09-21,10:17:00,Mon Oct 04 2021 10:17:00 GMT+0200 (Centraleuropæisk sommertid),The main experiment item,yes,0,0,/Users/ethan/Documents/GitHub/OpenSesame/Sternberg/experiment_files,0,0,0,no,mono,no,18,no,white,no,no,768,130,3.6.1,legacy,legacy,7 6 4 8 1 2,osweb,1.4.0,1,0,n,36,,0,left,right,,space,right,right,left,734,21857,,20020,19366,32262,734,2,legacy,721,1280,24,800,24,0,23,1280,1633335448645,6,1024,2,48000,-16,experiment,0,even,MacIntel,9,532474,407049,,529222,55,530254,351923,55,20086,113256,534475,531257,535209,55,534475,Sternberg_updated,65,57881,73,yes,1024
89,89,799,799,black,no,experiment,Mozilla,Netscape,"5.0 (Macintosh; Intel Mac OS X 10_13_6) AppleWebKit/537.36 (KHTML, like Gecko) Chrome/94.0.4606.71 Safari/537.36",legacy,legacy,legacy,0,uniform,1,1,right,73,73,73,73,0,0,0,73,73,0,0,0,73,73,73,0,0,73,73,0,04-09-21,04-09-21,10:17:00,Mon Oct 04 2021 10:17:00 GMT+0200 (Centraleuropæisk sommertid),The main experiment item,yes,0,0,/Users/ethan/Documents/GitHub/OpenSesame/Sternberg/experiment_files,0,0,0,no,mono,no,18,no,white,no,no,768,130,3.6.1,legacy,legacy,6 8 9 3 4 9,osweb,1.4.0,1,5,y,36,,0,right,right,,space,right,right,right,1223,21857,,20020,19366,32262,1223,2,legacy,721,1280,24,800,24,0,23,1280,1633335448645,6,1024,2,48000,-16,experiment,0,even,MacIntel,4,538461,407049,,535210,55,536241,351923,55,20086,113256,540478,537244,541712,55,540478,Sternberg_updated,66,59104,74,yes,1024
89,89,800,800,black,no,experiment,Mozilla,Netscape,"5.0 (Macintosh; Intel Mac OS X 10_13_6) AppleWebKit/537.36 (KHTML, like Gecko) Chrome/94.0.4606.71 Safari/537.36",legacy,legacy,legacy,0,uniform,1,1,right,74,74,74,74,0,0,0,74,74,0,0,0,74,74,74,0,0,74,74,0,04-09-21,04-09-21,10:17:00,Mon Oct 04 2021 10:17:00 GMT+0200 (Centraleuropæisk sommertid),The main experiment item,yes,0,0,/Users/ethan/Documents/GitHub/OpenSesame/Sternberg/experiment_files,0,0,0,no,mono,no,18,no,white,no,no,768,130,3.6.1,legacy,legacy,7 8 4 6 9 5,osweb,1.4.0,1,4,y,36,,0,right,right,,space,right,right,right,872,21857,,20020,19366,32262,872,2,legacy,721,1280,24,800,24,0,23,1280,1633335448645,6,1024,2,48000,-16,experiment,0,even,MacIntel,6,544950,407049,,541713,55,542733,351923,55,20086,113256,546967,543749,547851,55,546967,Sternberg_updated,67,59976,75,yes,1024
89,89,800,800,black,no,experiment,Mozilla,Netscape,"5.0 (Macintosh; Intel Mac OS X 10_13_6) AppleWebKit/537.36 (KHTML, like Gecko) Chrome/94.0.4606.71 Safari/537.36",legacy,legacy,legacy,0,uniform,1,1,left,75,75,75,75,0,0,0,75,75,0,0,0,75,75,75,0,0,75,75,0,04-09-21,04-09-21,10:17:00,Mon Oct 04 2021 10:17:00 GMT+0200 (Centraleuropæisk sommertid),The main experiment item,yes,0,0,/Users/ethan/Documents/GitHub/OpenSesame/Sternberg/experiment_files,0,0,0,no,mono,no,18,no,white,no,no,768,130,3.6.1,legacy,legacy,7 1 5 6 3,osweb,1.4.0,1,0,n,36,,0,left,right,,space,right,right,left,840,21857,,20020,19366,32262,840,2,legacy,721,1280,24,800,24,0,23,1280,1633335448645,5,1024,2,48000,-16,experiment,0,even,MacIntel,8,551119,407049,,547851,55,548886,351923,55,20086,113256,553120,549902,553964,55,553120,Sternberg_updated,68,60816,76,yes,1024
90,90,798,798,black,no,experiment,Mozilla,Netscape,"5.0 (Macintosh; Intel Mac OS X 10_13_6) AppleWebKit/537.36 (KHTML, like Gecko) Chrome/94.0.4606.71 Safari/537.36",legacy,legacy,legacy,0,uniform,1,1,left,76,76,76,76,0,0,0,76,76,0,0,0,76,76,76,0,0,76,76,0,04-09-21,04-09-21,10:17:00,Mon Oct 04 2021 10:17:00 GMT+0200 (Centraleuropæisk sommertid),The main experiment item,yes,0,0,/Users/ethan/Documents/GitHub/OpenSesame/Sternberg/experiment_files,0,0,0,no,mono,no,18,no,white,no,no,768,130,3.6.1,legacy,legacy,6 2 9 3 8 4,osweb,1.4.0,1,0,n,36,,0,left,right,,space,right,right,left,665,21857,,20020,19366,32262,665,2,legacy,721,1280,24,800,24,0,23,1280,1633335448645,6,1024,2,48000,-16,experiment,0,even,MacIntel,1,557215,407049,,553965,55,554996,351923,55,20086,113256,559217,555999,559883,55,559217,Sternberg_updated,69,61481,77,yes,1024
90,90,797,797,black,no,experiment,Mozilla,Netscape,"5.0 (Macintosh; Intel Mac OS X 10_13_6) AppleWebKit/537.36 (KHTML, like Gecko) Chrome/94.0.4606.71 Safari/537.36",legacy,legacy,legacy,0,uniform,1,1,left,77,77,77,77,0,0,0,77,77,0,0,0,77,77,77,0,0,77,77,0,04-09-21,04-09-21,10:17:00,Mon Oct 04 2021 10:17:00 GMT+0200 (Centraleuropæisk sommertid),The main experiment item,yes,0,0,/Users/ethan/Documents/GitHub/OpenSesame/Sternberg/experiment_files,0,0,0,no,mono,no,18,no,white,no,no,768,130,3.6.1,legacy,legacy,2 7 5,osweb,1.4.0,1,0,n,36,,0,left,right,,space,right,right,left,703,21857,,20020,19366,32262,703,2,legacy,721,1280,24,800,24,0,23,1280,1633335448645,3,1024,2,48000,-16,experiment,0,even,MacIntel,8,563150,407049,,559884,55,560917,351923,55,20086,113256,565162,561935,565878,55,565162,Sternberg_updated,70,62184,78,yes,1024
90,90,797,797,black,no,experiment,Mozilla,Netscape,"5.0 (Macintosh; Intel Mac OS X 10_13_6) AppleWebKit/537.36 (KHTML, like Gecko) Chrome/94.0.4606.71 Safari/537.36",legacy,legacy,legacy,0,uniform,1,1,left,78,78,78,78,0,0,0,78,78,0,0,0,78,78,78,0,0,78,78,0,04-09-21,04-09-21,10:17:00,Mon Oct 04 2021 10:17:00 GMT+0200 (Centraleuropæisk sommertid),The main experiment item,yes,0,0,/Users/ethan/Documents/GitHub/OpenSesame/Sternberg/experiment_files,0,0,0,no,mono,no,18,no,white,no,no,768,130,3.6.1,legacy,legacy,2 8 7 9 5 3,osweb,1.4.0,1,0,n,36,,0,left,right,,space,right,right,left,770,21857,,20020,19366,32262,770,2,legacy,721,1280,24,800,24,0,23,1280,1633335448645,6,1024,2,48000,-16,experiment,0,even,MacIntel,6,569114,407049,,565879,55,566912,351923,55,20086,113256,571115,567913,571898,55,571115,Sternberg_updated,71,62954,79,yes,1024
90,90,796,796,black,no,experiment,Mozilla,Netscape,"5.0 (Macintosh; Intel Mac OS X 10_13_6) AppleWebKit/537.36 (KHTML, like Gecko) Chrome/94.0.4606.71 Safari/537.36",legacy,legacy,legacy,0,uniform,1,1,left,79,79,79,79,0,0,0,79,79,0,0,0,79,79,79,0,0,79,79,0,04-09-21,04-09-21,10:17:00,Mon Oct 04 2021 10:17:00 GMT+0200 (Centraleuropæisk sommertid),The main experiment item,yes,0,0,/Users/ethan/Documents/GitHub/OpenSesame/Sternberg/experiment_files,0,0,0,no,mono,no,18,no,white,no,no,768,130,3.6.1,legacy,legacy,3 9 8 1 6 4,osweb,1.4.0,1,0,n,36,,0,left,right,,space,right,right,left,710,21857,,20020,19366,32262,710,2,legacy,721,1280,24,800,24,0,23,1280,1633335448645,6,1024,2,48000,-16,experiment,0,even,MacIntel,7,575148,407049,,571899,55,572931,351923,55,20086,113256,577164,573933,577882,55,577164,Sternberg_updated,72,63664,80,yes,1024
90,90,795,795,black,no,experiment,Mozilla,Netscape,"5.0 (Macintosh; Intel Mac OS X 10_13_6) AppleWebKit/537.36 (KHTML, like Gecko) Chrome/94.0.4606.71 Safari/537.36",legacy,legacy,legacy,0,uniform,1,1,left,80,80,80,80,0,0,0,80,80,0,0,0,80,80,80,0,0,80,80,0,04-09-21,04-09-21,10:17:00,Mon Oct 04 2021 10:17:00 GMT+0200 (Centraleuropæisk sommertid),The main experiment item,yes,0,0,/Users/ethan/Documents/GitHub/OpenSesame/Sternberg/experiment_files,0,0,0,no,mono,no,18,no,white,no,no,768,130,3.6.1,legacy,legacy,8 4 3 5,osweb,1.4.0,1,0,n,36,,0,left,right,,space,right,right,left,721,21857,,20020,19366,32262,721,2,legacy,721,1280,24,800,24,0,23,1280,1633335448645,4,1024,2,48000,-16,experiment,0,even,MacIntel,6,581150,407049,,577883,55,578916,351923,55,20086,113256,583151,579933,583884,55,583151,Sternberg_updated,73,64385,81,yes,1024
89,89,794,794,black,no,experiment,Mozilla,Netscape,"5.0 (Macintosh; Intel Mac OS X 10_13_6) AppleWebKit/537.36 (KHTML, like Gecko) Chrome/94.0.4606.71 Safari/537.36",legacy,legacy,legacy,0,uniform,0,0,right,81,81,81,81,0,0,0,81,81,0,0,0,81,81,81,0,0,81,81,0,04-09-21,04-09-21,10:17:00,Mon Oct 04 2021 10:17:00 GMT+0200 (Centraleuropæisk sommertid),The main experiment item,yes,0,0,/Users/ethan/Documents/GitHub/OpenSesame/Sternberg/experiment_files,0,0,0,no,mono,no,18,no,white,no,no,768,130,3.6.1,legacy,legacy,6 7 9 3 1 2,osweb,1.4.0,1,1,y,36,,0,left,right,,space,right,right,left,724,21857,,20020,19366,32262,724,2,legacy,721,1280,24,800,24,0,23,1280,1633335448645,6,1024,2,48000,-16,experiment,0,even,MacIntel,6,587145,407049,,583885,55,584910,351923,55,20086,113256,589163,585928,589896,55,589163,Sternberg_updated,73,65109,82,yes,1024
89,89,795,795,black,no,experiment,Mozilla,Netscape,"5.0 (Macintosh; Intel Mac OS X 10_13_6) AppleWebKit/537.36 (KHTML, like Gecko) Chrome/94.0.4606.71 Safari/537.36",legacy,legacy,legacy,0,uniform,1,1,right,82,82,82,82,0,0,0,82,82,0,0,0,82,82,82,0,0,82,82,0,04-09-21,04-09-21,10:17:00,Mon Oct 04 2021 10:17:00 GMT+0200 (Centraleuropæisk sommertid),The main experiment item,yes,0,0,/Users/ethan/Documents/GitHub/OpenSesame/Sternberg/experiment_files,0,0,0,no,mono,no,18,no,white,no,no,768,130,3.6.1,legacy,legacy,7 1 8 5 6 2,osweb,1.4.0,1,2,y,36,,0,right,right,,space,right,right,right,847,21857,,20020,19366,32262,847,2,legacy,721,1280,24,800,24,0,23,1280,1633335448645,6,1024,2,48000,-16,experiment,0,even,MacIntel,1,593131,407049,,583885,55,590929,589897,55,20086,113256,595148,591930,595999,55,595148,Sternberg_updated,74,65956,83,yes,1024
89,89,792,792,black,no,experiment,Mozilla,Netscape,"5.0 (Macintosh; Intel Mac OS X 10_13_6) AppleWebKit/537.36 (KHTML, like Gecko) Chrome/94.0.4606.71 Safari/537.36",legacy,legacy,legacy,0,uniform,1,1,right,83,83,83,83,0,0,0,83,83,0,0,0,83,83,83,0,0,83,83,0,04-09-21,04-09-21,10:17:00,Mon Oct 04 2021 10:17:00 GMT+0200 (Centraleuropæisk sommertid),The main experiment item,yes,0,0,/Users/ethan/Documents/GitHub/OpenSesame/Sternberg/experiment_files,0,0,0,no,mono,no,18,no,white,no,no,768,130,3.6.1,legacy,legacy,9 1 7 2,osweb,1.4.0,1,2,y,36,,0,right,right,,space,right,right,right,566,21857,,20020,19366,32262,566,2,legacy,721,1280,24,800,24,0,23,1280,1633335448645,4,1024,2,48000,-16,experiment,0,even,MacIntel,1,599249,407049,,596000,55,597031,589897,55,20086,113256,601267,598048,601850,55,601267,Sternberg_updated,75,66522,84,yes,1024
89,89,794,794,black,no,experiment,Mozilla,Netscape,"5.0 (Macintosh; Intel Mac OS X 10_13_6) AppleWebKit/537.36 (KHTML, like Gecko) Chrome/94.0.4606.71 Safari/537.36",legacy,legacy,legacy,0,uniform,1,1,left,84,84,84,84,0,0,0,84,84,0,0,0,84,84,84,0,0,84,84,0,04-09-21,04-09-21,10:17:00,Mon Oct 04 2021 10:17:00 GMT+0200 (Centraleuropæisk sommertid),The main experiment item,yes,0,0,/Users/ethan/Documents/GitHub/OpenSesame/Sternberg/experiment_files,0,0,0,no,mono,no,18,no,white,no,no,768,130,3.6.1,legacy,legacy,7 4 2 8 1 9,osweb,1.4.0,1,0,n,36,,0,left,right,,space,right,right,left,957,21857,,20020,19366,32262,957,2,legacy,721,1280,24,800,24,0,23,1280,1633335448645,6,1024,2,48000,-16,experiment,0,even,MacIntel,5,605118,407049,,601851,55,602884,589897,55,20086,113256,607119,603901,608087,55,607119,Sternberg_updated,76,67479,85,yes,1024
90,90,795,795,black,no,experiment,Mozilla,Netscape,"5.0 (Macintosh; Intel Mac OS X 10_13_6) AppleWebKit/537.36 (KHTML, like Gecko) Chrome/94.0.4606.71 Safari/537.36",legacy,legacy,legacy,0,uniform,1,1,right,85,85,85,85,0,0,0,85,85,0,0,0,85,85,85,0,0,85,85,0,04-09-21,04-09-21,10:17:00,Mon Oct 04 2021 10:17:00 GMT+0200 (Centraleuropæisk sommertid),The main experiment item,yes,0,0,/Users/ethan/Documents/GitHub/OpenSesame/Sternberg/experiment_files,0,0,0,no,mono,no,18,no,white,no,no,768,130,3.6.1,legacy,legacy,8 5 1 3 9,osweb,1.4.0,1,4,y,36,,0,right,right,,space,right,right,right,901,21857,,20020,19366,32262,901,2,legacy,721,1280,24,800,24,0,23,1280,1633335448645,5,1024,2,48000,-16,experiment,0,even,MacIntel,3,611325,407049,,608087,55,609106,589897,55,20086,113256,613343,610108,614259,55,613343,Sternberg_updated,77,68380,86,yes,1024
90,90,794,794,black,no,experiment,Mozilla,Netscape,"5.0 (Macintosh; Intel Mac OS X 10_13_6) AppleWebKit/537.36 (KHTML, like Gecko) Chrome/94.0.4606.71 Safari/537.36",legacy,legacy,legacy,0,uniform,1,1,left,86,86,86,86,0,0,0,86,86,0,0,0,86,86,86,0,0,86,86,0,04-09-21,04-09-21,10:17:00,Mon Oct 04 2021 10:17:00 GMT+0200 (Centraleuropæisk sommertid),The main experiment item,yes,0,0,/Users/ethan/Documents/GitHub/OpenSesame/Sternberg/experiment_files,0,0,0,no,mono,no,18,no,white,no,no,768,130,3.6.1,legacy,legacy,8 4 3 9,osweb,1.4.0,1,0,n,36,,0,left,right,,space,right,right,left,733,21857,,20020,19366,32262,733,2,legacy,721,1280,24,800,24,0,23,1280,1633335448645,4,1024,2,48000,-16,experiment,0,even,MacIntel,5,617494,407049,,614260,55,615292,589897,55,20086,113256,619511,616293,620250,55,619511,Sternberg_updated,78,69113,87,yes,1024
90,90,793,793,black,no,experiment,Mozilla,Netscape,"5.0 (Macintosh; Intel Mac OS X 10_13_6) AppleWebKit/537.36 (KHTML, like Gecko) Chrome/94.0.4606.71 Safari/537.36",legacy,legacy,legacy,0,uniform,1,1,right,87,87,87,87,0,0,0,87,87,0,0,0,87,87,87,0,0,87,87,0,04-09-21,04-09-21,10:17:00,Mon Oct 04 2021 10:17:00 GMT+0200 (Centraleuropæisk sommertid),The main experiment item,yes,0,0,/Users/ethan/Documents/GitHub/OpenSesame/Sternberg/experiment_files,0,0,0,no,mono,no,18,no,white,no,no,768,130,3.6.1,legacy,legacy,9 8 4,osweb,1.4.0,1,1,y,36,,0,right,right,,space,right,right,right,670,21857,,20020,19366,32262,670,2,legacy,721,1280,24,800,24,0,23,1280,1633335448645,3,1024,2,48000,-16,experiment,0,even,MacIntel,9,623500,407049,,620251,55,621283,589897,55,20086,113256,625502,622284,626186,55,625502,Sternberg_updated,79,69783,88,yes,1024
90,90,791,791,black,no,experiment,Mozilla,Netscape,"5.0 (Macintosh; Intel Mac OS X 10_13_6) AppleWebKit/537.36 (KHTML, like Gecko) Chrome/94.0.4606.71 Safari/537.36",legacy,legacy,legacy,0,uniform,1,1,right,88,88,88,88,0,0,0,88,88,0,0,0,88,88,88,0,0,88,88,0,04-09-21,04-09-21,10:17:00,Mon Oct 04 2021 10:17:00 GMT+0200 (Centraleuropæisk sommertid),The main experiment item,yes,0,0,/Users/ethan/Documents/GitHub/OpenSesame/Sternberg/experiment_files,0,0,0,no,mono,no,18,no,white,no,no,768,130,3.6.1,legacy,legacy,9 4 2,osweb,1.4.0,1,1,y,36,,0,right,right,,space,right,right,right,636,21857,,20020,19366,32262,636,2,legacy,721,1280,24,800,24,0,23,1280,1633335448645,3,1024,2,48000,-16,experiment,0,even,MacIntel,9,629437,407049,,626188,55,627218,589897,55,20086,113256,631454,628220,632105,55,631454,Sternberg_updated,80,70419,89,yes,1024
90,90,793,793,black,no,experiment,Mozilla,Netscape,"5.0 (Macintosh; Intel Mac OS X 10_13_6) AppleWebKit/537.36 (KHTML, like Gecko) Chrome/94.0.4606.71 Safari/537.36",legacy,legacy,legacy,0,uniform,1,1,left,89,89,89,89,0,0,0,89,89,0,0,0,89,89,89,0,0,89,89,0,04-09-21,04-09-21,10:17:00,Mon Oct 04 2021 10:17:00 GMT+0200 (Centraleuropæisk sommertid),The main experiment item,yes,0,0,/Users/ethan/Documents/GitHub/OpenSesame/Sternberg/experiment_files,0,0,0,no,mono,no,18,no,white,no,no,768,130,3.6.1,legacy,legacy,3 4 9 6 7 8,osweb,1.4.0,1,0,n,36,,0,left,right,,space,right,right,left,986,21857,,20020,19366,32262,986,2,legacy,721,1280,24,800,24,0,23,1280,1633335448645,6,1024,2,48000,-16,experiment,0,even,MacIntel,2,635356,407049,,632105,55,633138,589897,55,20086,113256,637358,634155,638358,55,637358,Sternberg_updated,81,71405,90,yes,1024
90,90,793,793,black,no,experiment,Mozilla,Netscape,"5.0 (Macintosh; Intel Mac OS X 10_13_6) AppleWebKit/537.36 (KHTML, like Gecko) Chrome/94.0.4606.71 Safari/537.36",legacy,legacy,legacy,0,uniform,1,1,left,90,90,90,90,0,0,0,90,90,0,0,0,90,90,90,0,0,90,90,0,04-09-21,04-09-21,10:17:00,Mon Oct 04 2021 10:17:00 GMT+0200 (Centraleuropæisk sommertid),The main experiment item,yes,0,0,/Users/ethan/Documents/GitHub/OpenSesame/Sternberg/experiment_files,0,0,0,no,mono,no,18,no,white,no,no,768,130,3.6.1,legacy,legacy,6 9 5,osweb,1.4.0,1,0,n,36,,0,left,right,,space,right,right,left,746,21857,,20020,19366,32262,746,2,legacy,721,1280,24,800,24,0,23,1280,1633335448645,3,1024,2,48000,-16,experiment,0,even,MacIntel,8,641621,407049,,638359,55,639390,589897,55,20086,113256,643638,640403,644388,55,643638,Sternberg_updated,82,72151,91,yes,1024
90,90,793,793,black,no,experiment,Mozilla,Netscape,"5.0 (Macintosh; Intel Mac OS X 10_13_6) AppleWebKit/537.36 (KHTML, like Gecko) Chrome/94.0.4606.71 Safari/537.36",legacy,legacy,legacy,0,uniform,1,1,left,91,91,91,91,0,0,0,91,91,0,0,0,91,91,91,0,0,91,91,0,04-09-21,04-09-21,10:17:00,Mon Oct 04 2021 10:17:00 GMT+0200 (Centraleuropæisk sommertid),The main experiment item,yes,0,0,/Users/ethan/Documents/GitHub/OpenSesame/Sternberg/experiment_files,0,0,0,no,mono,no,18,no,white,no,no,768,130,3.6.1,legacy,legacy,1 7 5 2,osweb,1.4.0,1,0,n,36,,0,left,right,,space,right,right,left,831,21857,,20020,19366,32262,831,2,legacy,721,1280,24,800,24,0,23,1280,1633335448645,4,1024,2,48000,-16,experiment,0,even,MacIntel,3,647656,407049,,644389,55,645426,589897,55,20086,113256,649658,646439,650491,55,649657,Sternberg_updated,83,72982,92,yes,1024
90,90,795,795,black,no,experiment,Mozilla,Netscape,"5.0 (Macintosh; Intel Mac OS X 10_13_6) AppleWebKit/537.36 (KHTML, like Gecko) Chrome/94.0.4606.71 Safari/537.36",legacy,legacy,legacy,0,uniform,1,1,left,92,92,92,92,0,0,0,92,92,0,0,0,92,92,92,0,0,92,92,0,04-09-21,04-09-21,10:17:00,Mon Oct 04 2021 10:17:00 GMT+0200 (Centraleuropæisk sommertid),The main experiment item,yes,0,0,/Users/ethan/Documents/GitHub/OpenSesame/Sternberg/experiment_files,0,0,0,no,mono,no,18,no,white,no,no,768,130,3.6.1,legacy,legacy,9 7 4 5 8,osweb,1.4.0,1,0,n,36,,0,left,right,,space,right,right,left,956,21857,,20020,19366,32262,956,2,legacy,721,1280,24,800,24,0,23,1280,1633335448645,5,1024,2,48000,-16,experiment,0,even,MacIntel,6,653757,407049,,650491,55,651523,589897,55,20086,113256,655775,652540,656741,55,655775,Sternberg_updated,84,73938,93,yes,1024
89,89,796,796,black,no,experiment,Mozilla,Netscape,"5.0 (Macintosh; Intel Mac OS X 10_13_6) AppleWebKit/537.36 (KHTML, like Gecko) Chrome/94.0.4606.71 Safari/537.36",legacy,legacy,legacy,0,uniform,0,0,left,93,93,93,93,0,0,0,93,93,0,0,0,93,93,93,0,0,93,93,0,04-09-21,04-09-21,10:17:00,Mon Oct 04 2021 10:17:00 GMT+0200 (Centraleuropæisk sommertid),The main experiment item,yes,0,0,/Users/ethan/Documents/GitHub/OpenSesame/Sternberg/experiment_files,0,0,0,no,mono,no,18,no,white,no,no,768,130,3.6.1,legacy,legacy,8 5 4 2 9 6,osweb,1.4.0,1,0,n,36,,0,right,right,,space,right,right,right,863,21857,,20020,19366,32262,863,2,legacy,721,1280,24,800,24,0,23,1280,1633335448645,6,1024,2,48000,-16,experiment,0,even,MacIntel,3,659993,407049,,656742,55,657774,589897,55,20086,113256,662011,658776,662889,55,662011,Sternberg_updated,84,74801,94,yes,1024
89,89,795,795,black,no,experiment,Mozilla,Netscape,"5.0 (Macintosh; Intel Mac OS X 10_13_6) AppleWebKit/537.36 (KHTML, like Gecko) Chrome/94.0.4606.71 Safari/537.36",legacy,legacy,legacy,0,uniform,1,1,left,94,94,94,94,0,0,0,94,94,0,0,0,94,94,94,0,0,94,94,0,04-09-21,04-09-21,10:17:00,Mon Oct 04 2021 10:17:00 GMT+0200 (Centraleuropæisk sommertid),The main experiment item,yes,0,0,/Users/ethan/Documents/GitHub/OpenSesame/Sternberg/experiment_files,0,0,0,no,mono,no,18,no,white,no,no,768,130,3.6.1,legacy,legacy,1 8 7,osweb,1.4.0,1,0,n,36,,0,left,right,,space,right,right,left,742,21857,,20020,19366,32262,742,2,legacy,721,1280,24,800,24,0,23,1280,1633335448645,3,1024,2,48000,-16,experiment,0,even,MacIntel,4,666140,407049,,656742,55,663922,662889,55,20086,113256,668141,664923,668891,55,668141,Sternberg_updated,85,75543,95,yes,1024
90,90,794,794,black,no,experiment,Mozilla,Netscape,"5.0 (Macintosh; Intel Mac OS X 10_13_6) AppleWebKit/537.36 (KHTML, like Gecko) Chrome/94.0.4606.71 Safari/537.36",legacy,legacy,legacy,0,uniform,1,1,right,95,95,95,95,0,0,0,95,95,0,0,0,95,95,95,0,0,95,95,0,04-09-21,04-09-21,10:17:00,Mon Oct 04 2021 10:17:00 GMT+0200 (Centraleuropæisk sommertid),The main experiment item,yes,0,0,/Users/ethan/Documents/GitHub/OpenSesame/Sternberg/experiment_files,0,0,0,no,mono,no,18,no,white,no,no,768,130,3.6.1,legacy,legacy,3 9 7 6 4,osweb,1.4.0,1,3,y,36,,0,right,right,,space,right,right,right,650,21857,,20020,19366,32262,650,2,legacy,721,1280,24,800,24,0,23,1280,1633335448645,5,1024,2,48000,-16,experiment,0,even,MacIntel,7,672159,407049,,668892,55,669925,662889,55,20086,113256,674169,670942,674836,55,674169,Sternberg_updated,86,76193,96,yes,1024
90,90,792,792,black,no,experiment,Mozilla,Netscape,"5.0 (Macintosh; Intel Mac OS X 10_13_6) AppleWebKit/537.36 (KHTML, like Gecko) Chrome/94.0.4606.71 Safari/537.36",legacy,legacy,legacy,0,uniform,1,1,right,96,96,96,96,0,0,0,96,96,0,0,0,96,96,96,0,0,96,96,0,04-09-21,04-09-21,10:17:00,Mon Oct 04 2021 10:17:00 GMT+0200 (Centraleuropæisk sommertid),The main experiment item,yes,0,0,/Users/ethan/Documents/GitHub/OpenSesame/Sternberg/experiment_files,0,0,0,no,mono,no,18,no,white,no,no,768,130,3.6.1,legacy,legacy,4 9 7 8 5 3,osweb,1.4.0,1,4,y,36,,0,right,right,,space,right,right,right,679,21857,,20020,19366,32262,679,2,legacy,721,1280,24,800,24,0,23,1280,1633335448645,6,1024,2,48000,-16,experiment,0,even,MacIntel,8,678087,407049,,674837,55,675868,662889,55,20086,113256,680088,676871,680772,55,680088,Sternberg_updated,87,76872,97,yes,1024
89,89,790,790,black,no,experiment,Mozilla,Netscape,"5.0 (Macintosh; Intel Mac OS X 10_13_6) AppleWebKit/537.36 (KHTML, like Gecko) Chrome/94.0.4606.71 Safari/537.36",legacy,legacy,legacy,0,uniform,0,0,right,97,97,97,97,0,0,0,97,97,0,0,0,97,97,97,0,0,97,97,0,04-09-21,04-09-21,10:17:00,Mon Oct 04 2021 10:17:00 GMT+0200 (Centraleuropæisk sommertid),The main experiment item,yes,0,0,/Users/ethan/Documents/GitHub/OpenSesame/Sternberg/experiment_files,0,0,0,no,mono,no,18,no,white,no,no,768,130,3.6.1,legacy,legacy,4 6 5 8,osweb,1.4.0,1,1,y,36,,0,left,right,right,space,right,right,left,550,21857,48322,20020,19366,32262,550,2,legacy,721,1280,24,800,24,0,23,1280,1633335448645,4,1024,2,48000,-16,experiment,0,even,MacIntel,4,732369,407049,681789,680773,55,730143,662889,55,20086,113256,734387,731158,734953,55,734387,Sternberg_updated,87,77422,98,yes,1024
88,88,789,789,black,no,experiment,Mozilla,Netscape,"5.0 (Macintosh; Intel Mac OS X 10_13_6) AppleWebKit/537.36 (KHTML, like Gecko) Chrome/94.0.4606.71 Safari/537.36",legacy,legacy,legacy,0,uniform,0,0,right,98,98,98,98,0,0,0,98,98,0,0,0,98,98,98,0,0,98,98,0,04-09-21,04-09-21,10:17:00,Mon Oct 04 2021 10:17:00 GMT+0200 (Centraleuropæisk sommertid),The main experiment item,yes,0,0,/Users/ethan/Documents/GitHub/OpenSesame/Sternberg/experiment_files,0,0,0,no,mono,no,18,no,white,no,no,768,130,3.6.1,legacy,legacy,4 7 6 8 2 3,osweb,1.4.0,1,6,y,36,,0,left,right,right,space,right,right,left,713,21857,48322,20020,19366,32262,713,2,legacy,721,1280,24,800,24,0,23,1280,1633335448645,6,1024,2,48000,-16,experiment,0,even,MacIntel,3,738188,407049,681789,680773,55,735986,734954,55,20086,113256,740205,736987,740922,55,740205,Sternberg_updated,87,78135,99,yes,1024
88,88,789,789,black,no,experiment,Mozilla,Netscape,"5.0 (Macintosh; Intel Mac OS X 10_13_6) AppleWebKit/537.36 (KHTML, like Gecko) Chrome/94.0.4606.71 Safari/537.36",legacy,legacy,legacy,0,uniform,1,1,left,99,99,99,99,0,0,0,99,99,0,0,0,99,99,99,0,0,99,99,0,04-09-21,04-09-21,10:17:00,Mon Oct 04 2021 10:17:00 GMT+0200 (Centraleuropæisk sommertid),The main experiment item,yes,0,0,/Users/ethan/Documents/GitHub/OpenSesame/Sternberg/experiment_files,0,0,0,no,mono,no,18,no,white,no,no,768,130,3.6.1,legacy,legacy,6 3 1 7 9 8,osweb,1.4.0,1,0,n,36,,0,left,right,right,space,right,right,left,802,21857,48322,20020,19366,32262,802,2,legacy,721,1280,24,800,24,0,23,1280,1633335448645,6,1024,2,48000,-16,experiment,0,even,MacIntel,4,744185,407049,681789,680773,55,741953,740923,55,20086,113256,746202,742968,747019,55,746202,Sternberg_updated,88,78937,100,yes,1024
88,88,790,790,black,no,experiment,Mozilla,Netscape,"5.0 (Macintosh; Intel Mac OS X 10_13_6) AppleWebKit/537.36 (KHTML, like Gecko) Chrome/94.0.4606.71 Safari/537.36",legacy,legacy,legacy,0,uniform,1,1,right,100,100,100,100,0,0,0,100,100,0,0,0,100,100,100,0,0,100,100,0,04-09-21,04-09-21,10:17:00,Mon Oct 04 2021 10:17:00 GMT+0200 (Centraleuropæisk sommertid),The main experiment item,yes,0,0,/Users/ethan/Documents/GitHub/OpenSesame/Sternberg/experiment_files,0,0,0,no,mono,no,18,no,white,no,no,768,130,3.6.1,legacy,legacy,7 2 3,osweb,1.4.0,1,3,y,36,,0,right,right,right,space,right,right,right,812,21857,48322,20020,19366,32262,812,2,legacy,721,1280,24,800,24,0,23,1280,1633335448645,3,1024,2,48000,-16,experiment,0,even,MacIntel,3,750255,407049,681789,747020,55,748053,740923,55,20086,113256,752271,749054,753092,55,752271,Sternberg_updated,89,79749,101,yes,1024
88,88,789,789,black,no,experiment,Mozilla,Netscape,"5.0 (Macintosh; Intel Mac OS X 10_13_6) AppleWebKit/537.36 (KHTML, like Gecko) Chrome/94.0.4606.71 Safari/537.36",legacy,legacy,legacy,0,uniform,1,1,right,101,101,101,101,0,0,0,101,101,0,0,0,101,101,101,0,0,101,101,0,04-09-21,04-09-21,10:17:00,Mon Oct 04 2021 10:17:00 GMT+0200 (Centraleuropæisk sommertid),The main experiment item,yes,0,0,/Users/ethan/Documents/GitHub/OpenSesame/Sternberg/experiment_files,0,0,0,no,mono,no,18,no,white,no,no,768,130,3.6.1,legacy,legacy,8 9 5 6 7,osweb,1.4.0,1,1,y,36,,0,right,right,right,space,right,right,right,756,21857,48322,20020,19366,32262,756,2,legacy,721,1280,24,800,24,0,23,1280,1633335448645,5,1024,2,48000,-16,experiment,0,even,MacIntel,8,756343,407049,681789,753092,55,754125,740923,55,20086,113256,758344,755126,759111,55,758344,Sternberg_updated,90,80505,102,yes,1024
88,88,791,791,black,no,experiment,Mozilla,Netscape,"5.0 (Macintosh; Intel Mac OS X 10_13_6) AppleWebKit/537.36 (KHTML, like Gecko) Chrome/94.0.4606.71 Safari/537.36",legacy,legacy,legacy,0,uniform,1,1,right,102,102,102,102,0,0,0,102,102,0,0,0,102,102,102,0,0,102,102,0,04-09-21,04-09-21,10:17:00,Mon Oct 04 2021 10:17:00 GMT+0200 (Centraleuropæisk sommertid),The main experiment item,yes,0,0,/Users/ethan/Documents/GitHub/OpenSesame/Sternberg/experiment_files,0,0,0,no,mono,no,18,no,white,no,no,768,130,3.6.1,legacy,legacy,5 7 8 2 3 8,osweb,1.4.0,1,5,y,36,,0,right,right,right,space,right,right,right,968,21857,48322,20020,19366,32262,968,2,legacy,721,1280,24,800,24,0,23,1280,1633335448645,6,1024,2,48000,-16,experiment,0,even,MacIntel,3,762363,407049,681789,759114,55,760146,740923,55,20086,113256,764379,761161,765363,55,764379,Sternberg_updated,91,81473,103,yes,1024
88,88,792,792,black,no,experiment,Mozilla,Netscape,"5.0 (Macintosh; Intel Mac OS X 10_13_6) AppleWebKit/537.36 (KHTML, like Gecko) Chrome/94.0.4606.71 Safari/537.36",legacy,legacy,legacy,0,uniform,1,1,right,103,103,103,103,0,0,0,103,103,0,0,0,103,103,103,0,0,103,103,0,04-09-21,04-09-21,10:17:00,Mon Oct 04 2021 10:17:00 GMT+0200 (Centraleuropæisk sommertid),The main experiment item,yes,0,0,/Users/ethan/Documents/GitHub/OpenSesame/Sternberg/experiment_files,0,0,0,no,mono,no,18,no,white,no,no,768,130,3.6.1,legacy,legacy,8 9 6 1,osweb,1.4.0,1,2,y,36,,0,right,right,right,space,right,right,right,910,21857,48322,20020,19366,32262,910,2,legacy,721,1280,24,800,24,0,23,1280,1633335448645,4,1024,2,48000,-16,experiment,0,even,MacIntel,9,768613,407049,681789,765363,55,766395,740923,55,20086,113256,770614,767397,771531,55,770614,Sternberg_updated,92,82383,104,yes,1024
89,89,792,792,black,no,experiment,Mozilla,Netscape,"5.0 (Macintosh; Intel Mac OS X 10_13_6) AppleWebKit/537.36 (KHTML, like Gecko) Chrome/94.0.4606.71 Safari/537.36",legacy,legacy,legacy,0,uniform,1,1,left,104,104,104,104,0,0,0,104,104,0,0,0,104,104,104,0,0,104,104,0,04-09-21,04-09-21,10:17:00,Mon Oct 04 2021 10:17:00 GMT+0200 (Centraleuropæisk sommertid),The main experiment item,yes,0,0,/Users/ethan/Documents/GitHub/OpenSesame/Sternberg/experiment_files,0,0,0,no,mono,no,18,no,white,no,no,768,130,3.6.1,legacy,legacy,6 9 4 5 3 2,osweb,1.4.0,1,0,n,36,,0,left,right,right,space,right,right,left,828,21857,48322,20020,19366,32262,828,2,legacy,721,1280,24,800,24,0,23,1280,1633335448645,6,1024,2,48000,-16,experiment,0,even,MacIntel,8,774797,407049,681789,771532,55,772565,740923,55,20086,113256,776799,773581,777631,55,776799,Sternberg_updated,93,83211,105,yes,1024
89,89,792,792,black,no,experiment,Mozilla,Netscape,"5.0 (Macintosh; Intel Mac OS X 10_13_6) AppleWebKit/537.36 (KHTML, like Gecko) Chrome/94.0.4606.71 Safari/537.36",legacy,legacy,legacy,0,uniform,1,1,right,105,105,105,105,0,0,0,105,105,0,0,0,105,105,105,0,0,105,105,0,04-09-21,04-09-21,10:17:00,Mon Oct 04 2021 10:17:00 GMT+0200 (Centraleuropæisk sommertid),The main experiment item,yes,0,0,/Users/ethan/Documents/GitHub/OpenSesame/Sternberg/experiment_files,0,0,0,no,mono,no,18,no,white,no,no,768,130,3.6.1,legacy,legacy,8 9 5 7 1 6,osweb,1.4.0,1,4,y,36,,0,right,right,right,space,right,right,right,747,21857,48322,20020,19366,32262,747,2,legacy,721,1280,24,800,24,0,23,1280,1633335448645,6,1024,2,48000,-16,experiment,0,even,MacIntel,7,780900,407049,681789,777632,55,778666,740923,55,20086,113256,782918,779684,783667,55,782918,Sternberg_updated,94,83958,106,yes,1024
89,89,791,791,black,no,experiment,Mozilla,Netscape,"5.0 (Macintosh; Intel Mac OS X 10_13_6) AppleWebKit/537.36 (KHTML, like Gecko) Chrome/94.0.4606.71 Safari/537.36",legacy,legacy,legacy,0,uniform,1,1,left,106,106,106,106,0,0,0,106,106,0,0,0,106,106,106,0,0,106,106,0,04-09-21,04-09-21,10:17:00,Mon Oct 04 2021 10:17:00 GMT+0200 (Centraleuropæisk sommertid),The main experiment item,yes,0,0,/Users/ethan/Documents/GitHub/OpenSesame/Sternberg/experiment_files,0,0,0,no,mono,no,18,no,white,no,no,768,130,3.6.1,legacy,legacy,2 8 9 4 1,osweb,1.4.0,1,0,n,36,,0,left,right,right,space,right,right,left,693,21857,48322,20020,19366,32262,693,2,legacy,721,1280,24,800,24,0,23,1280,1633335448645,5,1024,2,48000,-16,experiment,0,even,MacIntel,5,786931,407049,681789,783668,55,784696,740923,55,20086,113256,788948,785714,789648,55,788948,Sternberg_updated,95,84651,107,yes,1024
89,89,789,789,black,no,experiment,Mozilla,Netscape,"5.0 (Macintosh; Intel Mac OS X 10_13_6) AppleWebKit/537.36 (KHTML, like Gecko) Chrome/94.0.4606.71 Safari/537.36",legacy,legacy,legacy,0,uniform,1,1,right,107,107,107,107,0,0,0,107,107,0,0,0,107,107,107,0,0,107,107,0,04-09-21,04-09-21,10:17:00,Mon Oct 04 2021 10:17:00 GMT+0200 (Centraleuropæisk sommertid),The main experiment item,yes,0,0,/Users/ethan/Documents/GitHub/OpenSesame/Sternberg/experiment_files,0,0,0,no,mono,no,18,no,white,no,no,768,130,3.6.1,legacy,legacy,5 2 6,osweb,1.4.0,1,2,y,36,,0,right,right,right,space,right,right,right,606,21857,48322,20020,19366,32262,606,2,legacy,721,1280,24,800,24,0,23,1280,1633335448645,3,1024,2,48000,-16,experiment,0,even,MacIntel,2,792900,407049,681789,789649,55,790682,740923,55,20086,113256,794901,791699,795518,55,794901,Sternberg_updated,96,85257,108,yes,1024
89,89,787,787,black,no,experiment,Mozilla,Netscape,"5.0 (Macintosh; Intel Mac OS X 10_13_6) AppleWebKit/537.36 (KHTML, like Gecko) Chrome/94.0.4606.71 Safari/537.36",legacy,legacy,legacy,0,uniform,1,1,right,108,108,108,108,0,0,0,108,108,0,0,0,108,108,108,0,0,108,108,0,04-09-21,04-09-21,10:17:00,Mon Oct 04 2021 10:17:00 GMT+0200 (Centraleuropæisk sommertid),The main experiment item,yes,0,0,/Users/ethan/Documents/GitHub/OpenSesame/Sternberg/experiment_files,0,0,0,no,mono,no,18,no,white,no,no,768,130,3.6.1,legacy,legacy,8 3,osweb,1.4.0,1,2,y,36,,0,right,right,right,space,right,right,right,567,21857,48322,20020,19366,32262,567,2,legacy,721,1280,24,800,24,0,23,1280,1633335448645,2,1024,2,48000,-16,experiment,0,even,MacIntel,3,798760,407049,681789,795519,55,796541,740923,55,20086,113256,800762,797543,801345,55,800762,Sternberg_updated,97,85824,109,yes,1024
89,89,787,787,black,no,experiment,Mozilla,Netscape,"5.0 (Macintosh; Intel Mac OS X 10_13_6) AppleWebKit/537.36 (KHTML, like Gecko) Chrome/94.0.4606.71 Safari/537.36",legacy,legacy,legacy,0,uniform,1,1,left,109,109,109,109,0,0,0,109,109,0,0,0,109,109,109,0,0,109,109,0,04-09-21,04-09-21,10:17:00,Mon Oct 04 2021 10:17:00 GMT+0200 (Centraleuropæisk sommertid),The main experiment item,yes,0,0,/Users/ethan/Documents/GitHub/OpenSesame/Sternberg/experiment_files,0,0,0,no,mono,no,18,no,white,no,no,768,130,3.6.1,legacy,legacy,7 1,osweb,1.4.0,1,0,n,36,,0,left,right,right,space,right,right,left,712,21857,48322,20020,19366,32262,712,2,legacy,721,1280,24,800,24,0,23,1280,1633335448645,2,1024,2,48000,-16,experiment,0,even,MacIntel,8,804596,407049,681789,801346,55,802378,740923,55,20086,113256,806597,803379,807314,55,806597,Sternberg_updated,98,86536,110,yes,1024
89,89,785,785,black,no,experiment,Mozilla,Netscape,"5.0 (Macintosh; Intel Mac OS X 10_13_6) AppleWebKit/537.36 (KHTML, like Gecko) Chrome/94.0.4606.71 Safari/537.36",legacy,legacy,legacy,0,uniform,1,1,right,110,110,110,110,0,0,0,110,110,0,0,0,110,110,110,0,0,110,110,0,04-09-21,04-09-21,10:17:00,Mon Oct 04 2021 10:17:00 GMT+0200 (Centraleuropæisk sommertid),The main experiment item,yes,0,0,/Users/ethan/Documents/GitHub/OpenSesame/Sternberg/experiment_files,0,0,0,no,mono,no,18,no,white,no,no,768,130,3.6.1,legacy,legacy,9 1 6 7 8,osweb,1.4.0,1,1,y,36,,0,right,right,right,space,right,right,right,643,21857,48322,20020,19366,32262,643,2,legacy,721,1280,24,800,24,0,23,1280,1633335448645,5,1024,2,48000,-16,experiment,0,even,MacIntel,9,810561,407049,681789,807314,55,808343,740923,55,20086,113256,812562,809344,813212,55,812562,Sternberg_updated,99,87179,111,yes,1024
89,89,785,785,black,no,experiment,Mozilla,Netscape,"5.0 (Macintosh; Intel Mac OS X 10_13_6) AppleWebKit/537.36 (KHTML, like Gecko) Chrome/94.0.4606.71 Safari/537.36",legacy,legacy,legacy,0,uniform,1,1,left,111,111,111,111,0,0,0,111,111,0,0,0,111,111,111,0,0,111,111,0,04-09-21,04-09-21,10:17:00,Mon Oct 04 2021 10:17:00 GMT+0200 (Centraleuropæisk sommertid),The main experiment item,yes,0,0,/Users/ethan/Documents/GitHub/OpenSesame/Sternberg/experiment_files,0,0,0,no,mono,no,18,no,white,no,no,768,130,3.6.1,legacy,legacy,9,osweb,1.4.0,1,0,n,36,,0,left,right,right,space,right,right,left,781,21857,48322,20020,19366,32262,781,2,legacy,721,1280,24,800,24,0,23,1280,1633335448645,1,1024,2,48000,-16,experiment,0,even,MacIntel,6,816480,407049,681789,813213,55,814246,740923,55,20086,113256,818481,815263,819264,55,818481,Sternberg_updated,100,87960,112,yes,1024
89,89,786,786,black,no,experiment,Mozilla,Netscape,"5.0 (Macintosh; Intel Mac OS X 10_13_6) AppleWebKit/537.36 (KHTML, like Gecko) Chrome/94.0.4606.71 Safari/537.36",legacy,legacy,legacy,0,uniform,1,1,left,112,112,112,112,0,0,0,112,112,0,0,0,112,112,112,0,0,112,112,0,04-09-21,04-09-21,10:17:00,Mon Oct 04 2021 10:17:00 GMT+0200 (Centraleuropæisk sommertid),The main experiment item,yes,0,0,/Users/ethan/Documents/GitHub/OpenSesame/Sternberg/experiment_files,0,0,0,no,mono,no,18,no,white,no,no,768,130,3.6.1,legacy,legacy,5 3 2 6 9 8,osweb,1.4.0,1,0,n,36,,0,left,right,right,space,right,right,left,826,21857,48322,20020,19366,32262,826,2,legacy,721,1280,24,800,24,0,23,1280,1633335448645,6,1024,2,48000,-16,experiment,0,even,MacIntel,4,822516,407049,681789,819265,55,820297,740923,55,20086,113256,824518,821300,825351,55,824518,Sternberg_updated,101,88786,113,yes,1024
89,89,787,787,black,no,experiment,Mozilla,Netscape,"5.0 (Macintosh; Intel Mac OS X 10_13_6) AppleWebKit/537.36 (KHTML, like Gecko) Chrome/94.0.4606.71 Safari/537.36",legacy,legacy,legacy,0,uniform,1,1,left,113,113,113,113,0,0,0,113,113,0,0,0,113,113,113,0,0,113,113,0,04-09-21,04-09-21,10:17:00,Mon Oct 04 2021 10:17:00 GMT+0200 (Centraleuropæisk sommertid),The main experiment item,yes,0,0,/Users/ethan/Documents/GitHub/OpenSesame/Sternberg/experiment_files,0,0,0,no,mono,no,18,no,white,no,no,768,130,3.6.1,legacy,legacy,5 2,osweb,1.4.0,1,0,n,36,,0,left,right,right,space,right,right,left,898,21857,48322,20020,19366,32262,898,2,legacy,721,1280,24,800,24,0,23,1280,1633335448645,2,1024,2,48000,-16,experiment,0,even,MacIntel,7,828603,407049,681789,825352,55,826383,740923,55,20086,113256,830620,827386,831533,55,830620,Sternberg_updated,102,89684,114,yes,1024
89,89,786,786,black,no,experiment,Mozilla,Netscape,"5.0 (Macintosh; Intel Mac OS X 10_13_6) AppleWebKit/537.36 (KHTML, like Gecko) Chrome/94.0.4606.71 Safari/537.36",legacy,legacy,legacy,0,uniform,0,0,right,114,114,114,114,0,0,0,114,114,0,0,0,114,114,114,0,0,114,114,0,04-09-21,04-09-21,10:17:00,Mon Oct 04 2021 10:17:00 GMT+0200 (Centraleuropæisk sommertid),The main experiment item,yes,0,0,/Users/ethan/Documents/GitHub/OpenSesame/Sternberg/experiment_files,0,0,0,no,mono,no,18,no,white,no,no,768,130,3.6.1,legacy,legacy,2 3,osweb,1.4.0,1,1,y,36,,0,left,right,right,space,right,right,left,753,21857,48322,20020,19366,32262,753,2,legacy,721,1280,24,800,24,0,23,1280,1633335448645,2,1024,2,48000,-16,experiment,0,even,MacIntel,2,834802,407049,681789,831534,55,832568,740923,55,20086,113256,836803,833585,837570,55,836803,Sternberg_updated,102,90437,115,yes,1024
89,89,786,786,black,no,experiment,Mozilla,Netscape,"5.0 (Macintosh; Intel Mac OS X 10_13_6) AppleWebKit/537.36 (KHTML, like Gecko) Chrome/94.0.4606.71 Safari/537.36",legacy,legacy,legacy,0,uniform,1,1,left,115,115,115,115,0,0,0,115,115,0,0,0,115,115,115,0,0,115,115,0,04-09-21,04-09-21,10:17:00,Mon Oct 04 2021 10:17:00 GMT+0200 (Centraleuropæisk sommertid),The main experiment item,yes,0,0,/Users/ethan/Documents/GitHub/OpenSesame/Sternberg/experiment_files,0,0,0,no,mono,no,18,no,white,no,no,768,130,3.6.1,legacy,legacy,1 6 4,osweb,1.4.0,1,0,n,36,,0,left,right,right,space,right,right,left,775,21857,48322,20020,19366,32262,775,2,legacy,721,1280,24,800,24,0,23,1280,1633335448645,3,1024,2,48000,-16,experiment,0,even,MacIntel,7,840821,407049,681789,831534,55,838603,837570,55,20086,113256,842837,839620,843621,55,842837,Sternberg_updated,103,91212,116,yes,1024
89,89,788,788,black,no,experiment,Mozilla,Netscape,"5.0 (Macintosh; Intel Mac OS X 10_13_6) AppleWebKit/537.36 (KHTML, like Gecko) Chrome/94.0.4606.71 Safari/537.36",legacy,legacy,legacy,0,uniform,1,1,left,116,116,116,116,0,0,0,116,116,0,0,0,116,116,116,0,0,116,116,0,04-09-21,04-09-21,10:17:00,Mon Oct 04 2021 10:17:00 GMT+0200 (Centraleuropæisk sommertid),The main experiment item,yes,0,0,/Users/ethan/Documents/GitHub/OpenSesame/Sternberg/experiment_files,0,0,0,no,mono,no,18,no,white,no,no,768,130,3.6.1,legacy,legacy,1 3 2 6 9,osweb,1.4.0,1,0,n,36,,0,left,right,right,space,right,right,left,991,21857,48322,20020,19366,32262,991,2,legacy,721,1280,24,800,24,0,23,1280,1633335448645,5,1024,2,48000,-16,experiment,0,even,MacIntel,5,846889,407049,681789,843622,55,844655,837570,55,20086,113256,848912,845671,849906,55,848911,Sternberg_updated,104,92203,117,yes,1024
