acc,accuracy,average_response_time,avg_rt,background,bidi,block,browser_codename,browser_name,browser_version,canvas_backend,clock_backend,color_backend,compensation,coordinates,correct,correct_keyboard_response,correct_response,count_ISI,count_break1,count_break_2,count_correct_feedback,count_credits,count_experiment,count_experimentLoop,count_fixation,count_incorrect_feedback,count_instructions1a,count_instructions1b,count_instructions2,count_keyboard_response,count_memory_set,count_new_logger,count_osweb,count_practiceLoop,count_practiceSequence,count_probe,count_thankYou,date_startdate,date_startdateUTC,date_starttime,datetime,description,disable_garbage_collection,experiment_debug,experiment_parameters,experiment_path,experiment_pilot,experiment_taskname,experiment_taskversion,font_bold,font_family,font_italic,font_size,font_underline,foreground,form_clicks,fullscreen,height,jatosStudyResultId,jatosVersion,keyboard_backend,mouse_backend,numberSet,opensesame_codename,opensesame_version,penwidth,posInSet,present,queryParams_batchId,queryParams_generalMultiple,repeat_cycle,response,response_break1,response_break_2,response_instructions1a,response_instructions1b,response_instructions2,response_keyboard_response,response_time,response_time_break1,response_time_break_2,response_time_instructions1a,response_time_instructions1b,response_time_instructions2,response_time_keyboard_response,round_decimals,sampler_backend,screen_availableHeight,screen_availableWidth,screen_colorDepth,screen_height,screen_pixelDepth,screen_screenX,screen_screenY,screen_width,sessionid,setSize,sound_buf_size,sound_channels,sound_freq,sound_sample_size,start,subject_nr,subject_parity,system_os,target,time_ISI,time_break1,time_break_2,time_correct_feedback,time_experimentLoop,time_fixation,time_incorrect_feedback,time_instructions1a,time_instructions1b,time_instructions2,time_keyboard_response,time_memory_set,time_new_logger,time_practiceLoop,time_probe,title,total_correct,total_response_time,total_responses,uniform_coordinates,width
100,100,727,727,black,no,practice,Mozilla,Netscape,"5.0 (Macintosh; Intel Mac OS X 10_14_6) AppleWebKit/537.36 (KHTML, like Gecko) Chrome/92.0.4515.159 Safari/537.36",legacy,legacy,legacy,0,uniform,1,1,left,0,0,0,0,0,0,0,0,0,0,0,0,0,0,0,0,0,0,0,0,29-08-21,29-08-21,11:44:41,Wed Sep 29 2021 11:44:41 GMT+0200 (Centraleuropæisk sommertid),The main experiment item,yes,0,0,/Users/ethan/Documents/GitHub/OpenSesame/Sternberg/experiment_files,0,0,0,no,mono,no,18,no,white,no,no,768,43,3.6.1,legacy,legacy,2 1,osweb,1.4.0,1,0,n,36,,0,left,,,right,right,,left,727,,,18006,20661,,727,2,legacy,900,1440,24,900,24,0,0,1440,1632908657731,2,1024,2,48000,-16,experiment,1,odd,MacIntel,5,40956,,,,40,38743,,39,18054,,42973,39746,43705,40,42973,Sternberg_updated,1,727,1,yes,1024
100,100,567,567,black,no,practice,Mozilla,Netscape,"5.0 (Macintosh; Intel Mac OS X 10_14_6) AppleWebKit/537.36 (KHTML, like Gecko) Chrome/92.0.4515.159 Safari/537.36",legacy,legacy,legacy,0,uniform,1,1,right,1,1,1,1,0,0,0,1,1,0,0,0,1,1,1,0,0,1,1,0,29-08-21,29-08-21,11:44:41,Wed Sep 29 2021 11:44:41 GMT+0200 (Centraleuropæisk sommertid),The main experiment item,yes,0,0,/Users/ethan/Documents/GitHub/OpenSesame/Sternberg/experiment_files,0,0,0,no,mono,no,18,no,white,no,no,768,43,3.6.1,legacy,legacy,4 8,osweb,1.4.0,1,1,y,36,,0,right,,,right,right,,right,406,,,18006,20661,,406,2,legacy,900,1440,24,900,24,0,0,1440,1632908657731,2,1024,2,48000,-16,experiment,1,odd,MacIntel,4,46972,,,43707,40,44748,,39,18054,,48990,45756,49405,40,48989,Sternberg_updated,2,1133,2,yes,1024
100,100,674,674,black,no,practice,Mozilla,Netscape,"5.0 (Macintosh; Intel Mac OS X 10_14_6) AppleWebKit/537.36 (KHTML, like Gecko) Chrome/92.0.4515.159 Safari/537.36",legacy,legacy,legacy,0,uniform,1,1,right,2,2,2,2,0,0,0,2,2,0,0,0,2,2,2,0,0,2,2,0,29-08-21,29-08-21,11:44:41,Wed Sep 29 2021 11:44:41 GMT+0200 (Centraleuropæisk sommertid),The main experiment item,yes,0,0,/Users/ethan/Documents/GitHub/OpenSesame/Sternberg/experiment_files,0,0,0,no,mono,no,18,no,white,no,no,768,43,3.6.1,legacy,legacy,2 9 4,osweb,1.4.0,1,3,y,36,,0,right,,,right,right,,right,890,,,18006,20661,,890,2,legacy,900,1440,24,900,24,0,0,1440,1632908657731,3,1024,2,48000,-16,experiment,1,odd,MacIntel,4,52644,,,49406,40,50424,,39,18054,,54660,51428,55559,40,54660,Sternberg_updated,3,2023,3,yes,1024
100,100,706,706,black,no,practice,Mozilla,Netscape,"5.0 (Macintosh; Intel Mac OS X 10_14_6) AppleWebKit/537.36 (KHTML, like Gecko) Chrome/92.0.4515.159 Safari/537.36",legacy,legacy,legacy,0,uniform,1,1,left,3,3,3,3,0,0,0,3,3,0,0,0,3,3,3,0,0,3,3,0,29-08-21,29-08-21,11:44:41,Wed Sep 29 2021 11:44:41 GMT+0200 (Centraleuropæisk sommertid),The main experiment item,yes,0,0,/Users/ethan/Documents/GitHub/OpenSesame/Sternberg/experiment_files,0,0,0,no,mono,no,18,no,white,no,no,768,43,3.6.1,legacy,legacy,3 1 9 4,osweb,1.4.0,1,0,n,36,,0,left,,,right,right,,left,800,,,18006,20661,,800,2,legacy,900,1440,24,900,24,0,0,1440,1632908657731,4,1024,2,48000,-16,experiment,1,odd,MacIntel,6,58810,,,55560,40,56591,,39,18054,,60827,57594,61643,40,60827,Sternberg_updated,4,2823,4,yes,1024
100,100,677,677,black,no,practice,Mozilla,Netscape,"5.0 (Macintosh; Intel Mac OS X 10_14_6) AppleWebKit/537.36 (KHTML, like Gecko) Chrome/92.0.4515.159 Safari/537.36",legacy,legacy,legacy,0,uniform,1,1,right,4,4,4,4,0,0,0,4,4,0,0,0,4,4,4,0,0,4,4,0,29-08-21,29-08-21,11:44:41,Wed Sep 29 2021 11:44:41 GMT+0200 (Centraleuropæisk sommertid),The main experiment item,yes,0,0,/Users/ethan/Documents/GitHub/OpenSesame/Sternberg/experiment_files,0,0,0,no,mono,no,18,no,white,no,no,768,43,3.6.1,legacy,legacy,1 5 2 9,osweb,1.4.0,1,2,y,36,,0,right,,,right,right,,right,564,,,18006,20661,,564,2,legacy,900,1440,24,900,24,0,0,1440,1632908657731,4,1024,2,48000,-16,experiment,1,odd,MacIntel,5,64882,,,61644,40,62661,,39,18054,,66898,63666,67464,40,66898,Sternberg_updated,5,3387,5,yes,1024
100,100,649,649,black,no,practice,Mozilla,Netscape,"5.0 (Macintosh; Intel Mac OS X 10_14_6) AppleWebKit/537.36 (KHTML, like Gecko) Chrome/92.0.4515.159 Safari/537.36",legacy,legacy,legacy,0,uniform,1,1,left,5,5,5,5,0,0,0,5,5,0,0,0,5,5,5,0,0,5,5,0,29-08-21,29-08-21,11:44:41,Wed Sep 29 2021 11:44:41 GMT+0200 (Centraleuropæisk sommertid),The main experiment item,yes,0,0,/Users/ethan/Documents/GitHub/OpenSesame/Sternberg/experiment_files,0,0,0,no,mono,no,18,no,white,no,no,768,43,3.6.1,legacy,legacy,5,osweb,1.4.0,1,0,n,36,,0,left,,,right,right,,left,509,,,18006,20661,,509,2,legacy,900,1440,24,900,24,0,0,1440,1632908657731,1,1024,2,48000,-16,experiment,1,odd,MacIntel,3,70715,,,67465,40,68496,,39,18054,,72732,69499,73248,40,72732,Sternberg_updated,6,3896,6,yes,1024
100,100,731,731,black,no,practice,Mozilla,Netscape,"5.0 (Macintosh; Intel Mac OS X 10_14_6) AppleWebKit/537.36 (KHTML, like Gecko) Chrome/92.0.4515.159 Safari/537.36",legacy,legacy,legacy,0,uniform,1,1,right,6,6,6,6,0,0,0,6,6,0,0,0,6,6,6,0,0,6,6,0,29-08-21,29-08-21,11:44:41,Wed Sep 29 2021 11:44:41 GMT+0200 (Centraleuropæisk sommertid),The main experiment item,yes,0,0,/Users/ethan/Documents/GitHub/OpenSesame/Sternberg/experiment_files,0,0,0,no,mono,no,18,no,white,no,no,768,43,3.6.1,legacy,legacy,1 7 9 8 5,osweb,1.4.0,1,4,y,36,,0,right,,,right,right,,right,1219,,,18006,20661,,1219,2,legacy,900,1440,24,900,24,0,0,1440,1632908657731,5,1024,2,48000,-16,experiment,1,odd,MacIntel,8,76487,,,73249,40,74267,,39,18054,,78504,75271,79736,40,78504,Sternberg_updated,7,5115,7,yes,1024
100,100,719,719,black,no,practice,Mozilla,Netscape,"5.0 (Macintosh; Intel Mac OS X 10_14_6) AppleWebKit/537.36 (KHTML, like Gecko) Chrome/92.0.4515.159 Safari/537.36",legacy,legacy,legacy,0,uniform,1,1,left,7,7,7,7,0,0,0,7,7,0,0,0,7,7,7,0,0,7,7,0,29-08-21,29-08-21,11:44:41,Wed Sep 29 2021 11:44:41 GMT+0200 (Centraleuropæisk sommertid),The main experiment item,yes,0,0,/Users/ethan/Documents/GitHub/OpenSesame/Sternberg/experiment_files,0,0,0,no,mono,no,18,no,white,no,no,768,43,3.6.1,legacy,legacy,5 7 8 4 1 2,osweb,1.4.0,1,0,n,36,,0,left,,,right,right,,left,633,,,18006,20661,,633,2,legacy,900,1440,24,900,24,0,0,1440,1632908657731,6,1024,2,48000,-16,experiment,1,odd,MacIntel,6,82987,,,79737,40,80766,,39,18054,,85004,81771,85643,40,85004,Sternberg_updated,8,5748,8,yes,1024
100,100,717,717,black,no,practice,Mozilla,Netscape,"5.0 (Macintosh; Intel Mac OS X 10_14_6) AppleWebKit/537.36 (KHTML, like Gecko) Chrome/92.0.4515.159 Safari/537.36",legacy,legacy,legacy,0,uniform,1,1,right,8,8,8,8,0,0,0,8,8,0,0,0,8,8,8,0,0,8,8,0,29-08-21,29-08-21,11:44:41,Wed Sep 29 2021 11:44:41 GMT+0200 (Centraleuropæisk sommertid),The main experiment item,yes,0,0,/Users/ethan/Documents/GitHub/OpenSesame/Sternberg/experiment_files,0,0,0,no,mono,no,18,no,white,no,no,768,43,3.6.1,legacy,legacy,6,osweb,1.4.0,1,1,y,36,,0,right,,,right,right,,right,709,,,18006,20661,,709,2,legacy,900,1440,24,900,24,0,0,1440,1632908657731,1,1024,2,48000,-16,experiment,1,odd,MacIntel,6,88894,,,85644,40,86674,,39,18054,,90911,87677,91627,40,90911,Sternberg_updated,9,6457,9,yes,1024
100,100,712,712,black,no,practice,Mozilla,Netscape,"5.0 (Macintosh; Intel Mac OS X 10_14_6) AppleWebKit/537.36 (KHTML, like Gecko) Chrome/92.0.4515.159 Safari/537.36",legacy,legacy,legacy,0,uniform,1,1,left,9,9,9,9,0,0,0,9,9,0,0,0,9,9,9,0,0,9,9,0,29-08-21,29-08-21,11:44:41,Wed Sep 29 2021 11:44:41 GMT+0200 (Centraleuropæisk sommertid),The main experiment item,yes,0,0,/Users/ethan/Documents/GitHub/OpenSesame/Sternberg/experiment_files,0,0,0,no,mono,no,18,no,white,no,no,768,43,3.6.1,legacy,legacy,9 6 7 4 5,osweb,1.4.0,1,0,n,36,,0,left,,,right,right,,left,663,,,18006,20661,,663,2,legacy,900,1440,24,900,24,0,0,1440,1632908657731,5,1024,2,48000,-16,experiment,1,odd,MacIntel,3,94877,,,91628,40,92656,,39,18054,,96882,93661,97548,40,96882,Sternberg_updated,10,7120,10,yes,1024
100,100,708,708,black,no,practice,Mozilla,Netscape,"5.0 (Macintosh; Intel Mac OS X 10_14_6) AppleWebKit/537.36 (KHTML, like Gecko) Chrome/92.0.4515.159 Safari/537.36",legacy,legacy,legacy,0,uniform,1,1,right,10,10,10,10,0,0,0,10,10,0,0,0,10,10,10,0,0,10,10,0,29-08-21,29-08-21,11:44:41,Wed Sep 29 2021 11:44:41 GMT+0200 (Centraleuropæisk sommertid),The main experiment item,yes,0,0,/Users/ethan/Documents/GitHub/OpenSesame/Sternberg/experiment_files,0,0,0,no,mono,no,18,no,white,no,no,768,43,3.6.1,legacy,legacy,4 3 1 7 9 8,osweb,1.4.0,1,1,y,36,,0,right,,,right,right,,right,671,,,18006,20661,,671,2,legacy,900,1440,24,900,24,0,0,1440,1632908657731,6,1024,2,48000,-16,experiment,1,odd,MacIntel,4,100799,,,97549,40,98578,,39,18054,,102815,99583,103498,40,102815,Sternberg_updated,11,7791,11,yes,1024
100,100,687,687,black,no,practice,Mozilla,Netscape,"5.0 (Macintosh; Intel Mac OS X 10_14_6) AppleWebKit/537.36 (KHTML, like Gecko) Chrome/92.0.4515.159 Safari/537.36",legacy,legacy,legacy,0,uniform,1,1,left,11,11,11,11,0,0,0,11,11,0,0,0,11,11,11,0,0,11,11,0,29-08-21,29-08-21,11:44:41,Wed Sep 29 2021 11:44:41 GMT+0200 (Centraleuropæisk sommertid),The main experiment item,yes,0,0,/Users/ethan/Documents/GitHub/OpenSesame/Sternberg/experiment_files,0,0,0,no,mono,no,18,no,white,no,no,768,43,3.6.1,legacy,legacy,4 1 5,osweb,1.4.0,1,0,n,36,,0,left,,,right,right,,left,455,,,18006,20661,,455,2,legacy,900,1440,24,900,24,0,0,1440,1632908657731,3,1024,2,48000,-16,experiment,1,odd,MacIntel,2,106754,,,103499,40,104528,,39,18054,,108770,105538,109237,40,108770,Sternberg_updated,12,8246,12,yes,1024
100,100,673,673,black,no,experiment,Mozilla,Netscape,"5.0 (Macintosh; Intel Mac OS X 10_14_6) AppleWebKit/537.36 (KHTML, like Gecko) Chrome/92.0.4515.159 Safari/537.36",legacy,legacy,legacy,0,uniform,1,1,left,12,12,12,12,0,0,0,12,12,0,0,0,12,12,12,0,0,12,12,0,29-08-21,29-08-21,11:44:41,Wed Sep 29 2021 11:44:41 GMT+0200 (Centraleuropæisk sommertid),The main experiment item,yes,0,0,/Users/ethan/Documents/GitHub/OpenSesame/Sternberg/experiment_files,0,0,0,no,mono,no,18,no,white,no,no,768,43,3.6.1,legacy,legacy,6 9 5,osweb,1.4.0,1,0,n,36,,0,left,,,right,right,right,left,508,,,18006,20661,14319,508,2,legacy,900,1440,24,900,24,0,0,1440,1632908657731,3,1024,2,48000,-16,experiment,1,odd,MacIntel,8,126814,,,109238,40,124598,,39,18054,110255,128830,125604,129346,40,128830,Sternberg_updated,13,8754,13,yes,1024
100,100,692,692,black,no,experiment,Mozilla,Netscape,"5.0 (Macintosh; Intel Mac OS X 10_14_6) AppleWebKit/537.36 (KHTML, like Gecko) Chrome/92.0.4515.159 Safari/537.36",legacy,legacy,legacy,0,uniform,1,1,right,13,13,13,13,0,0,0,13,13,0,0,0,13,13,13,0,0,13,13,0,29-08-21,29-08-21,11:44:41,Wed Sep 29 2021 11:44:41 GMT+0200 (Centraleuropæisk sommertid),The main experiment item,yes,0,0,/Users/ethan/Documents/GitHub/OpenSesame/Sternberg/experiment_files,0,0,0,no,mono,no,18,no,white,no,no,768,43,3.6.1,legacy,legacy,1 4 9 3 2 5,osweb,1.4.0,1,3,y,36,,0,right,,,right,right,right,right,936,,,18006,20661,14319,936,2,legacy,900,1440,24,900,24,0,0,1440,1632908657731,6,1024,2,48000,-16,experiment,1,odd,MacIntel,9,132596,,,129347,40,130376,,39,18054,110255,134612,131380,135563,40,134612,Sternberg_updated,14,9690,14,yes,1024
100,100,686,686,black,no,experiment,Mozilla,Netscape,"5.0 (Macintosh; Intel Mac OS X 10_14_6) AppleWebKit/537.36 (KHTML, like Gecko) Chrome/92.0.4515.159 Safari/537.36",legacy,legacy,legacy,0,uniform,1,1,left,14,14,14,14,0,0,0,14,14,0,0,0,14,14,14,0,0,14,14,0,29-08-21,29-08-21,11:44:41,Wed Sep 29 2021 11:44:41 GMT+0200 (Centraleuropæisk sommertid),The main experiment item,yes,0,0,/Users/ethan/Documents/GitHub/OpenSesame/Sternberg/experiment_files,0,0,0,no,mono,no,18,no,white,no,no,768,43,3.6.1,legacy,legacy,8 2 1 4 5 9,osweb,1.4.0,1,0,n,36,,0,left,,,right,right,right,left,593,,,18006,20661,14319,593,2,legacy,900,1440,24,900,24,0,0,1440,1632908657731,6,1024,2,48000,-16,experiment,1,odd,MacIntel,7,138818,,,135564,40,136592,,39,18054,110255,140835,137602,141434,40,140835,Sternberg_updated,15,10283,15,yes,1024
100,100,685,685,black,no,experiment,Mozilla,Netscape,"5.0 (Macintosh; Intel Mac OS X 10_14_6) AppleWebKit/537.36 (KHTML, like Gecko) Chrome/92.0.4515.159 Safari/537.36",legacy,legacy,legacy,0,uniform,1,1,left,15,15,15,15,0,0,0,15,15,0,0,0,15,15,15,0,0,15,15,0,29-08-21,29-08-21,11:44:41,Wed Sep 29 2021 11:44:41 GMT+0200 (Centraleuropæisk sommertid),The main experiment item,yes,0,0,/Users/ethan/Documents/GitHub/OpenSesame/Sternberg/experiment_files,0,0,0,no,mono,no,18,no,white,no,no,768,43,3.6.1,legacy,legacy,2 8 9 4 1,osweb,1.4.0,1,0,n,36,,0,left,,,right,right,right,left,671,,,18006,20661,14319,671,2,legacy,900,1440,24,900,24,0,0,1440,1632908657731,5,1024,2,48000,-16,experiment,1,odd,MacIntel,5,144685,,,141435,40,142464,,39,18054,110255,146701,143469,147384,40,146701,Sternberg_updated,16,10954,16,yes,1024
100,100,675,675,black,no,experiment,Mozilla,Netscape,"5.0 (Macintosh; Intel Mac OS X 10_14_6) AppleWebKit/537.36 (KHTML, like Gecko) Chrome/92.0.4515.159 Safari/537.36",legacy,legacy,legacy,0,uniform,1,1,left,16,16,16,16,0,0,0,16,16,0,0,0,16,16,16,0,0,16,16,0,29-08-21,29-08-21,11:44:41,Wed Sep 29 2021 11:44:41 GMT+0200 (Centraleuropæisk sommertid),The main experiment item,yes,0,0,/Users/ethan/Documents/GitHub/OpenSesame/Sternberg/experiment_files,0,0,0,no,mono,no,18,no,white,no,no,768,43,3.6.1,legacy,legacy,9 5 3 2 8 6,osweb,1.4.0,1,0,n,36,,0,left,,,right,right,right,left,513,,,18006,20661,14319,513,2,legacy,900,1440,24,900,24,0,0,1440,1632908657731,6,1024,2,48000,-16,experiment,1,odd,MacIntel,7,150623,,,147385,40,148405,,39,18054,110255,152640,149407,153155,40,152640,Sternberg_updated,17,11467,17,yes,1024
94,94,665,665,black,no,experiment,Mozilla,Netscape,"5.0 (Macintosh; Intel Mac OS X 10_14_6) AppleWebKit/537.36 (KHTML, like Gecko) Chrome/92.0.4515.159 Safari/537.36",legacy,legacy,legacy,0,uniform,0,0,right,17,17,17,17,0,0,0,17,17,0,0,0,17,17,17,0,0,17,17,0,29-08-21,29-08-21,11:44:41,Wed Sep 29 2021 11:44:41 GMT+0200 (Centraleuropæisk sommertid),The main experiment item,yes,0,0,/Users/ethan/Documents/GitHub/OpenSesame/Sternberg/experiment_files,0,0,0,no,mono,no,18,no,white,no,no,768,43,3.6.1,legacy,legacy,8 7 3,osweb,1.4.0,1,1,y,36,,0,left,,,right,right,right,left,495,,,18006,20661,14319,495,2,legacy,900,1440,24,900,24,0,0,1440,1632908657731,3,1024,2,48000,-16,experiment,1,odd,MacIntel,8,156406,,,153156,40,154185,,39,18054,110255,158423,155190,158923,40,158423,Sternberg_updated,17,11962,18,yes,1024
95,95,665,665,black,no,experiment,Mozilla,Netscape,"5.0 (Macintosh; Intel Mac OS X 10_14_6) AppleWebKit/537.36 (KHTML, like Gecko) Chrome/92.0.4515.159 Safari/537.36",legacy,legacy,legacy,0,uniform,1,1,left,18,18,18,18,0,0,0,18,18,0,0,0,18,18,18,0,0,18,18,0,29-08-21,29-08-21,11:44:41,Wed Sep 29 2021 11:44:41 GMT+0200 (Centraleuropæisk sommertid),The main experiment item,yes,0,0,/Users/ethan/Documents/GitHub/OpenSesame/Sternberg/experiment_files,0,0,0,no,mono,no,18,no,white,no,no,768,43,3.6.1,legacy,legacy,5 9 2 3,osweb,1.4.0,1,0,n,36,,0,left,,,right,right,right,left,669,,,18006,20661,14319,669,2,legacy,900,1440,24,900,24,0,0,1440,1632908657731,4,1024,2,48000,-16,experiment,1,odd,MacIntel,8,162180,,,153156,40,159947,158924,39,18054,110255,164197,160963,164879,40,164197,Sternberg_updated,18,12631,19,yes,1024
95,95,659,659,black,no,experiment,Mozilla,Netscape,"5.0 (Macintosh; Intel Mac OS X 10_14_6) AppleWebKit/537.36 (KHTML, like Gecko) Chrome/92.0.4515.159 Safari/537.36",legacy,legacy,legacy,0,uniform,1,1,left,19,19,19,19,0,0,0,19,19,0,0,0,19,19,19,0,0,19,19,0,29-08-21,29-08-21,11:44:41,Wed Sep 29 2021 11:44:41 GMT+0200 (Centraleuropæisk sommertid),The main experiment item,yes,0,0,/Users/ethan/Documents/GitHub/OpenSesame/Sternberg/experiment_files,0,0,0,no,mono,no,18,no,white,no,no,768,43,3.6.1,legacy,legacy,1 7 5 2 9,osweb,1.4.0,1,0,n,36,,0,left,,,right,right,right,left,547,,,18006,20661,14319,547,2,legacy,900,1440,24,900,24,0,0,1440,1632908657731,5,1024,2,48000,-16,experiment,1,odd,MacIntel,3,168129,,,164880,40,165910,158924,39,18054,110255,170146,166913,170696,40,170146,Sternberg_updated,19,13178,20,yes,1024
95,95,657,657,black,no,experiment,Mozilla,Netscape,"5.0 (Macintosh; Intel Mac OS X 10_14_6) AppleWebKit/537.36 (KHTML, like Gecko) Chrome/92.0.4515.159 Safari/537.36",legacy,legacy,legacy,0,uniform,1,1,left,20,20,20,20,0,0,0,20,20,0,0,0,20,20,20,0,0,20,20,0,29-08-21,29-08-21,11:44:41,Wed Sep 29 2021 11:44:41 GMT+0200 (Centraleuropæisk sommertid),The main experiment item,yes,0,0,/Users/ethan/Documents/GitHub/OpenSesame/Sternberg/experiment_files,0,0,0,no,mono,no,18,no,white,no,no,768,43,3.6.1,legacy,legacy,3 4 2,osweb,1.4.0,1,0,n,36,,0,left,,,right,right,right,left,619,,,18006,20661,14319,619,2,legacy,900,1440,24,900,24,0,0,1440,1632908657731,3,1024,2,48000,-16,experiment,1,odd,MacIntel,5,173936,,,170697,40,171718,158924,39,18054,110255,175954,172721,176586,40,175954,Sternberg_updated,20,13797,21,yes,1024
91,91,664,664,black,no,experiment,Mozilla,Netscape,"5.0 (Macintosh; Intel Mac OS X 10_14_6) AppleWebKit/537.36 (KHTML, like Gecko) Chrome/92.0.4515.159 Safari/537.36",legacy,legacy,legacy,0,uniform,0,0,right,21,21,21,21,0,0,0,21,21,0,0,0,21,21,21,0,0,21,21,0,29-08-21,29-08-21,11:44:41,Wed Sep 29 2021 11:44:41 GMT+0200 (Centraleuropæisk sommertid),The main experiment item,yes,0,0,/Users/ethan/Documents/GitHub/OpenSesame/Sternberg/experiment_files,0,0,0,no,mono,no,18,no,white,no,no,768,43,3.6.1,legacy,legacy,6 7 9 3 1 2,osweb,1.4.0,1,1,y,36,,0,left,,,right,right,right,left,806,,,18006,20661,14319,806,2,legacy,900,1440,24,900,24,0,0,1440,1632908657731,6,1024,2,48000,-16,experiment,1,odd,MacIntel,6,179837,,,176587,40,177616,158924,39,18054,110255,181854,178621,182670,40,181854,Sternberg_updated,20,14603,22,yes,1024
91,91,683,683,black,no,experiment,Mozilla,Netscape,"5.0 (Macintosh; Intel Mac OS X 10_14_6) AppleWebKit/537.36 (KHTML, like Gecko) Chrome/92.0.4515.159 Safari/537.36",legacy,legacy,legacy,0,uniform,1,1,right,22,22,22,22,0,0,0,22,22,0,0,0,22,22,22,0,0,22,22,0,29-08-21,29-08-21,11:44:41,Wed Sep 29 2021 11:44:41 GMT+0200 (Centraleuropæisk sommertid),The main experiment item,yes,0,0,/Users/ethan/Documents/GitHub/OpenSesame/Sternberg/experiment_files,0,0,0,no,mono,no,18,no,white,no,no,768,43,3.6.1,legacy,legacy,4 1 8 7 5,osweb,1.4.0,1,3,y,36,,0,right,,,right,right,right,right,1100,,,18006,20661,14319,1100,2,legacy,900,1440,24,900,24,0,0,1440,1632908657731,5,1024,2,48000,-16,experiment,1,odd,MacIntel,8,185908,,,176587,40,183687,182671,39,18054,110255,187925,184692,189041,40,187925,Sternberg_updated,21,15703,23,yes,1024
92,92,709,709,black,no,experiment,Mozilla,Netscape,"5.0 (Macintosh; Intel Mac OS X 10_14_6) AppleWebKit/537.36 (KHTML, like Gecko) Chrome/92.0.4515.159 Safari/537.36",legacy,legacy,legacy,0,uniform,1,1,right,23,23,23,23,0,0,0,23,23,0,0,0,23,23,23,0,0,23,23,0,29-08-21,29-08-21,11:44:41,Wed Sep 29 2021 11:44:41 GMT+0200 (Centraleuropæisk sommertid),The main experiment item,yes,0,0,/Users/ethan/Documents/GitHub/OpenSesame/Sternberg/experiment_files,0,0,0,no,mono,no,18,no,white,no,no,768,43,3.6.1,legacy,legacy,8 5 1 3 9,osweb,1.4.0,1,4,y,36,,0,right,,,right,right,right,right,1301,,,18006,20661,14319,1301,2,legacy,900,1440,24,900,24,0,0,1440,1632908657731,5,1024,2,48000,-16,experiment,1,odd,MacIntel,3,192275,,,189041,40,190055,182671,39,18054,110255,194291,191059,195596,40,194291,Sternberg_updated,22,17004,24,yes,1024
92,92,703,703,black,no,experiment,Mozilla,Netscape,"5.0 (Macintosh; Intel Mac OS X 10_14_6) AppleWebKit/537.36 (KHTML, like Gecko) Chrome/92.0.4515.159 Safari/537.36",legacy,legacy,legacy,0,uniform,1,1,right,24,24,24,24,0,0,0,24,24,0,0,0,24,24,24,0,0,24,24,0,29-08-21,29-08-21,11:44:41,Wed Sep 29 2021 11:44:41 GMT+0200 (Centraleuropæisk sommertid),The main experiment item,yes,0,0,/Users/ethan/Documents/GitHub/OpenSesame/Sternberg/experiment_files,0,0,0,no,mono,no,18,no,white,no,no,768,43,3.6.1,legacy,legacy,6 9 3 1,osweb,1.4.0,1,4,y,36,,0,right,,,right,right,right,right,561,,,18006,20661,14319,561,2,legacy,900,1440,24,900,24,0,0,1440,1632908657731,4,1024,2,48000,-16,experiment,1,odd,MacIntel,1,198847,,,195596,40,196625,182671,39,18054,110255,200864,197630,201430,40,200864,Sternberg_updated,23,17565,25,yes,1024
92,92,696,696,black,no,experiment,Mozilla,Netscape,"5.0 (Macintosh; Intel Mac OS X 10_14_6) AppleWebKit/537.36 (KHTML, like Gecko) Chrome/92.0.4515.159 Safari/537.36",legacy,legacy,legacy,0,uniform,1,1,right,25,25,25,25,0,0,0,25,25,0,0,0,25,25,25,0,0,25,25,0,29-08-21,29-08-21,11:44:41,Wed Sep 29 2021 11:44:41 GMT+0200 (Centraleuropæisk sommertid),The main experiment item,yes,0,0,/Users/ethan/Documents/GitHub/OpenSesame/Sternberg/experiment_files,0,0,0,no,mono,no,18,no,white,no,no,768,43,3.6.1,legacy,legacy,2 8 5 1,osweb,1.4.0,1,4,y,36,,0,right,,,right,right,right,right,536,,,18006,20661,14319,536,2,legacy,900,1440,24,900,24,0,0,1440,1632908657731,4,1024,2,48000,-16,experiment,1,odd,MacIntel,1,204669,,,201431,40,202459,182671,39,18054,110255,206686,203463,207235,40,206686,Sternberg_updated,24,18101,26,yes,1024
93,93,702,702,black,no,experiment,Mozilla,Netscape,"5.0 (Macintosh; Intel Mac OS X 10_14_6) AppleWebKit/537.36 (KHTML, like Gecko) Chrome/92.0.4515.159 Safari/537.36",legacy,legacy,legacy,0,uniform,1,1,right,26,26,26,26,0,0,0,26,26,0,0,0,26,26,26,0,0,26,26,0,29-08-21,29-08-21,11:44:41,Wed Sep 29 2021 11:44:41 GMT+0200 (Centraleuropæisk sommertid),The main experiment item,yes,0,0,/Users/ethan/Documents/GitHub/OpenSesame/Sternberg/experiment_files,0,0,0,no,mono,no,18,no,white,no,no,768,43,3.6.1,legacy,legacy,7 8 4 6 9 5,osweb,1.4.0,1,4,y,36,,0,right,,,right,right,right,right,857,,,18006,20661,14319,857,2,legacy,900,1440,24,900,24,0,0,1440,1632908657731,6,1024,2,48000,-16,experiment,1,odd,MacIntel,6,210485,,,207236,40,208264,182671,39,18054,110255,212501,209268,213368,40,212501,Sternberg_updated,25,18958,27,yes,1024
93,93,698,698,black,no,experiment,Mozilla,Netscape,"5.0 (Macintosh; Intel Mac OS X 10_14_6) AppleWebKit/537.36 (KHTML, like Gecko) Chrome/92.0.4515.159 Safari/537.36",legacy,legacy,legacy,0,uniform,1,1,right,27,27,27,27,0,0,0,27,27,0,0,0,27,27,27,0,0,27,27,0,29-08-21,29-08-21,11:44:41,Wed Sep 29 2021 11:44:41 GMT+0200 (Centraleuropæisk sommertid),The main experiment item,yes,0,0,/Users/ethan/Documents/GitHub/OpenSesame/Sternberg/experiment_files,0,0,0,no,mono,no,18,no,white,no,no,768,43,3.6.1,legacy,legacy,8 9 5 6 7,osweb,1.4.0,1,1,y,36,,0,right,,,right,right,right,right,596,,,18006,20661,14319,596,2,legacy,900,1440,24,900,24,0,0,1440,1632908657731,5,1024,2,48000,-16,experiment,1,odd,MacIntel,8,216607,,,213369,40,214386,182671,39,18054,110255,218624,215391,219224,40,218624,Sternberg_updated,26,19554,28,yes,1024
93,93,694,694,black,no,experiment,Mozilla,Netscape,"5.0 (Macintosh; Intel Mac OS X 10_14_6) AppleWebKit/537.36 (KHTML, like Gecko) Chrome/92.0.4515.159 Safari/537.36",legacy,legacy,legacy,0,uniform,1,1,right,28,28,28,28,0,0,0,28,28,0,0,0,28,28,28,0,0,28,28,0,29-08-21,29-08-21,11:44:41,Wed Sep 29 2021 11:44:41 GMT+0200 (Centraleuropæisk sommertid),The main experiment item,yes,0,0,/Users/ethan/Documents/GitHub/OpenSesame/Sternberg/experiment_files,0,0,0,no,mono,no,18,no,white,no,no,768,43,3.6.1,legacy,legacy,6 5,osweb,1.4.0,1,2,y,36,,0,right,,,right,right,right,right,579,,,18006,20661,14319,579,2,legacy,900,1440,24,900,24,0,0,1440,1632908657731,2,1024,2,48000,-16,experiment,1,odd,MacIntel,5,222473,,,219225,40,220254,182671,39,18054,110255,224490,221257,225072,40,224490,Sternberg_updated,27,20133,29,yes,1024
93,93,687,687,black,no,experiment,Mozilla,Netscape,"5.0 (Macintosh; Intel Mac OS X 10_14_6) AppleWebKit/537.36 (KHTML, like Gecko) Chrome/92.0.4515.159 Safari/537.36",legacy,legacy,legacy,0,uniform,1,1,left,29,29,29,29,0,0,0,29,29,0,0,0,29,29,29,0,0,29,29,0,29-08-21,29-08-21,11:44:41,Wed Sep 29 2021 11:44:41 GMT+0200 (Centraleuropæisk sommertid),The main experiment item,yes,0,0,/Users/ethan/Documents/GitHub/OpenSesame/Sternberg/experiment_files,0,0,0,no,mono,no,18,no,white,no,no,768,43,3.6.1,legacy,legacy,5,osweb,1.4.0,1,0,n,36,,0,left,,,right,right,right,left,479,,,18006,20661,14319,479,2,legacy,900,1440,24,900,24,0,0,1440,1632908657731,1,1024,2,48000,-16,experiment,1,odd,MacIntel,8,228313,,,225074,40,226095,182671,39,18054,110255,230329,227097,230812,40,230329,Sternberg_updated,28,20612,30,yes,1024
94,94,682,682,black,no,experiment,Mozilla,Netscape,"5.0 (Macintosh; Intel Mac OS X 10_14_6) AppleWebKit/537.36 (KHTML, like Gecko) Chrome/92.0.4515.159 Safari/537.36",legacy,legacy,legacy,0,uniform,1,1,right,30,30,30,30,0,0,0,30,30,0,0,0,30,30,30,0,0,30,30,0,29-08-21,29-08-21,11:44:41,Wed Sep 29 2021 11:44:41 GMT+0200 (Centraleuropæisk sommertid),The main experiment item,yes,0,0,/Users/ethan/Documents/GitHub/OpenSesame/Sternberg/experiment_files,0,0,0,no,mono,no,18,no,white,no,no,768,43,3.6.1,legacy,legacy,3 5 4 7,osweb,1.4.0,1,1,y,36,,0,right,,,right,right,right,right,522,,,18006,20661,14319,522,2,legacy,900,1440,24,900,24,0,0,1440,1632908657731,4,1024,2,48000,-16,experiment,1,odd,MacIntel,3,234063,,,230813,40,231842,182671,39,18054,110255,236080,232847,236612,40,236080,Sternberg_updated,29,21134,31,yes,1024
94,94,681,681,black,no,experiment,Mozilla,Netscape,"5.0 (Macintosh; Intel Mac OS X 10_14_6) AppleWebKit/537.36 (KHTML, like Gecko) Chrome/92.0.4515.159 Safari/537.36",legacy,legacy,legacy,0,uniform,1,1,left,31,31,31,31,0,0,0,31,31,0,0,0,31,31,31,0,0,31,31,0,29-08-21,29-08-21,11:44:41,Wed Sep 29 2021 11:44:41 GMT+0200 (Centraleuropæisk sommertid),The main experiment item,yes,0,0,/Users/ethan/Documents/GitHub/OpenSesame/Sternberg/experiment_files,0,0,0,no,mono,no,18,no,white,no,no,768,43,3.6.1,legacy,legacy,8 4 3 9,osweb,1.4.0,1,0,n,36,,0,left,,,right,right,right,left,664,,,18006,20661,14319,664,2,legacy,900,1440,24,900,24,0,0,1440,1632908657731,4,1024,2,48000,-16,experiment,1,odd,MacIntel,5,239852,,,236613,40,237631,182671,39,18054,110255,241868,238635,242534,40,241868,Sternberg_updated,30,21798,32,yes,1024
94,94,678,678,black,no,experiment,Mozilla,Netscape,"5.0 (Macintosh; Intel Mac OS X 10_14_6) AppleWebKit/537.36 (KHTML, like Gecko) Chrome/92.0.4515.159 Safari/537.36",legacy,legacy,legacy,0,uniform,1,1,left,32,32,32,32,0,0,0,32,32,0,0,0,32,32,32,0,0,32,32,0,29-08-21,29-08-21,11:44:41,Wed Sep 29 2021 11:44:41 GMT+0200 (Centraleuropæisk sommertid),The main experiment item,yes,0,0,/Users/ethan/Documents/GitHub/OpenSesame/Sternberg/experiment_files,0,0,0,no,mono,no,18,no,white,no,no,768,43,3.6.1,legacy,legacy,8 5 4 2 9 6,osweb,1.4.0,1,0,n,36,,0,left,,,right,right,right,left,578,,,18006,20661,14319,578,2,legacy,900,1440,24,900,24,0,0,1440,1632908657731,6,1024,2,48000,-16,experiment,1,odd,MacIntel,3,245785,,,242534,40,243563,182671,39,18054,110255,247802,244568,248384,40,247802,Sternberg_updated,31,22376,33,yes,1024
94,94,676,676,black,no,experiment,Mozilla,Netscape,"5.0 (Macintosh; Intel Mac OS X 10_14_6) AppleWebKit/537.36 (KHTML, like Gecko) Chrome/92.0.4515.159 Safari/537.36",legacy,legacy,legacy,0,uniform,1,1,left,33,33,33,33,0,0,0,33,33,0,0,0,33,33,33,0,0,33,33,0,29-08-21,29-08-21,11:44:41,Wed Sep 29 2021 11:44:41 GMT+0200 (Centraleuropæisk sommertid),The main experiment item,yes,0,0,/Users/ethan/Documents/GitHub/OpenSesame/Sternberg/experiment_files,0,0,0,no,mono,no,18,no,white,no,no,768,43,3.6.1,legacy,legacy,1 4 9 3,osweb,1.4.0,1,0,n,36,,0,left,,,right,right,right,left,598,,,18006,20661,14319,598,2,legacy,900,1440,24,900,24,0,0,1440,1632908657731,4,1024,2,48000,-16,experiment,1,odd,MacIntel,5,251623,,,248385,40,249401,182671,39,18054,110255,253640,250407,254239,40,253640,Sternberg_updated,32,22974,34,yes,1024
94,94,673,673,black,no,experiment,Mozilla,Netscape,"5.0 (Macintosh; Intel Mac OS X 10_14_6) AppleWebKit/537.36 (KHTML, like Gecko) Chrome/92.0.4515.159 Safari/537.36",legacy,legacy,legacy,0,uniform,1,1,left,34,34,34,34,0,0,0,34,34,0,0,0,34,34,34,0,0,34,34,0,29-08-21,29-08-21,11:44:41,Wed Sep 29 2021 11:44:41 GMT+0200 (Centraleuropæisk sommertid),The main experiment item,yes,0,0,/Users/ethan/Documents/GitHub/OpenSesame/Sternberg/experiment_files,0,0,0,no,mono,no,18,no,white,no,no,768,43,3.6.1,legacy,legacy,1 6 4 3 9 7,osweb,1.4.0,1,0,n,36,,0,left,,,right,right,right,left,584,,,18006,20661,14319,584,2,legacy,900,1440,24,900,24,0,0,1440,1632908657731,6,1024,2,48000,-16,experiment,1,odd,MacIntel,8,257473,,,254239,40,255252,182671,39,18054,110255,259490,256257,260090,40,259490,Sternberg_updated,33,23558,35,yes,1024
94,94,679,679,black,no,experiment,Mozilla,Netscape,"5.0 (Macintosh; Intel Mac OS X 10_14_6) AppleWebKit/537.36 (KHTML, like Gecko) Chrome/92.0.4515.159 Safari/537.36",legacy,legacy,legacy,0,uniform,1,1,right,35,35,35,35,0,0,0,35,35,0,0,0,35,35,35,0,0,35,35,0,29-08-21,29-08-21,11:44:41,Wed Sep 29 2021 11:44:41 GMT+0200 (Centraleuropæisk sommertid),The main experiment item,yes,0,0,/Users/ethan/Documents/GitHub/OpenSesame/Sternberg/experiment_files,0,0,0,no,mono,no,18,no,white,no,no,768,43,3.6.1,legacy,legacy,9 1 6 7 8,osweb,1.4.0,1,1,y,36,,0,right,,,right,right,right,right,902,,,18006,20661,14319,902,2,legacy,900,1440,24,900,24,0,0,1440,1632908657731,5,1024,2,48000,-16,experiment,1,odd,MacIntel,9,263330,,,260091,40,261110,182671,39,18054,110255,265347,262113,266263,40,265347,Sternberg_updated,34,24460,36,yes,1024
95,95,678,678,black,no,experiment,Mozilla,Netscape,"5.0 (Macintosh; Intel Mac OS X 10_14_6) AppleWebKit/537.36 (KHTML, like Gecko) Chrome/92.0.4515.159 Safari/537.36",legacy,legacy,legacy,0,uniform,1,1,right,36,36,36,36,0,0,0,36,36,0,0,0,36,36,36,0,0,36,36,0,29-08-21,29-08-21,11:44:41,Wed Sep 29 2021 11:44:41 GMT+0200 (Centraleuropæisk sommertid),The main experiment item,yes,0,0,/Users/ethan/Documents/GitHub/OpenSesame/Sternberg/experiment_files,0,0,0,no,mono,no,18,no,white,no,no,768,43,3.6.1,legacy,legacy,6 1 2,osweb,1.4.0,1,3,y,36,,0,right,,,right,right,right,right,613,,,18006,20661,14319,613,2,legacy,900,1440,24,900,24,0,0,1440,1632908657731,3,1024,2,48000,-16,experiment,1,odd,MacIntel,2,269514,,,266264,40,267291,182671,39,18054,110255,271530,268297,272152,40,271530,Sternberg_updated,35,25073,37,yes,1024
95,95,690,690,black,no,experiment,Mozilla,Netscape,"5.0 (Macintosh; Intel Mac OS X 10_14_6) AppleWebKit/537.36 (KHTML, like Gecko) Chrome/92.0.4515.159 Safari/537.36",legacy,legacy,legacy,0,uniform,1,1,right,37,37,37,37,0,0,0,37,37,0,0,0,37,37,37,0,0,37,37,0,29-08-21,29-08-21,11:44:41,Wed Sep 29 2021 11:44:41 GMT+0200 (Centraleuropæisk sommertid),The main experiment item,yes,0,0,/Users/ethan/Documents/GitHub/OpenSesame/Sternberg/experiment_files,0,0,0,no,mono,no,18,no,white,no,no,768,43,3.6.1,legacy,legacy,9 3 8 2 1 4,osweb,1.4.0,1,3,y,36,,0,right,,,right,right,right,right,1163,,,18006,20661,14319,1163,2,legacy,900,1440,24,900,24,0,0,1440,1632908657731,6,1024,2,48000,-16,experiment,1,odd,MacIntel,8,275402,,,272153,40,273181,182671,39,18054,110255,277418,274185,278584,40,277418,Sternberg_updated,36,26236,38,yes,1024
95,95,691,691,black,no,experiment,Mozilla,Netscape,"5.0 (Macintosh; Intel Mac OS X 10_14_6) AppleWebKit/537.36 (KHTML, like Gecko) Chrome/92.0.4515.159 Safari/537.36",legacy,legacy,legacy,0,uniform,1,1,right,38,38,38,38,0,0,0,38,38,0,0,0,38,38,38,0,0,38,38,0,29-08-21,29-08-21,11:44:41,Wed Sep 29 2021 11:44:41 GMT+0200 (Centraleuropæisk sommertid),The main experiment item,yes,0,0,/Users/ethan/Documents/GitHub/OpenSesame/Sternberg/experiment_files,0,0,0,no,mono,no,18,no,white,no,no,768,43,3.6.1,legacy,legacy,5 7 3 6 2,osweb,1.4.0,1,5,y,36,,0,right,,,right,right,right,right,699,,,18006,20661,14319,699,2,legacy,900,1440,24,900,24,0,0,1440,1632908657731,5,1024,2,48000,-16,experiment,1,odd,MacIntel,2,281825,,,278585,40,279614,182671,39,18054,110255,283841,280619,284541,40,283841,Sternberg_updated,37,26935,39,yes,1024
95,95,688,688,black,no,experiment,Mozilla,Netscape,"5.0 (Macintosh; Intel Mac OS X 10_14_6) AppleWebKit/537.36 (KHTML, like Gecko) Chrome/92.0.4515.159 Safari/537.36",legacy,legacy,legacy,0,uniform,1,1,left,39,39,39,39,0,0,0,39,39,0,0,0,39,39,39,0,0,39,39,0,29-08-21,29-08-21,11:44:41,Wed Sep 29 2021 11:44:41 GMT+0200 (Centraleuropæisk sommertid),The main experiment item,yes,0,0,/Users/ethan/Documents/GitHub/OpenSesame/Sternberg/experiment_files,0,0,0,no,mono,no,18,no,white,no,no,768,43,3.6.1,legacy,legacy,2 8 6 3 1,osweb,1.4.0,1,0,n,36,,0,left,,,right,right,right,left,584,,,18006,20661,14319,584,2,legacy,900,1440,24,900,24,0,0,1440,1632908657731,5,1024,2,48000,-16,experiment,1,odd,MacIntel,7,287791,,,284542,40,285571,182671,39,18054,110255,289809,286575,290408,40,289809,Sternberg_updated,38,27519,40,yes,1024
95,95,687,687,black,no,experiment,Mozilla,Netscape,"5.0 (Macintosh; Intel Mac OS X 10_14_6) AppleWebKit/537.36 (KHTML, like Gecko) Chrome/92.0.4515.159 Safari/537.36",legacy,legacy,legacy,0,uniform,1,1,right,40,40,40,40,0,0,0,40,40,0,0,0,40,40,40,0,0,40,40,0,29-08-21,29-08-21,11:44:41,Wed Sep 29 2021 11:44:41 GMT+0200 (Centraleuropæisk sommertid),The main experiment item,yes,0,0,/Users/ethan/Documents/GitHub/OpenSesame/Sternberg/experiment_files,0,0,0,no,mono,no,18,no,white,no,no,768,43,3.6.1,legacy,legacy,3 9 7 6 4,osweb,1.4.0,1,3,y,36,,0,right,,,right,right,right,right,651,,,18006,20661,14319,651,2,legacy,900,1440,24,900,24,0,0,1440,1632908657731,5,1024,2,48000,-16,experiment,1,odd,MacIntel,7,293646,,,290409,40,291426,182671,39,18054,110255,295647,292431,296313,40,295647,Sternberg_updated,39,28170,41,yes,1024
95,95,685,685,black,no,experiment,Mozilla,Netscape,"5.0 (Macintosh; Intel Mac OS X 10_14_6) AppleWebKit/537.36 (KHTML, like Gecko) Chrome/92.0.4515.159 Safari/537.36",legacy,legacy,legacy,0,uniform,1,1,left,41,41,41,41,0,0,0,41,41,0,0,0,41,41,41,0,0,41,41,0,29-08-21,29-08-21,11:44:41,Wed Sep 29 2021 11:44:41 GMT+0200 (Centraleuropæisk sommertid),The main experiment item,yes,0,0,/Users/ethan/Documents/GitHub/OpenSesame/Sternberg/experiment_files,0,0,0,no,mono,no,18,no,white,no,no,768,43,3.6.1,legacy,legacy,2 6 4 3 9,osweb,1.4.0,1,0,n,36,,0,left,,,right,right,right,left,595,,,18006,20661,14319,595,2,legacy,900,1440,24,900,24,0,0,1440,1632908657731,5,1024,2,48000,-16,experiment,1,odd,MacIntel,1,299563,,,296314,40,297343,182671,39,18054,110255,301564,298347,302163,40,301564,Sternberg_updated,40,28765,42,yes,1024
95,95,680,680,black,no,experiment,Mozilla,Netscape,"5.0 (Macintosh; Intel Mac OS X 10_14_6) AppleWebKit/537.36 (KHTML, like Gecko) Chrome/92.0.4515.159 Safari/537.36",legacy,legacy,legacy,0,uniform,1,1,left,42,42,42,42,0,0,0,42,42,0,0,0,42,42,42,0,0,42,42,0,29-08-21,29-08-21,11:44:41,Wed Sep 29 2021 11:44:41 GMT+0200 (Centraleuropæisk sommertid),The main experiment item,yes,0,0,/Users/ethan/Documents/GitHub/OpenSesame/Sternberg/experiment_files,0,0,0,no,mono,no,18,no,white,no,no,768,43,3.6.1,legacy,legacy,6 8,osweb,1.4.0,1,0,n,36,,0,left,,,right,right,right,left,487,,,18006,20661,14319,487,2,legacy,900,1440,24,900,24,0,0,1440,1632908657731,2,1024,2,48000,-16,experiment,1,odd,MacIntel,9,305402,,,302163,40,303182,182671,39,18054,110255,307419,304185,307918,40,307419,Sternberg_updated,41,29252,43,yes,1024
95,95,675,675,black,no,experiment,Mozilla,Netscape,"5.0 (Macintosh; Intel Mac OS X 10_14_6) AppleWebKit/537.36 (KHTML, like Gecko) Chrome/92.0.4515.159 Safari/537.36",legacy,legacy,legacy,0,uniform,1,1,right,43,43,43,43,0,0,0,43,43,0,0,0,43,43,43,0,0,43,43,0,29-08-21,29-08-21,11:44:41,Wed Sep 29 2021 11:44:41 GMT+0200 (Centraleuropæisk sommertid),The main experiment item,yes,0,0,/Users/ethan/Documents/GitHub/OpenSesame/Sternberg/experiment_files,0,0,0,no,mono,no,18,no,white,no,no,768,43,3.6.1,legacy,legacy,6 9 7 4 5 1,osweb,1.4.0,1,2,y,36,,0,right,,,right,right,right,right,428,,,18006,20661,14319,428,2,legacy,900,1440,24,900,24,0,0,1440,1632908657731,6,1024,2,48000,-16,experiment,1,odd,MacIntel,9,311168,,,307919,40,308949,182671,39,18054,110255,313185,309952,313617,40,313185,Sternberg_updated,42,29680,44,yes,1024
96,96,675,675,black,no,experiment,Mozilla,Netscape,"5.0 (Macintosh; Intel Mac OS X 10_14_6) AppleWebKit/537.36 (KHTML, like Gecko) Chrome/92.0.4515.159 Safari/537.36",legacy,legacy,legacy,0,uniform,1,1,left,44,44,44,44,0,0,0,44,44,0,0,0,44,44,44,0,0,44,44,0,29-08-21,29-08-21,11:44:41,Wed Sep 29 2021 11:44:41 GMT+0200 (Centraleuropæisk sommertid),The main experiment item,yes,0,0,/Users/ethan/Documents/GitHub/OpenSesame/Sternberg/experiment_files,0,0,0,no,mono,no,18,no,white,no,no,768,43,3.6.1,legacy,legacy,7 6 4 8 1 2,osweb,1.4.0,1,0,n,36,,0,left,,,right,right,right,left,685,,,18006,20661,14319,685,2,legacy,900,1440,24,900,24,0,0,1440,1632908657731,6,1024,2,48000,-16,experiment,1,odd,MacIntel,9,316856,,,313618,40,314636,182671,39,18054,110255,318874,315641,319573,40,318874,Sternberg_updated,43,30365,45,yes,1024
96,96,669,669,black,no,experiment,Mozilla,Netscape,"5.0 (Macintosh; Intel Mac OS X 10_14_6) AppleWebKit/537.36 (KHTML, like Gecko) Chrome/92.0.4515.159 Safari/537.36",legacy,legacy,legacy,0,uniform,1,1,right,45,45,45,45,0,0,0,45,45,0,0,0,45,45,45,0,0,45,45,0,29-08-21,29-08-21,11:44:41,Wed Sep 29 2021 11:44:41 GMT+0200 (Centraleuropæisk sommertid),The main experiment item,yes,0,0,/Users/ethan/Documents/GitHub/OpenSesame/Sternberg/experiment_files,0,0,0,no,mono,no,18,no,white,no,no,768,43,3.6.1,legacy,legacy,4,osweb,1.4.0,1,1,y,36,,0,right,,,right,right,right,right,397,,,18006,20661,14319,397,2,legacy,900,1440,24,900,24,0,0,1440,1632908657731,1,1024,2,48000,-16,experiment,1,odd,MacIntel,4,322823,,,319574,40,320602,182671,39,18054,110255,324841,321607,325238,40,324841,Sternberg_updated,44,30762,46,yes,1024
94,94,671,671,black,no,experiment,Mozilla,Netscape,"5.0 (Macintosh; Intel Mac OS X 10_14_6) AppleWebKit/537.36 (KHTML, like Gecko) Chrome/92.0.4515.159 Safari/537.36",legacy,legacy,legacy,0,uniform,0,0,left,46,46,46,46,0,0,0,46,46,0,0,0,46,46,46,0,0,46,46,0,29-08-21,29-08-21,11:44:41,Wed Sep 29 2021 11:44:41 GMT+0200 (Centraleuropæisk sommertid),The main experiment item,yes,0,0,/Users/ethan/Documents/GitHub/OpenSesame/Sternberg/experiment_files,0,0,0,no,mono,no,18,no,white,no,no,768,43,3.6.1,legacy,legacy,9 7 4 5 8,osweb,1.4.0,1,0,n,36,,0,right,,,right,right,right,right,775,,,18006,20661,14319,775,2,legacy,900,1440,24,900,24,0,0,1440,1632908657731,5,1024,2,48000,-16,experiment,1,odd,MacIntel,6,328464,,,325239,40,326259,182671,39,18054,110255,330481,327263,331264,40,330481,Sternberg_updated,44,31537,47,yes,1024
94,94,672,672,black,no,experiment,Mozilla,Netscape,"5.0 (Macintosh; Intel Mac OS X 10_14_6) AppleWebKit/537.36 (KHTML, like Gecko) Chrome/92.0.4515.159 Safari/537.36",legacy,legacy,legacy,0,uniform,1,1,right,47,47,47,47,0,0,0,47,47,0,0,0,47,47,47,0,0,47,47,0,29-08-21,29-08-21,11:44:41,Wed Sep 29 2021 11:44:41 GMT+0200 (Centraleuropæisk sommertid),The main experiment item,yes,0,0,/Users/ethan/Documents/GitHub/OpenSesame/Sternberg/experiment_files,0,0,0,no,mono,no,18,no,white,no,no,768,43,3.6.1,legacy,legacy,5 2 6,osweb,1.4.0,1,2,y,36,,0,right,,,right,right,right,right,719,,,18006,20661,14319,719,2,legacy,900,1440,24,900,24,0,0,1440,1632908657731,3,1024,2,48000,-16,experiment,1,odd,MacIntel,2,334513,,,325239,40,332294,331265,39,18054,110255,336531,333298,337263,40,336531,Sternberg_updated,45,32256,48,yes,1024
94,94,677,677,black,no,experiment,Mozilla,Netscape,"5.0 (Macintosh; Intel Mac OS X 10_14_6) AppleWebKit/537.36 (KHTML, like Gecko) Chrome/92.0.4515.159 Safari/537.36",legacy,legacy,legacy,0,uniform,1,1,right,48,48,48,48,0,0,0,48,48,0,0,0,48,48,48,0,0,48,48,0,29-08-21,29-08-21,11:44:41,Wed Sep 29 2021 11:44:41 GMT+0200 (Centraleuropæisk sommertid),The main experiment item,yes,0,0,/Users/ethan/Documents/GitHub/OpenSesame/Sternberg/experiment_files,0,0,0,no,mono,no,18,no,white,no,no,768,43,3.6.1,legacy,legacy,8 9 6 1,osweb,1.4.0,1,2,y,36,,0,right,,,right,right,right,right,918,,,18006,20661,14319,918,2,legacy,900,1440,24,900,24,0,0,1440,1632908657731,4,1024,2,48000,-16,experiment,1,odd,MacIntel,9,340501,,,337264,40,338281,331265,39,18054,110255,342518,339285,343451,40,342518,Sternberg_updated,46,33174,49,yes,1024
94,94,681,681,black,no,experiment,Mozilla,Netscape,"5.0 (Macintosh; Intel Mac OS X 10_14_6) AppleWebKit/537.36 (KHTML, like Gecko) Chrome/92.0.4515.159 Safari/537.36",legacy,legacy,legacy,0,uniform,1,1,left,49,49,49,49,0,0,0,49,49,0,0,0,49,49,49,0,0,49,49,0,29-08-21,29-08-21,11:44:41,Wed Sep 29 2021 11:44:41 GMT+0200 (Centraleuropæisk sommertid),The main experiment item,yes,0,0,/Users/ethan/Documents/GitHub/OpenSesame/Sternberg/experiment_files,0,0,0,no,mono,no,18,no,white,no,no,768,43,3.6.1,legacy,legacy,6 9 7 3 8 2,osweb,1.4.0,1,0,n,36,,0,left,,,right,right,right,left,858,,,18006,20661,14319,858,2,legacy,900,1440,24,900,24,0,0,1440,1632908657731,6,1024,2,48000,-16,experiment,1,odd,MacIntel,5,346700,,,343451,40,344480,331265,39,18054,110255,348718,345485,349588,40,348718,Sternberg_updated,47,34032,50,yes,1024
94,94,677,677,black,no,experiment,Mozilla,Netscape,"5.0 (Macintosh; Intel Mac OS X 10_14_6) AppleWebKit/537.36 (KHTML, like Gecko) Chrome/92.0.4515.159 Safari/537.36",legacy,legacy,legacy,0,uniform,1,1,right,50,50,50,50,0,0,0,50,50,0,0,0,50,50,50,0,0,50,50,0,29-08-21,29-08-21,11:44:41,Wed Sep 29 2021 11:44:41 GMT+0200 (Centraleuropæisk sommertid),The main experiment item,yes,0,0,/Users/ethan/Documents/GitHub/OpenSesame/Sternberg/experiment_files,0,0,0,no,mono,no,18,no,white,no,no,768,43,3.6.1,legacy,legacy,7 1 3,osweb,1.4.0,1,2,y,36,,0,right,,,right,right,right,right,473,,,18006,20661,14319,473,2,legacy,900,1440,24,900,24,0,0,1440,1632908657731,3,1024,2,48000,-16,experiment,1,odd,MacIntel,1,352856,,,349589,40,350621,331265,39,18054,110255,354872,351638,355355,40,354872,Sternberg_updated,48,34505,51,yes,1024
94,94,673,673,black,no,experiment,Mozilla,Netscape,"5.0 (Macintosh; Intel Mac OS X 10_14_6) AppleWebKit/537.36 (KHTML, like Gecko) Chrome/92.0.4515.159 Safari/537.36",legacy,legacy,legacy,0,uniform,1,1,left,51,51,51,51,0,0,0,51,51,0,0,0,51,51,51,0,0,51,51,0,29-08-21,29-08-21,11:44:41,Wed Sep 29 2021 11:44:41 GMT+0200 (Centraleuropæisk sommertid),The main experiment item,yes,0,0,/Users/ethan/Documents/GitHub/OpenSesame/Sternberg/experiment_files,0,0,0,no,mono,no,18,no,white,no,no,768,43,3.6.1,legacy,legacy,6 7 5 9,osweb,1.4.0,1,0,n,36,,0,left,,,right,right,right,left,480,,,18006,20661,14319,480,2,legacy,900,1440,24,900,24,0,0,1440,1632908657731,4,1024,2,48000,-16,experiment,1,odd,MacIntel,2,358605,,,355356,40,356386,331265,39,18054,110255,360610,357389,361092,40,360610,Sternberg_updated,49,34985,52,yes,1024
94,94,669,669,black,no,experiment,Mozilla,Netscape,"5.0 (Macintosh; Intel Mac OS X 10_14_6) AppleWebKit/537.36 (KHTML, like Gecko) Chrome/92.0.4515.159 Safari/537.36",legacy,legacy,legacy,0,uniform,1,1,right,52,52,52,52,0,0,0,52,52,0,0,0,52,52,52,0,0,52,52,0,29-08-21,29-08-21,11:44:41,Wed Sep 29 2021 11:44:41 GMT+0200 (Centraleuropæisk sommertid),The main experiment item,yes,0,0,/Users/ethan/Documents/GitHub/OpenSesame/Sternberg/experiment_files,0,0,0,no,mono,no,18,no,white,no,no,768,43,3.6.1,legacy,legacy,7,osweb,1.4.0,1,1,y,36,,0,right,,,right,right,right,right,487,,,18006,20661,14319,487,2,legacy,900,1440,24,900,24,0,0,1440,1632908657731,1,1024,2,48000,-16,experiment,1,odd,MacIntel,7,364344,,,361093,40,362124,331265,39,18054,110255,366360,363127,366860,40,366360,Sternberg_updated,50,35472,53,yes,1024
94,94,666,666,black,no,experiment,Mozilla,Netscape,"5.0 (Macintosh; Intel Mac OS X 10_14_6) AppleWebKit/537.36 (KHTML, like Gecko) Chrome/92.0.4515.159 Safari/537.36",legacy,legacy,legacy,0,uniform,1,1,right,53,53,53,53,0,0,0,53,53,0,0,0,53,53,53,0,0,53,53,0,29-08-21,29-08-21,11:44:41,Wed Sep 29 2021 11:44:41 GMT+0200 (Centraleuropæisk sommertid),The main experiment item,yes,0,0,/Users/ethan/Documents/GitHub/OpenSesame/Sternberg/experiment_files,0,0,0,no,mono,no,18,no,white,no,no,768,43,3.6.1,legacy,legacy,7 6,osweb,1.4.0,1,2,y,36,,0,right,,,right,right,right,right,506,,,18006,20661,14319,506,2,legacy,900,1440,24,900,24,0,0,1440,1632908657731,2,1024,2,48000,-16,experiment,1,odd,MacIntel,6,370099,,,366861,40,367888,331265,39,18054,110255,372116,368893,372631,40,372116,Sternberg_updated,51,35978,54,yes,1024
95,95,663,663,black,no,experiment,Mozilla,Netscape,"5.0 (Macintosh; Intel Mac OS X 10_14_6) AppleWebKit/537.36 (KHTML, like Gecko) Chrome/92.0.4515.159 Safari/537.36",legacy,legacy,legacy,0,uniform,1,1,right,54,54,54,54,0,0,0,54,54,0,0,0,54,54,54,0,0,54,54,0,29-08-21,29-08-21,11:44:41,Wed Sep 29 2021 11:44:41 GMT+0200 (Centraleuropæisk sommertid),The main experiment item,yes,0,0,/Users/ethan/Documents/GitHub/OpenSesame/Sternberg/experiment_files,0,0,0,no,mono,no,18,no,white,no,no,768,43,3.6.1,legacy,legacy,4 6 2 5 1,osweb,1.4.0,1,5,y,36,,0,right,,,right,right,right,right,496,,,18006,20661,14319,496,2,legacy,900,1440,24,900,24,0,0,1440,1632908657731,5,1024,2,48000,-16,experiment,1,odd,MacIntel,1,375882,,,372634,40,373661,331265,39,18054,110255,377898,374665,378398,40,377898,Sternberg_updated,52,36474,55,yes,1024
95,95,665,665,black,no,experiment,Mozilla,Netscape,"5.0 (Macintosh; Intel Mac OS X 10_14_6) AppleWebKit/537.36 (KHTML, like Gecko) Chrome/92.0.4515.159 Safari/537.36",legacy,legacy,legacy,0,uniform,1,1,right,55,55,55,55,0,0,0,55,55,0,0,0,55,55,55,0,0,55,55,0,29-08-21,29-08-21,11:44:41,Wed Sep 29 2021 11:44:41 GMT+0200 (Centraleuropæisk sommertid),The main experiment item,yes,0,0,/Users/ethan/Documents/GitHub/OpenSesame/Sternberg/experiment_files,0,0,0,no,mono,no,18,no,white,no,no,768,43,3.6.1,legacy,legacy,6 7 8 5,osweb,1.4.0,1,3,y,36,,0,right,right,,right,right,right,right,757,36175,,18006,20661,14319,757,2,legacy,900,1440,24,900,24,0,0,1440,1632908657731,4,1024,2,48000,-16,experiment,1,odd,MacIntel,8,417822,379415,,378399,40,415615,331265,39,18054,110255,419839,416618,420605,40,419838,Sternberg_updated,53,37231,56,yes,1024
95,95,661,661,black,no,experiment,Mozilla,Netscape,"5.0 (Macintosh; Intel Mac OS X 10_14_6) AppleWebKit/537.36 (KHTML, like Gecko) Chrome/92.0.4515.159 Safari/537.36",legacy,legacy,legacy,0,uniform,1,1,left,56,56,56,56,0,0,0,56,56,0,0,0,56,56,56,0,0,56,56,0,29-08-21,29-08-21,11:44:41,Wed Sep 29 2021 11:44:41 GMT+0200 (Centraleuropæisk sommertid),The main experiment item,yes,0,0,/Users/ethan/Documents/GitHub/OpenSesame/Sternberg/experiment_files,0,0,0,no,mono,no,18,no,white,no,no,768,43,3.6.1,legacy,legacy,5 2,osweb,1.4.0,1,0,n,36,,0,left,right,,right,right,right,left,453,36175,,18006,20661,14319,453,2,legacy,900,1440,24,900,24,0,0,1440,1632908657731,2,1024,2,48000,-16,experiment,1,odd,MacIntel,7,423855,379415,,420606,40,421634,331265,39,18054,110255,425872,422639,426339,40,425871,Sternberg_updated,54,37684,57,yes,1024
95,95,661,661,black,no,experiment,Mozilla,Netscape,"5.0 (Macintosh; Intel Mac OS X 10_14_6) AppleWebKit/537.36 (KHTML, like Gecko) Chrome/92.0.4515.159 Safari/537.36",legacy,legacy,legacy,0,uniform,1,1,right,57,57,57,57,0,0,0,57,57,0,0,0,57,57,57,0,0,57,57,0,29-08-21,29-08-21,11:44:41,Wed Sep 29 2021 11:44:41 GMT+0200 (Centraleuropæisk sommertid),The main experiment item,yes,0,0,/Users/ethan/Documents/GitHub/OpenSesame/Sternberg/experiment_files,0,0,0,no,mono,no,18,no,white,no,no,768,43,3.6.1,legacy,legacy,4 9 7 8 5 3,osweb,1.4.0,1,4,y,36,,0,right,right,,right,right,right,right,631,36175,,18006,20661,14319,631,2,legacy,900,1440,24,900,24,0,0,1440,1632908657731,6,1024,2,48000,-16,experiment,1,odd,MacIntel,8,429577,379415,,426340,40,427356,331265,39,18054,110255,431594,428361,432226,40,431594,Sternberg_updated,55,38315,58,yes,1024
95,95,659,659,black,no,experiment,Mozilla,Netscape,"5.0 (Macintosh; Intel Mac OS X 10_14_6) AppleWebKit/537.36 (KHTML, like Gecko) Chrome/92.0.4515.159 Safari/537.36",legacy,legacy,legacy,0,uniform,1,1,left,58,58,58,58,0,0,0,58,58,0,0,0,58,58,58,0,0,58,58,0,29-08-21,29-08-21,11:44:41,Wed Sep 29 2021 11:44:41 GMT+0200 (Centraleuropæisk sommertid),The main experiment item,yes,0,0,/Users/ethan/Documents/GitHub/OpenSesame/Sternberg/experiment_files,0,0,0,no,mono,no,18,no,white,no,no,768,43,3.6.1,legacy,legacy,3 4 9 6 7 8,osweb,1.4.0,1,0,n,36,,0,left,right,,right,right,right,left,595,36175,,18006,20661,14319,595,2,legacy,900,1440,24,900,24,0,0,1440,1632908657731,6,1024,2,48000,-16,experiment,1,odd,MacIntel,2,435460,379415,,432226,40,433240,331265,39,18054,110255,437476,434243,438076,40,437476,Sternberg_updated,56,38910,59,yes,1024
95,95,656,656,black,no,experiment,Mozilla,Netscape,"5.0 (Macintosh; Intel Mac OS X 10_14_6) AppleWebKit/537.36 (KHTML, like Gecko) Chrome/92.0.4515.159 Safari/537.36",legacy,legacy,legacy,0,uniform,1,1,left,59,59,59,59,0,0,0,59,59,0,0,0,59,59,59,0,0,59,59,0,29-08-21,29-08-21,11:44:41,Wed Sep 29 2021 11:44:41 GMT+0200 (Centraleuropæisk sommertid),The main experiment item,yes,0,0,/Users/ethan/Documents/GitHub/OpenSesame/Sternberg/experiment_files,0,0,0,no,mono,no,18,no,white,no,no,768,43,3.6.1,legacy,legacy,7 9,osweb,1.4.0,1,0,n,36,,0,left,right,,right,right,right,left,476,36175,,18006,20661,14319,476,2,legacy,900,1440,24,900,24,0,0,1440,1632908657731,2,1024,2,48000,-16,experiment,1,odd,MacIntel,1,441314,379415,,438077,40,439093,331265,39,18054,110255,443330,440097,443813,40,443330,Sternberg_updated,57,39386,60,yes,1024
95,95,657,657,black,no,experiment,Mozilla,Netscape,"5.0 (Macintosh; Intel Mac OS X 10_14_6) AppleWebKit/537.36 (KHTML, like Gecko) Chrome/92.0.4515.159 Safari/537.36",legacy,legacy,legacy,0,uniform,1,1,right,60,60,60,60,0,0,0,60,60,0,0,0,60,60,60,0,0,60,60,0,29-08-21,29-08-21,11:44:41,Wed Sep 29 2021 11:44:41 GMT+0200 (Centraleuropæisk sommertid),The main experiment item,yes,0,0,/Users/ethan/Documents/GitHub/OpenSesame/Sternberg/experiment_files,0,0,0,no,mono,no,18,no,white,no,no,768,43,3.6.1,legacy,legacy,7 8 6 3 1,osweb,1.4.0,1,5,y,36,,0,right,right,,right,right,right,right,672,36175,,18006,20661,14319,672,2,legacy,900,1440,24,900,24,0,0,1440,1632908657731,5,1024,2,48000,-16,experiment,1,odd,MacIntel,1,447064,379415,,443814,40,444843,331265,39,18054,110255,449081,445847,449764,40,449081,Sternberg_updated,58,40058,61,yes,1024
95,95,656,656,black,no,experiment,Mozilla,Netscape,"5.0 (Macintosh; Intel Mac OS X 10_14_6) AppleWebKit/537.36 (KHTML, like Gecko) Chrome/92.0.4515.159 Safari/537.36",legacy,legacy,legacy,0,uniform,1,1,left,61,61,61,61,0,0,0,61,61,0,0,0,61,61,61,0,0,61,61,0,29-08-21,29-08-21,11:44:41,Wed Sep 29 2021 11:44:41 GMT+0200 (Centraleuropæisk sommertid),The main experiment item,yes,0,0,/Users/ethan/Documents/GitHub/OpenSesame/Sternberg/experiment_files,0,0,0,no,mono,no,18,no,white,no,no,768,43,3.6.1,legacy,legacy,8 4 3 5,osweb,1.4.0,1,0,n,36,,0,left,right,,right,right,right,left,628,36175,,18006,20661,14319,628,2,legacy,900,1440,24,900,24,0,0,1440,1632908657731,4,1024,2,48000,-16,experiment,1,odd,MacIntel,6,453001,379415,,449764,40,450781,331265,39,18054,110255,455017,451784,455650,40,455017,Sternberg_updated,59,40686,62,yes,1024
95,95,656,656,black,no,experiment,Mozilla,Netscape,"5.0 (Macintosh; Intel Mac OS X 10_14_6) AppleWebKit/537.36 (KHTML, like Gecko) Chrome/92.0.4515.159 Safari/537.36",legacy,legacy,legacy,0,uniform,1,1,left,62,62,62,62,0,0,0,62,62,0,0,0,62,62,62,0,0,62,62,0,29-08-21,29-08-21,11:44:41,Wed Sep 29 2021 11:44:41 GMT+0200 (Centraleuropæisk sommertid),The main experiment item,yes,0,0,/Users/ethan/Documents/GitHub/OpenSesame/Sternberg/experiment_files,0,0,0,no,mono,no,18,no,white,no,no,768,43,3.6.1,legacy,legacy,4 2 6 9,osweb,1.4.0,1,0,n,36,,0,left,right,,right,right,right,left,628,36175,,18006,20661,14319,628,2,legacy,900,1440,24,900,24,0,0,1440,1632908657731,4,1024,2,48000,-16,experiment,1,odd,MacIntel,7,458900,379415,,455651,40,456680,331265,39,18054,110255,460917,457684,461549,40,460917,Sternberg_updated,60,41314,63,yes,1024
94,94,658,658,black,no,experiment,Mozilla,Netscape,"5.0 (Macintosh; Intel Mac OS X 10_14_6) AppleWebKit/537.36 (KHTML, like Gecko) Chrome/92.0.4515.159 Safari/537.36",legacy,legacy,legacy,0,uniform,0,0,left,63,63,63,63,0,0,0,63,63,0,0,0,63,63,63,0,0,63,63,0,29-08-21,29-08-21,11:44:41,Wed Sep 29 2021 11:44:41 GMT+0200 (Centraleuropæisk sommertid),The main experiment item,yes,0,0,/Users/ethan/Documents/GitHub/OpenSesame/Sternberg/experiment_files,0,0,0,no,mono,no,18,no,white,no,no,768,43,3.6.1,legacy,legacy,5 3 8 7 2 4,osweb,1.4.0,1,0,n,36,,0,right,right,,right,right,right,right,819,36175,,18006,20661,14319,819,2,legacy,900,1440,24,900,24,0,0,1440,1632908657731,6,1024,2,48000,-16,experiment,1,odd,MacIntel,9,464792,379415,,461550,40,462570,331265,39,18054,110255,466809,463575,467641,40,466809,Sternberg_updated,60,42133,64,yes,1024
94,94,660,660,black,no,experiment,Mozilla,Netscape,"5.0 (Macintosh; Intel Mac OS X 10_14_6) AppleWebKit/537.36 (KHTML, like Gecko) Chrome/92.0.4515.159 Safari/537.36",legacy,legacy,legacy,0,uniform,1,1,left,64,64,64,64,0,0,0,64,64,0,0,0,64,64,64,0,0,64,64,0,29-08-21,29-08-21,11:44:41,Wed Sep 29 2021 11:44:41 GMT+0200 (Centraleuropæisk sommertid),The main experiment item,yes,0,0,/Users/ethan/Documents/GitHub/OpenSesame/Sternberg/experiment_files,0,0,0,no,mono,no,18,no,white,no,no,768,43,3.6.1,legacy,legacy,2 3 8 5 6 7,osweb,1.4.0,1,0,n,36,,0,left,right,,right,right,right,left,768,36175,,18006,20661,14319,768,2,legacy,900,1440,24,900,24,0,0,1440,1632908657731,6,1024,2,48000,-16,experiment,1,odd,MacIntel,1,470891,379415,,461550,40,468670,467642,39,18054,110255,472909,469675,473691,40,472909,Sternberg_updated,61,42901,65,yes,1024
94,94,659,659,black,no,experiment,Mozilla,Netscape,"5.0 (Macintosh; Intel Mac OS X 10_14_6) AppleWebKit/537.36 (KHTML, like Gecko) Chrome/92.0.4515.159 Safari/537.36",legacy,legacy,legacy,0,uniform,1,1,left,65,65,65,65,0,0,0,65,65,0,0,0,65,65,65,0,0,65,65,0,29-08-21,29-08-21,11:44:41,Wed Sep 29 2021 11:44:41 GMT+0200 (Centraleuropæisk sommertid),The main experiment item,yes,0,0,/Users/ethan/Documents/GitHub/OpenSesame/Sternberg/experiment_files,0,0,0,no,mono,no,18,no,white,no,no,768,43,3.6.1,legacy,legacy,1 8 7,osweb,1.4.0,1,0,n,36,,0,left,right,,right,right,right,left,590,36175,,18006,20661,14319,590,2,legacy,900,1440,24,900,24,0,0,1440,1632908657731,3,1024,2,48000,-16,experiment,1,odd,MacIntel,4,476929,379415,,473691,40,474708,467642,39,18054,110255,478946,475712,479546,40,478946,Sternberg_updated,62,43491,66,yes,1024
94,94,661,661,black,no,experiment,Mozilla,Netscape,"5.0 (Macintosh; Intel Mac OS X 10_14_6) AppleWebKit/537.36 (KHTML, like Gecko) Chrome/92.0.4515.159 Safari/537.36",legacy,legacy,legacy,0,uniform,1,1,left,66,66,66,66,0,0,0,66,66,0,0,0,66,66,66,0,0,66,66,0,29-08-21,29-08-21,11:44:41,Wed Sep 29 2021 11:44:41 GMT+0200 (Centraleuropæisk sommertid),The main experiment item,yes,0,0,/Users/ethan/Documents/GitHub/OpenSesame/Sternberg/experiment_files,0,0,0,no,mono,no,18,no,white,no,no,768,43,3.6.1,legacy,legacy,8 5 7 3 6,osweb,1.4.0,1,0,n,36,,0,left,right,,right,right,right,left,825,36175,,18006,20661,14319,825,2,legacy,900,1440,24,900,24,0,0,1440,1632908657731,5,1024,2,48000,-16,experiment,1,odd,MacIntel,9,482795,379415,,479546,40,480574,467642,39,18054,110255,484811,481579,485646,40,484811,Sternberg_updated,63,44316,67,yes,1024
94,94,662,662,black,no,experiment,Mozilla,Netscape,"5.0 (Macintosh; Intel Mac OS X 10_14_6) AppleWebKit/537.36 (KHTML, like Gecko) Chrome/92.0.4515.159 Safari/537.36",legacy,legacy,legacy,0,uniform,1,1,right,67,67,67,67,0,0,0,67,67,0,0,0,67,67,67,0,0,67,67,0,29-08-21,29-08-21,11:44:41,Wed Sep 29 2021 11:44:41 GMT+0200 (Centraleuropæisk sommertid),The main experiment item,yes,0,0,/Users/ethan/Documents/GitHub/OpenSesame/Sternberg/experiment_files,0,0,0,no,mono,no,18,no,white,no,no,768,43,3.6.1,legacy,legacy,5 2 9 6 1 7,osweb,1.4.0,1,3,y,36,,0,right,right,,right,right,right,right,683,36175,,18006,20661,14319,683,2,legacy,900,1440,24,900,24,0,0,1440,1632908657731,6,1024,2,48000,-16,experiment,1,odd,MacIntel,9,488885,379415,,485646,40,486665,467642,39,18054,110255,490903,487669,491601,40,490903,Sternberg_updated,64,44999,68,yes,1024
94,94,663,663,black,no,experiment,Mozilla,Netscape,"5.0 (Macintosh; Intel Mac OS X 10_14_6) AppleWebKit/537.36 (KHTML, like Gecko) Chrome/92.0.4515.159 Safari/537.36",legacy,legacy,legacy,0,uniform,1,1,right,68,68,68,68,0,0,0,68,68,0,0,0,68,68,68,0,0,68,68,0,29-08-21,29-08-21,11:44:41,Wed Sep 29 2021 11:44:41 GMT+0200 (Centraleuropæisk sommertid),The main experiment item,yes,0,0,/Users/ethan/Documents/GitHub/OpenSesame/Sternberg/experiment_files,0,0,0,no,mono,no,18,no,white,no,no,768,43,3.6.1,legacy,legacy,6 8 9 3 4 9,osweb,1.4.0,1,5,y,36,,0,right,right,,right,right,right,right,762,36175,,18006,20661,14319,762,2,legacy,900,1440,24,900,24,0,0,1440,1632908657731,6,1024,2,48000,-16,experiment,1,odd,MacIntel,4,494835,379415,,491601,40,492614,467642,39,18054,110255,496852,493619,497621,40,496852,Sternberg_updated,65,45761,69,yes,1024
94,94,667,667,black,no,experiment,Mozilla,Netscape,"5.0 (Macintosh; Intel Mac OS X 10_14_6) AppleWebKit/537.36 (KHTML, like Gecko) Chrome/92.0.4515.159 Safari/537.36",legacy,legacy,legacy,0,uniform,1,1,right,69,69,69,69,0,0,0,69,69,0,0,0,69,69,69,0,0,69,69,0,29-08-21,29-08-21,11:44:41,Wed Sep 29 2021 11:44:41 GMT+0200 (Centraleuropæisk sommertid),The main experiment item,yes,0,0,/Users/ethan/Documents/GitHub/OpenSesame/Sternberg/experiment_files,0,0,0,no,mono,no,18,no,white,no,no,768,43,3.6.1,legacy,legacy,4 7 6 8 2 3,osweb,1.4.0,1,6,y,36,,0,right,right,,right,right,right,right,903,36175,,18006,20661,14319,903,2,legacy,900,1440,24,900,24,0,0,1440,1632908657731,6,1024,2,48000,-16,experiment,1,odd,MacIntel,3,500872,379415,,497622,40,498651,467642,39,18054,110255,502889,499656,503805,40,502889,Sternberg_updated,66,46664,70,yes,1024
93,93,671,671,black,no,experiment,Mozilla,Netscape,"5.0 (Macintosh; Intel Mac OS X 10_14_6) AppleWebKit/537.36 (KHTML, like Gecko) Chrome/92.0.4515.159 Safari/537.36",legacy,legacy,legacy,0,uniform,0,0,right,70,70,70,70,0,0,0,70,70,0,0,0,70,70,70,0,0,70,70,0,29-08-21,29-08-21,11:44:41,Wed Sep 29 2021 11:44:41 GMT+0200 (Centraleuropæisk sommertid),The main experiment item,yes,0,0,/Users/ethan/Documents/GitHub/OpenSesame/Sternberg/experiment_files,0,0,0,no,mono,no,18,no,white,no,no,768,43,3.6.1,legacy,legacy,2 4 8 5 1 3,osweb,1.4.0,1,1,y,36,,0,left,right,,right,right,right,left,1004,36175,,18006,20661,14319,1004,2,legacy,900,1440,24,900,24,0,0,1440,1632908657731,6,1024,2,48000,-16,experiment,1,odd,MacIntel,2,507056,379415,,503806,40,504836,467642,39,18054,110255,509061,505838,510077,40,509061,Sternberg_updated,66,47668,71,yes,1024
93,93,684,684,black,no,experiment,Mozilla,Netscape,"5.0 (Macintosh; Intel Mac OS X 10_14_6) AppleWebKit/537.36 (KHTML, like Gecko) Chrome/92.0.4515.159 Safari/537.36",legacy,legacy,legacy,0,uniform,1,1,left,71,71,71,71,0,0,0,71,71,0,0,0,71,71,71,0,0,71,71,0,29-08-21,29-08-21,11:44:41,Wed Sep 29 2021 11:44:41 GMT+0200 (Centraleuropæisk sommertid),The main experiment item,yes,0,0,/Users/ethan/Documents/GitHub/OpenSesame/Sternberg/experiment_files,0,0,0,no,mono,no,18,no,white,no,no,768,43,3.6.1,legacy,legacy,4 1,osweb,1.4.0,1,0,n,36,,0,left,right,,right,right,right,left,1564,36175,,18006,20661,14319,1564,2,legacy,900,1440,24,900,24,0,0,1440,1632908657731,2,1024,2,48000,-16,experiment,1,odd,MacIntel,6,513310,379415,,503806,40,511106,510078,39,18054,110255,515327,512109,516893,40,515327,Sternberg_updated,67,49232,72,yes,1024
93,93,683,683,black,no,experiment,Mozilla,Netscape,"5.0 (Macintosh; Intel Mac OS X 10_14_6) AppleWebKit/537.36 (KHTML, like Gecko) Chrome/92.0.4515.159 Safari/537.36",legacy,legacy,legacy,0,uniform,1,1,right,72,72,72,72,0,0,0,72,72,0,0,0,72,72,72,0,0,72,72,0,29-08-21,29-08-21,11:44:41,Wed Sep 29 2021 11:44:41 GMT+0200 (Centraleuropæisk sommertid),The main experiment item,yes,0,0,/Users/ethan/Documents/GitHub/OpenSesame/Sternberg/experiment_files,0,0,0,no,mono,no,18,no,white,no,no,768,43,3.6.1,legacy,legacy,4 3 2 5 8,osweb,1.4.0,1,2,y,36,,0,right,right,,right,right,right,right,626,36175,,18006,20661,14319,626,2,legacy,900,1440,24,900,24,0,0,1440,1632908657731,5,1024,2,48000,-16,experiment,1,odd,MacIntel,3,520149,379415,,516894,40,517922,510078,39,18054,110255,522166,518933,522798,40,522166,Sternberg_updated,68,49858,73,yes,1024
93,93,684,684,black,no,experiment,Mozilla,Netscape,"5.0 (Macintosh; Intel Mac OS X 10_14_6) AppleWebKit/537.36 (KHTML, like Gecko) Chrome/92.0.4515.159 Safari/537.36",legacy,legacy,legacy,0,uniform,1,1,left,73,73,73,73,0,0,0,73,73,0,0,0,73,73,73,0,0,73,73,0,29-08-21,29-08-21,11:44:41,Wed Sep 29 2021 11:44:41 GMT+0200 (Centraleuropæisk sommertid),The main experiment item,yes,0,0,/Users/ethan/Documents/GitHub/OpenSesame/Sternberg/experiment_files,0,0,0,no,mono,no,18,no,white,no,no,768,43,3.6.1,legacy,legacy,3 9 8 1 6 4,osweb,1.4.0,1,0,n,36,,0,left,right,,right,right,right,left,763,36175,,18006,20661,14319,763,2,legacy,900,1440,24,900,24,0,0,1440,1632908657731,6,1024,2,48000,-16,experiment,1,odd,MacIntel,7,526048,379415,,522799,40,523827,510078,39,18054,110255,528066,524833,528832,40,528066,Sternberg_updated,69,50621,74,yes,1024
93,93,684,684,black,no,experiment,Mozilla,Netscape,"5.0 (Macintosh; Intel Mac OS X 10_14_6) AppleWebKit/537.36 (KHTML, like Gecko) Chrome/92.0.4515.159 Safari/537.36",legacy,legacy,legacy,0,uniform,1,1,left,74,74,74,74,0,0,0,74,74,0,0,0,74,74,74,0,0,74,74,0,29-08-21,29-08-21,11:44:41,Wed Sep 29 2021 11:44:41 GMT+0200 (Centraleuropæisk sommertid),The main experiment item,yes,0,0,/Users/ethan/Documents/GitHub/OpenSesame/Sternberg/experiment_files,0,0,0,no,mono,no,18,no,white,no,no,768,43,3.6.1,legacy,legacy,1 6 4,osweb,1.4.0,1,0,n,36,,0,left,right,,right,right,right,left,691,36175,,18006,20661,14319,691,2,legacy,900,1440,24,900,24,0,0,1440,1632908657731,3,1024,2,48000,-16,experiment,1,odd,MacIntel,7,532071,379415,,528833,40,529850,510078,39,18054,110255,534087,530854,534787,40,534087,Sternberg_updated,70,51312,75,yes,1024
93,93,684,684,black,no,experiment,Mozilla,Netscape,"5.0 (Macintosh; Intel Mac OS X 10_14_6) AppleWebKit/537.36 (KHTML, like Gecko) Chrome/92.0.4515.159 Safari/537.36",legacy,legacy,legacy,0,uniform,1,1,right,75,75,75,75,0,0,0,75,75,0,0,0,75,75,75,0,0,75,75,0,29-08-21,29-08-21,11:44:41,Wed Sep 29 2021 11:44:41 GMT+0200 (Centraleuropæisk sommertid),The main experiment item,yes,0,0,/Users/ethan/Documents/GitHub/OpenSesame/Sternberg/experiment_files,0,0,0,no,mono,no,18,no,white,no,no,768,43,3.6.1,legacy,legacy,4 1 5,osweb,1.4.0,1,2,y,36,,0,right,right,,right,right,right,right,663,36175,,18006,20661,14319,663,2,legacy,900,1440,24,900,24,0,0,1440,1632908657731,3,1024,2,48000,-16,experiment,1,odd,MacIntel,1,538037,379415,,534788,40,535816,510078,39,18054,110255,540054,536820,540719,40,540054,Sternberg_updated,71,51975,76,yes,1024
94,94,684,684,black,no,experiment,Mozilla,Netscape,"5.0 (Macintosh; Intel Mac OS X 10_14_6) AppleWebKit/537.36 (KHTML, like Gecko) Chrome/92.0.4515.159 Safari/537.36",legacy,legacy,legacy,0,uniform,1,1,right,76,76,76,76,0,0,0,76,76,0,0,0,76,76,76,0,0,76,76,0,29-08-21,29-08-21,11:44:41,Wed Sep 29 2021 11:44:41 GMT+0200 (Centraleuropæisk sommertid),The main experiment item,yes,0,0,/Users/ethan/Documents/GitHub/OpenSesame/Sternberg/experiment_files,0,0,0,no,mono,no,18,no,white,no,no,768,43,3.6.1,legacy,legacy,3 4,osweb,1.4.0,1,1,y,36,,0,right,right,,right,right,right,right,725,36175,,18006,20661,14319,725,2,legacy,900,1440,24,900,24,0,0,1440,1632908657731,2,1024,2,48000,-16,experiment,1,odd,MacIntel,3,543958,379415,,540720,40,541738,510078,39,18054,110255,545962,542743,546692,40,545962,Sternberg_updated,72,52700,77,yes,1024
94,94,684,684,black,no,experiment,Mozilla,Netscape,"5.0 (Macintosh; Intel Mac OS X 10_14_6) AppleWebKit/537.36 (KHTML, like Gecko) Chrome/92.0.4515.159 Safari/537.36",legacy,legacy,legacy,0,uniform,1,1,left,77,77,77,77,0,0,0,77,77,0,0,0,77,77,77,0,0,77,77,0,29-08-21,29-08-21,11:44:41,Wed Sep 29 2021 11:44:41 GMT+0200 (Centraleuropæisk sommertid),The main experiment item,yes,0,0,/Users/ethan/Documents/GitHub/OpenSesame/Sternberg/experiment_files,0,0,0,no,mono,no,18,no,white,no,no,768,43,3.6.1,legacy,legacy,7 1 5 6 3,osweb,1.4.0,1,0,n,36,,0,left,right,,right,right,right,left,664,36175,,18006,20661,14319,664,2,legacy,900,1440,24,900,24,0,0,1440,1632908657731,5,1024,2,48000,-16,experiment,1,odd,MacIntel,8,549943,379415,,546693,40,547722,510078,39,18054,110255,551960,548727,552625,40,551960,Sternberg_updated,73,53364,78,yes,1024
94,94,685,685,black,no,experiment,Mozilla,Netscape,"5.0 (Macintosh; Intel Mac OS X 10_14_6) AppleWebKit/537.36 (KHTML, like Gecko) Chrome/92.0.4515.159 Safari/537.36",legacy,legacy,legacy,0,uniform,1,1,left,78,78,78,78,0,0,0,78,78,0,0,0,78,78,78,0,0,78,78,0,29-08-21,29-08-21,11:44:41,Wed Sep 29 2021 11:44:41 GMT+0200 (Centraleuropæisk sommertid),The main experiment item,yes,0,0,/Users/ethan/Documents/GitHub/OpenSesame/Sternberg/experiment_files,0,0,0,no,mono,no,18,no,white,no,no,768,43,3.6.1,legacy,legacy,2 7 5,osweb,1.4.0,1,0,n,36,,0,left,right,,right,right,right,left,773,36175,,18006,20661,14319,773,2,legacy,900,1440,24,900,24,0,0,1440,1632908657731,3,1024,2,48000,-16,experiment,1,odd,MacIntel,8,555864,379415,,552626,40,553643,510078,39,18054,110255,557881,554648,558663,40,557881,Sternberg_updated,74,54137,79,yes,1024
94,94,691,691,black,no,experiment,Mozilla,Netscape,"5.0 (Macintosh; Intel Mac OS X 10_14_6) AppleWebKit/537.36 (KHTML, like Gecko) Chrome/92.0.4515.159 Safari/537.36",legacy,legacy,legacy,0,uniform,1,1,right,79,79,79,79,0,0,0,79,79,0,0,0,79,79,79,0,0,79,79,0,29-08-21,29-08-21,11:44:41,Wed Sep 29 2021 11:44:41 GMT+0200 (Centraleuropæisk sommertid),The main experiment item,yes,0,0,/Users/ethan/Documents/GitHub/OpenSesame/Sternberg/experiment_files,0,0,0,no,mono,no,18,no,white,no,no,768,43,3.6.1,legacy,legacy,3 5 9 6 2 4,osweb,1.4.0,1,1,y,36,,0,right,right,,right,right,right,right,1145,36175,,18006,20661,14319,1145,2,legacy,900,1440,24,900,24,0,0,1440,1632908657731,6,1024,2,48000,-16,experiment,1,odd,MacIntel,3,561897,379415,,558663,40,559678,510078,39,18054,110255,563914,560682,565064,40,563914,Sternberg_updated,75,55282,80,yes,1024
94,94,692,692,black,no,experiment,Mozilla,Netscape,"5.0 (Macintosh; Intel Mac OS X 10_14_6) AppleWebKit/537.36 (KHTML, like Gecko) Chrome/92.0.4515.159 Safari/537.36",legacy,legacy,legacy,0,uniform,1,1,left,80,80,80,80,0,0,0,80,80,0,0,0,80,80,80,0,0,80,80,0,29-08-21,29-08-21,11:44:41,Wed Sep 29 2021 11:44:41 GMT+0200 (Centraleuropæisk sommertid),The main experiment item,yes,0,0,/Users/ethan/Documents/GitHub/OpenSesame/Sternberg/experiment_files,0,0,0,no,mono,no,18,no,white,no,no,768,43,3.6.1,legacy,legacy,7 1 8 4 9 3,osweb,1.4.0,1,0,n,36,,0,left,right,,right,right,right,left,758,36175,,18006,20661,14319,758,2,legacy,900,1440,24,900,24,0,0,1440,1632908657731,6,1024,2,48000,-16,experiment,1,odd,MacIntel,6,568303,379415,,565065,40,566082,510078,39,18054,110255,570319,567086,571085,40,570319,Sternberg_updated,76,56040,81,yes,1024
94,94,695,695,black,no,experiment,Mozilla,Netscape,"5.0 (Macintosh; Intel Mac OS X 10_14_6) AppleWebKit/537.36 (KHTML, like Gecko) Chrome/92.0.4515.159 Safari/537.36",legacy,legacy,legacy,0,uniform,1,1,left,81,81,81,81,0,0,0,81,81,0,0,0,81,81,81,0,0,81,81,0,29-08-21,29-08-21,11:44:41,Wed Sep 29 2021 11:44:41 GMT+0200 (Centraleuropæisk sommertid),The main experiment item,yes,0,0,/Users/ethan/Documents/GitHub/OpenSesame/Sternberg/experiment_files,0,0,0,no,mono,no,18,no,white,no,no,768,43,3.6.1,legacy,legacy,7 8 6 1,osweb,1.4.0,1,0,n,36,,0,left,right,,right,right,right,left,970,36175,,18006,20661,14319,970,2,legacy,900,1440,24,900,24,0,0,1440,1632908657731,4,1024,2,48000,-16,experiment,1,odd,MacIntel,3,574336,379415,,571086,40,572115,510078,39,18054,110255,576352,573119,577323,40,576352,Sternberg_updated,77,57010,82,yes,1024
94,94,695,695,black,no,experiment,Mozilla,Netscape,"5.0 (Macintosh; Intel Mac OS X 10_14_6) AppleWebKit/537.36 (KHTML, like Gecko) Chrome/92.0.4515.159 Safari/537.36",legacy,legacy,legacy,0,uniform,1,1,right,82,82,82,82,0,0,0,82,82,0,0,0,82,82,82,0,0,82,82,0,29-08-21,29-08-21,11:44:41,Wed Sep 29 2021 11:44:41 GMT+0200 (Centraleuropæisk sommertid),The main experiment item,yes,0,0,/Users/ethan/Documents/GitHub/OpenSesame/Sternberg/experiment_files,0,0,0,no,mono,no,18,no,white,no,no,768,43,3.6.1,legacy,legacy,8 1 6,osweb,1.4.0,1,3,y,36,,0,right,right,,right,right,right,right,689,36175,,18006,20661,14319,689,2,legacy,900,1440,24,900,24,0,0,1440,1632908657731,3,1024,2,48000,-16,experiment,1,odd,MacIntel,6,580574,379415,,577324,40,578356,510078,39,18054,110255,582591,579358,583291,40,582591,Sternberg_updated,78,57699,83,yes,1024
94,94,696,696,black,no,experiment,Mozilla,Netscape,"5.0 (Macintosh; Intel Mac OS X 10_14_6) AppleWebKit/537.36 (KHTML, like Gecko) Chrome/92.0.4515.159 Safari/537.36",legacy,legacy,legacy,0,uniform,1,1,left,83,83,83,83,0,0,0,83,83,0,0,0,83,83,83,0,0,83,83,0,29-08-21,29-08-21,11:44:41,Wed Sep 29 2021 11:44:41 GMT+0200 (Centraleuropæisk sommertid),The main experiment item,yes,0,0,/Users/ethan/Documents/GitHub/OpenSesame/Sternberg/experiment_files,0,0,0,no,mono,no,18,no,white,no,no,768,43,3.6.1,legacy,legacy,7 1,osweb,1.4.0,1,0,n,36,,0,left,right,,right,right,right,left,739,36175,,18006,20661,14319,739,2,legacy,900,1440,24,900,24,0,0,1440,1632908657731,2,1024,2,48000,-16,experiment,1,odd,MacIntel,8,586541,379415,,583291,40,584320,510078,39,18054,110255,588549,585325,589299,40,588549,Sternberg_updated,79,58438,84,yes,1024
94,94,692,692,black,no,experiment,Mozilla,Netscape,"5.0 (Macintosh; Intel Mac OS X 10_14_6) AppleWebKit/537.36 (KHTML, like Gecko) Chrome/92.0.4515.159 Safari/537.36",legacy,legacy,legacy,0,uniform,1,1,right,84,84,84,84,0,0,0,84,84,0,0,0,84,84,84,0,0,84,84,0,29-08-21,29-08-21,11:44:41,Wed Sep 29 2021 11:44:41 GMT+0200 (Centraleuropæisk sommertid),The main experiment item,yes,0,0,/Users/ethan/Documents/GitHub/OpenSesame/Sternberg/experiment_files,0,0,0,no,mono,no,18,no,white,no,no,768,43,3.6.1,legacy,legacy,8,osweb,1.4.0,1,1,y,36,,0,right,right,,right,right,right,right,364,36175,,18006,20661,14319,364,2,legacy,900,1440,24,900,24,0,0,1440,1632908657731,1,1024,2,48000,-16,experiment,1,odd,MacIntel,8,592548,379415,,589299,40,590328,510078,39,18054,110255,594565,591332,594930,40,594565,Sternberg_updated,80,58802,85,yes,1024
94,94,691,691,black,no,experiment,Mozilla,Netscape,"5.0 (Macintosh; Intel Mac OS X 10_14_6) AppleWebKit/537.36 (KHTML, like Gecko) Chrome/92.0.4515.159 Safari/537.36",legacy,legacy,legacy,0,uniform,1,1,right,85,85,85,85,0,0,0,85,85,0,0,0,85,85,85,0,0,85,85,0,29-08-21,29-08-21,11:44:41,Wed Sep 29 2021 11:44:41 GMT+0200 (Centraleuropæisk sommertid),The main experiment item,yes,0,0,/Users/ethan/Documents/GitHub/OpenSesame/Sternberg/experiment_files,0,0,0,no,mono,no,18,no,white,no,no,768,43,3.6.1,legacy,legacy,2 6 1 7 4,osweb,1.4.0,1,2,y,36,,0,right,right,,right,right,right,right,581,36175,,18006,20661,14319,581,2,legacy,900,1440,24,900,24,0,0,1440,1632908657731,5,1024,2,48000,-16,experiment,1,odd,MacIntel,6,598171,379415,,594931,40,595961,510078,39,18054,110255,600187,596965,600770,40,600187,Sternberg_updated,81,59383,86,yes,1024
94,94,690,690,black,no,experiment,Mozilla,Netscape,"5.0 (Macintosh; Intel Mac OS X 10_14_6) AppleWebKit/537.36 (KHTML, like Gecko) Chrome/92.0.4515.159 Safari/537.36",legacy,legacy,legacy,0,uniform,1,1,left,86,86,86,86,0,0,0,86,86,0,0,0,86,86,86,0,0,86,86,0,29-08-21,29-08-21,11:44:41,Wed Sep 29 2021 11:44:41 GMT+0200 (Centraleuropæisk sommertid),The main experiment item,yes,0,0,/Users/ethan/Documents/GitHub/OpenSesame/Sternberg/experiment_files,0,0,0,no,mono,no,18,no,white,no,no,768,43,3.6.1,legacy,legacy,1 7 8 3 9,osweb,1.4.0,1,0,n,36,,0,left,right,,right,right,right,left,633,36175,,18006,20661,14319,633,2,legacy,900,1440,24,900,24,0,0,1440,1632908657731,5,1024,2,48000,-16,experiment,1,odd,MacIntel,2,604021,379415,,600770,40,601801,510078,39,18054,110255,606037,602804,606687,40,606037,Sternberg_updated,82,60016,87,yes,1024
94,94,689,689,black,no,experiment,Mozilla,Netscape,"5.0 (Macintosh; Intel Mac OS X 10_14_6) AppleWebKit/537.36 (KHTML, like Gecko) Chrome/92.0.4515.159 Safari/537.36",legacy,legacy,legacy,0,uniform,1,1,left,87,87,87,87,0,0,0,87,87,0,0,0,87,87,87,0,0,87,87,0,29-08-21,29-08-21,11:44:41,Wed Sep 29 2021 11:44:41 GMT+0200 (Centraleuropæisk sommertid),The main experiment item,yes,0,0,/Users/ethan/Documents/GitHub/OpenSesame/Sternberg/experiment_files,0,0,0,no,mono,no,18,no,white,no,no,768,43,3.6.1,legacy,legacy,1 5 3 2 8,osweb,1.4.0,1,0,n,36,,0,left,right,,right,right,right,left,632,36175,,18006,20661,14319,632,2,legacy,900,1440,24,900,24,0,0,1440,1632908657731,5,1024,2,48000,-16,experiment,1,odd,MacIntel,4,609926,379415,,606688,40,607704,510078,39,18054,110255,611942,608709,612575,40,611942,Sternberg_updated,83,60648,88,yes,1024
94,94,687,687,black,no,experiment,Mozilla,Netscape,"5.0 (Macintosh; Intel Mac OS X 10_14_6) AppleWebKit/537.36 (KHTML, like Gecko) Chrome/92.0.4515.159 Safari/537.36",legacy,legacy,legacy,0,uniform,1,1,left,88,88,88,88,0,0,0,88,88,0,0,0,88,88,88,0,0,88,88,0,29-08-21,29-08-21,11:44:41,Wed Sep 29 2021 11:44:41 GMT+0200 (Centraleuropæisk sommertid),The main experiment item,yes,0,0,/Users/ethan/Documents/GitHub/OpenSesame/Sternberg/experiment_files,0,0,0,no,mono,no,18,no,white,no,no,768,43,3.6.1,legacy,legacy,9,osweb,1.4.0,1,0,n,36,,0,left,right,,right,right,right,left,451,36175,,18006,20661,14319,451,2,legacy,900,1440,24,900,24,0,0,1440,1632908657731,1,1024,2,48000,-16,experiment,1,odd,MacIntel,6,615825,379415,,612575,40,613605,510078,39,18054,110255,617842,614609,618308,40,617842,Sternberg_updated,84,61099,89,yes,1024
94,94,685,685,black,no,experiment,Mozilla,Netscape,"5.0 (Macintosh; Intel Mac OS X 10_14_6) AppleWebKit/537.36 (KHTML, like Gecko) Chrome/92.0.4515.159 Safari/537.36",legacy,legacy,legacy,0,uniform,1,1,left,89,89,89,89,0,0,0,89,89,0,0,0,89,89,89,0,0,89,89,0,29-08-21,29-08-21,11:44:41,Wed Sep 29 2021 11:44:41 GMT+0200 (Centraleuropæisk sommertid),The main experiment item,yes,0,0,/Users/ethan/Documents/GitHub/OpenSesame/Sternberg/experiment_files,0,0,0,no,mono,no,18,no,white,no,no,768,43,3.6.1,legacy,legacy,1 4 9 2 5,osweb,1.4.0,1,0,n,36,,0,left,right,,right,right,right,left,566,36175,,18006,20661,14319,566,2,legacy,900,1440,24,900,24,0,0,1440,1632908657731,5,1024,2,48000,-16,experiment,1,odd,MacIntel,7,621546,379415,,618309,40,619326,510078,39,18054,110255,623548,620330,624130,40,623548,Sternberg_updated,85,61665,90,yes,1024
95,95,683,683,black,no,experiment,Mozilla,Netscape,"5.0 (Macintosh; Intel Mac OS X 10_14_6) AppleWebKit/537.36 (KHTML, like Gecko) Chrome/92.0.4515.159 Safari/537.36",legacy,legacy,legacy,0,uniform,1,1,right,90,90,90,90,0,0,0,90,90,0,0,0,90,90,90,0,0,90,90,0,29-08-21,29-08-21,11:44:41,Wed Sep 29 2021 11:44:41 GMT+0200 (Centraleuropæisk sommertid),The main experiment item,yes,0,0,/Users/ethan/Documents/GitHub/OpenSesame/Sternberg/experiment_files,0,0,0,no,mono,no,18,no,white,no,no,768,43,3.6.1,legacy,legacy,3 5 7 1,osweb,1.4.0,1,3,y,36,,0,right,right,,right,right,right,right,487,36175,,18006,20661,14319,487,2,legacy,900,1440,24,900,24,0,0,1440,1632908657731,4,1024,2,48000,-16,experiment,1,odd,MacIntel,7,627380,379415,,624131,40,625159,510078,39,18054,110255,629396,626163,629896,40,629396,Sternberg_updated,86,62152,91,yes,1024
93,93,686,686,black,no,experiment,Mozilla,Netscape,"5.0 (Macintosh; Intel Mac OS X 10_14_6) AppleWebKit/537.36 (KHTML, like Gecko) Chrome/92.0.4515.159 Safari/537.36",legacy,legacy,legacy,0,uniform,0,0,right,91,91,91,91,0,0,0,91,91,0,0,0,91,91,91,0,0,91,91,0,29-08-21,29-08-21,11:44:41,Wed Sep 29 2021 11:44:41 GMT+0200 (Centraleuropæisk sommertid),The main experiment item,yes,0,0,/Users/ethan/Documents/GitHub/OpenSesame/Sternberg/experiment_files,0,0,0,no,mono,no,18,no,white,no,no,768,43,3.6.1,legacy,legacy,9 3 1 2 5,osweb,1.4.0,1,4,y,36,,0,left,right,,right,right,right,left,939,36175,,18006,20661,14319,939,2,legacy,900,1440,24,900,24,0,0,1440,1632908657731,5,1024,2,48000,-16,experiment,1,odd,MacIntel,2,633136,379415,,629897,40,630917,510078,39,18054,110255,635152,631919,636102,40,635152,Sternberg_updated,86,63091,92,yes,1024
94,94,686,686,black,no,experiment,Mozilla,Netscape,"5.0 (Macintosh; Intel Mac OS X 10_14_6) AppleWebKit/537.36 (KHTML, like Gecko) Chrome/92.0.4515.159 Safari/537.36",legacy,legacy,legacy,0,uniform,1,1,left,92,92,92,92,0,0,0,92,92,0,0,0,92,92,92,0,0,92,92,0,29-08-21,29-08-21,11:44:41,Wed Sep 29 2021 11:44:41 GMT+0200 (Centraleuropæisk sommertid),The main experiment item,yes,0,0,/Users/ethan/Documents/GitHub/OpenSesame/Sternberg/experiment_files,0,0,0,no,mono,no,18,no,white,no,no,768,43,3.6.1,legacy,legacy,1,osweb,1.4.0,1,0,n,36,,0,left,right,,right,right,right,left,718,36175,,18006,20661,14319,718,2,legacy,900,1440,24,900,24,0,0,1440,1632908657731,1,1024,2,48000,-16,experiment,1,odd,MacIntel,7,639352,379415,,629897,40,637131,636102,39,18054,110255,641369,638135,642101,40,641369,Sternberg_updated,87,63809,93,yes,1024
94,94,685,685,black,no,experiment,Mozilla,Netscape,"5.0 (Macintosh; Intel Mac OS X 10_14_6) AppleWebKit/537.36 (KHTML, like Gecko) Chrome/92.0.4515.159 Safari/537.36",legacy,legacy,legacy,0,uniform,1,1,right,93,93,93,93,0,0,0,93,93,0,0,0,93,93,93,0,0,93,93,0,29-08-21,29-08-21,11:44:41,Wed Sep 29 2021 11:44:41 GMT+0200 (Centraleuropæisk sommertid),The main experiment item,yes,0,0,/Users/ethan/Documents/GitHub/OpenSesame/Sternberg/experiment_files,0,0,0,no,mono,no,18,no,white,no,no,768,43,3.6.1,legacy,legacy,9 5 3 8 4,osweb,1.4.0,1,1,y,36,,0,right,right,,right,right,right,right,566,36175,,18006,20661,14319,566,2,legacy,900,1440,24,900,24,0,0,1440,1632908657731,5,1024,2,48000,-16,experiment,1,odd,MacIntel,9,645342,379415,,642102,40,643121,636102,39,18054,110255,647359,644126,647942,40,647359,Sternberg_updated,88,64375,94,yes,1024
94,94,683,683,black,no,experiment,Mozilla,Netscape,"5.0 (Macintosh; Intel Mac OS X 10_14_6) AppleWebKit/537.36 (KHTML, like Gecko) Chrome/92.0.4515.159 Safari/537.36",legacy,legacy,legacy,0,uniform,1,1,left,94,94,94,94,0,0,0,94,94,0,0,0,94,94,94,0,0,94,94,0,29-08-21,29-08-21,11:44:41,Wed Sep 29 2021 11:44:41 GMT+0200 (Centraleuropæisk sommertid),The main experiment item,yes,0,0,/Users/ethan/Documents/GitHub/OpenSesame/Sternberg/experiment_files,0,0,0,no,mono,no,18,no,white,no,no,768,43,3.6.1,legacy,legacy,6 2 9 3 8 4,osweb,1.4.0,1,0,n,36,,0,left,right,,right,right,right,left,518,36175,,18006,20661,14319,518,2,legacy,900,1440,24,900,24,0,0,1440,1632908657731,6,1024,2,48000,-16,experiment,1,odd,MacIntel,1,651191,379415,,647943,40,648971,636102,39,18054,110255,653192,649976,653725,40,653192,Sternberg_updated,89,64893,95,yes,1024
94,94,682,682,black,no,experiment,Mozilla,Netscape,"5.0 (Macintosh; Intel Mac OS X 10_14_6) AppleWebKit/537.36 (KHTML, like Gecko) Chrome/92.0.4515.159 Safari/537.36",legacy,legacy,legacy,0,uniform,1,1,left,95,95,95,95,0,0,0,95,95,0,0,0,95,95,95,0,0,95,95,0,29-08-21,29-08-21,11:44:41,Wed Sep 29 2021 11:44:41 GMT+0200 (Centraleuropæisk sommertid),The main experiment item,yes,0,0,/Users/ethan/Documents/GitHub/OpenSesame/Sternberg/experiment_files,0,0,0,no,mono,no,18,no,white,no,no,768,43,3.6.1,legacy,legacy,4 8 1 2,osweb,1.4.0,1,0,n,36,,0,left,right,,right,right,right,left,610,36175,,18006,20661,14319,610,2,legacy,900,1440,24,900,24,0,0,1440,1632908657731,4,1024,2,48000,-16,experiment,1,odd,MacIntel,7,656963,379415,,653726,40,654744,636102,39,18054,110255,658980,655747,659597,40,658980,Sternberg_updated,90,65503,96,yes,1024
94,94,680,680,black,no,experiment,Mozilla,Netscape,"5.0 (Macintosh; Intel Mac OS X 10_14_6) AppleWebKit/537.36 (KHTML, like Gecko) Chrome/92.0.4515.159 Safari/537.36",legacy,legacy,legacy,0,uniform,1,1,right,96,96,96,96,0,0,0,96,96,0,0,0,96,96,96,0,0,96,96,0,29-08-21,29-08-21,11:44:41,Wed Sep 29 2021 11:44:41 GMT+0200 (Centraleuropæisk sommertid),The main experiment item,yes,0,0,/Users/ethan/Documents/GitHub/OpenSesame/Sternberg/experiment_files,0,0,0,no,mono,no,18,no,white,no,no,768,43,3.6.1,legacy,legacy,7 4 2 6 3 5,osweb,1.4.0,1,6,y,36,,0,right,right,,right,right,right,right,458,36175,,18006,20661,14319,458,2,legacy,900,1440,24,900,24,0,0,1440,1632908657731,6,1024,2,48000,-16,experiment,1,odd,MacIntel,5,662847,379415,,659597,40,660626,636102,39,18054,110255,664862,661630,665330,40,664862,Sternberg_updated,91,65961,97,yes,1024
94,94,679,679,black,no,experiment,Mozilla,Netscape,"5.0 (Macintosh; Intel Mac OS X 10_14_6) AppleWebKit/537.36 (KHTML, like Gecko) Chrome/92.0.4515.159 Safari/537.36",legacy,legacy,legacy,0,uniform,1,1,right,97,97,97,97,0,0,0,97,97,0,0,0,97,97,97,0,0,97,97,0,29-08-21,29-08-21,11:44:41,Wed Sep 29 2021 11:44:41 GMT+0200 (Centraleuropæisk sommertid),The main experiment item,yes,0,0,/Users/ethan/Documents/GitHub/OpenSesame/Sternberg/experiment_files,0,0,0,no,mono,no,18,no,white,no,no,768,43,3.6.1,legacy,legacy,3 9 6 2,osweb,1.4.0,1,4,y,36,,0,right,right,right,right,right,right,right,572,36175,47332,18006,20661,14319,572,2,legacy,900,1440,24,900,24,0,0,1440,1632908657731,4,1024,2,48000,-16,experiment,1,odd,MacIntel,2,715908,379415,666335,665330,40,713695,636102,39,18054,110255,717910,714700,718492,40,717910,Sternberg_updated,92,66533,98,yes,1024
94,94,677,677,black,no,experiment,Mozilla,Netscape,"5.0 (Macintosh; Intel Mac OS X 10_14_6) AppleWebKit/537.36 (KHTML, like Gecko) Chrome/92.0.4515.159 Safari/537.36",legacy,legacy,legacy,0,uniform,1,1,left,98,98,98,98,0,0,0,98,98,0,0,0,98,98,98,0,0,98,98,0,29-08-21,29-08-21,11:44:41,Wed Sep 29 2021 11:44:41 GMT+0200 (Centraleuropæisk sommertid),The main experiment item,yes,0,0,/Users/ethan/Documents/GitHub/OpenSesame/Sternberg/experiment_files,0,0,0,no,mono,no,18,no,white,no,no,768,43,3.6.1,legacy,legacy,8 6 3 4 7,osweb,1.4.0,1,0,n,36,,0,left,right,right,right,right,right,left,470,36175,47332,18006,20661,14319,470,2,legacy,900,1440,24,900,24,0,0,1440,1632908657731,5,1024,2,48000,-16,experiment,1,odd,MacIntel,1,721742,379415,666335,718493,40,719521,636102,39,18054,110255,723760,720526,724242,40,723760,Sternberg_updated,93,67003,99,yes,1024
94,94,674,674,black,no,experiment,Mozilla,Netscape,"5.0 (Macintosh; Intel Mac OS X 10_14_6) AppleWebKit/537.36 (KHTML, like Gecko) Chrome/92.0.4515.159 Safari/537.36",legacy,legacy,legacy,0,uniform,1,1,left,99,99,99,99,0,0,0,99,99,0,0,0,99,99,99,0,0,99,99,0,29-08-21,29-08-21,11:44:41,Wed Sep 29 2021 11:44:41 GMT+0200 (Centraleuropæisk sommertid),The main experiment item,yes,0,0,/Users/ethan/Documents/GitHub/OpenSesame/Sternberg/experiment_files,0,0,0,no,mono,no,18,no,white,no,no,768,43,3.6.1,legacy,legacy,8 9,osweb,1.4.0,1,0,n,36,,0,left,right,right,right,right,right,left,428,36175,47332,18006,20661,14319,428,2,legacy,900,1440,24,900,24,0,0,1440,1632908657731,2,1024,2,48000,-16,experiment,1,odd,MacIntel,5,727480,379415,666335,724243,40,725259,636102,39,18054,110255,729482,726265,729914,40,729482,Sternberg_updated,94,67431,100,yes,1024
94,94,672,672,black,no,experiment,Mozilla,Netscape,"5.0 (Macintosh; Intel Mac OS X 10_14_6) AppleWebKit/537.36 (KHTML, like Gecko) Chrome/92.0.4515.159 Safari/537.36",legacy,legacy,legacy,0,uniform,1,1,right,100,100,100,100,0,0,0,100,100,0,0,0,100,100,100,0,0,100,100,0,29-08-21,29-08-21,11:44:41,Wed Sep 29 2021 11:44:41 GMT+0200 (Centraleuropæisk sommertid),The main experiment item,yes,0,0,/Users/ethan/Documents/GitHub/OpenSesame/Sternberg/experiment_files,0,0,0,no,mono,no,18,no,white,no,no,768,43,3.6.1,legacy,legacy,7 2 3,osweb,1.4.0,1,3,y,36,,0,right,right,right,right,right,right,right,478,36175,47332,18006,20661,14319,478,2,legacy,900,1440,24,900,24,0,0,1440,1632908657731,3,1024,2,48000,-16,experiment,1,odd,MacIntel,3,733164,379415,666335,729915,40,730944,636102,39,18054,110255,735181,731948,735664,40,735181,Sternberg_updated,95,67909,101,yes,1024
94,94,671,671,black,no,experiment,Mozilla,Netscape,"5.0 (Macintosh; Intel Mac OS X 10_14_6) AppleWebKit/537.36 (KHTML, like Gecko) Chrome/92.0.4515.159 Safari/537.36",legacy,legacy,legacy,0,uniform,1,1,left,101,101,101,101,0,0,0,101,101,0,0,0,101,101,101,0,0,101,101,0,29-08-21,29-08-21,11:44:41,Wed Sep 29 2021 11:44:41 GMT+0200 (Centraleuropæisk sommertid),The main experiment item,yes,0,0,/Users/ethan/Documents/GitHub/OpenSesame/Sternberg/experiment_files,0,0,0,no,mono,no,18,no,white,no,no,768,43,3.6.1,legacy,legacy,5 3 2 6 9 8,osweb,1.4.0,1,0,n,36,,0,left,right,right,right,right,right,left,562,36175,47332,18006,20661,14319,562,2,legacy,900,1440,24,900,24,0,0,1440,1632908657731,6,1024,2,48000,-16,experiment,1,odd,MacIntel,4,738901,379415,666335,735665,40,736680,636102,39,18054,110255,740917,737685,741483,40,740917,Sternberg_updated,96,68471,102,yes,1024
94,94,672,672,black,no,experiment,Mozilla,Netscape,"5.0 (Macintosh; Intel Mac OS X 10_14_6) AppleWebKit/537.36 (KHTML, like Gecko) Chrome/92.0.4515.159 Safari/537.36",legacy,legacy,legacy,0,uniform,1,1,right,102,102,102,102,0,0,0,102,102,0,0,0,102,102,102,0,0,102,102,0,29-08-21,29-08-21,11:44:41,Wed Sep 29 2021 11:44:41 GMT+0200 (Centraleuropæisk sommertid),The main experiment item,yes,0,0,/Users/ethan/Documents/GitHub/OpenSesame/Sternberg/experiment_files,0,0,0,no,mono,no,18,no,white,no,no,768,43,3.6.1,legacy,legacy,3 2 1 4 7,osweb,1.4.0,1,2,y,36,,0,right,right,right,right,right,right,right,741,36175,47332,18006,20661,14319,741,2,legacy,900,1440,24,900,24,0,0,1440,1632908657731,5,1024,2,48000,-16,experiment,1,odd,MacIntel,2,744734,379415,666335,741484,40,742513,636102,39,18054,110255,746751,743518,747500,40,746751,Sternberg_updated,97,69212,103,yes,1024
94,94,671,671,black,no,experiment,Mozilla,Netscape,"5.0 (Macintosh; Intel Mac OS X 10_14_6) AppleWebKit/537.36 (KHTML, like Gecko) Chrome/92.0.4515.159 Safari/537.36",legacy,legacy,legacy,0,uniform,1,1,left,103,103,103,103,0,0,0,103,103,0,0,0,103,103,103,0,0,103,103,0,29-08-21,29-08-21,11:44:41,Wed Sep 29 2021 11:44:41 GMT+0200 (Centraleuropæisk sommertid),The main experiment item,yes,0,0,/Users/ethan/Documents/GitHub/OpenSesame/Sternberg/experiment_files,0,0,0,no,mono,no,18,no,white,no,no,768,43,3.6.1,legacy,legacy,5 7 3,osweb,1.4.0,1,0,n,36,,0,left,right,right,right,right,right,left,622,36175,47332,18006,20661,14319,622,2,legacy,900,1440,24,900,24,0,0,1440,1632908657731,3,1024,2,48000,-16,experiment,1,odd,MacIntel,9,750742,379415,666335,747501,40,748520,636102,39,18054,110255,752759,749526,753391,40,752759,Sternberg_updated,98,69834,104,yes,1024
94,94,670,670,black,no,experiment,Mozilla,Netscape,"5.0 (Macintosh; Intel Mac OS X 10_14_6) AppleWebKit/537.36 (KHTML, like Gecko) Chrome/92.0.4515.159 Safari/537.36",legacy,legacy,legacy,0,uniform,1,1,left,104,104,104,104,0,0,0,104,104,0,0,0,104,104,104,0,0,104,104,0,29-08-21,29-08-21,11:44:41,Wed Sep 29 2021 11:44:41 GMT+0200 (Centraleuropæisk sommertid),The main experiment item,yes,0,0,/Users/ethan/Documents/GitHub/OpenSesame/Sternberg/experiment_files,0,0,0,no,mono,no,18,no,white,no,no,768,43,3.6.1,legacy,legacy,9 8 2 7 4,osweb,1.4.0,1,0,n,36,,0,left,right,right,right,right,right,left,542,36175,47332,18006,20661,14319,542,2,legacy,900,1440,24,900,24,0,0,1440,1632908657731,5,1024,2,48000,-16,experiment,1,odd,MacIntel,5,756641,379415,666335,753393,40,754421,636102,39,18054,110255,758658,755425,759208,40,758658,Sternberg_updated,99,70376,105,yes,1024
94,94,670,670,black,no,experiment,Mozilla,Netscape,"5.0 (Macintosh; Intel Mac OS X 10_14_6) AppleWebKit/537.36 (KHTML, like Gecko) Chrome/92.0.4515.159 Safari/537.36",legacy,legacy,legacy,0,uniform,1,1,left,105,105,105,105,0,0,0,105,105,0,0,0,105,105,105,0,0,105,105,0,29-08-21,29-08-21,11:44:41,Wed Sep 29 2021 11:44:41 GMT+0200 (Centraleuropæisk sommertid),The main experiment item,yes,0,0,/Users/ethan/Documents/GitHub/OpenSesame/Sternberg/experiment_files,0,0,0,no,mono,no,18,no,white,no,no,768,43,3.6.1,legacy,legacy,2 5 1 4,osweb,1.4.0,1,0,n,36,,0,left,right,right,right,right,right,left,689,36175,47332,18006,20661,14319,689,2,legacy,900,1440,24,900,24,0,0,1440,1632908657731,4,1024,2,48000,-16,experiment,1,odd,MacIntel,6,762447,379415,666335,759208,40,760227,636102,39,18054,110255,764464,761230,765163,40,764464,Sternberg_updated,100,71065,106,yes,1024
94,94,668,668,black,no,experiment,Mozilla,Netscape,"5.0 (Macintosh; Intel Mac OS X 10_14_6) AppleWebKit/537.36 (KHTML, like Gecko) Chrome/92.0.4515.159 Safari/537.36",legacy,legacy,legacy,0,uniform,1,1,right,106,106,106,106,0,0,0,106,106,0,0,0,106,106,106,0,0,106,106,0,29-08-21,29-08-21,11:44:41,Wed Sep 29 2021 11:44:41 GMT+0200 (Centraleuropæisk sommertid),The main experiment item,yes,0,0,/Users/ethan/Documents/GitHub/OpenSesame/Sternberg/experiment_files,0,0,0,no,mono,no,18,no,white,no,no,768,43,3.6.1,legacy,legacy,5 7 8 2 3 8,osweb,1.4.0,1,5,y,36,,0,right,right,right,right,right,right,right,421,36175,47332,18006,20661,14319,421,2,legacy,900,1440,24,900,24,0,0,1440,1632908657731,6,1024,2,48000,-16,experiment,1,odd,MacIntel,3,768413,379415,666335,765164,40,766192,636102,39,18054,110255,770429,767196,770862,40,770429,Sternberg_updated,101,71486,107,yes,1024
94,94,667,667,black,no,experiment,Mozilla,Netscape,"5.0 (Macintosh; Intel Mac OS X 10_14_6) AppleWebKit/537.36 (KHTML, like Gecko) Chrome/92.0.4515.159 Safari/537.36",legacy,legacy,legacy,0,uniform,1,1,left,107,107,107,107,0,0,0,107,107,0,0,0,107,107,107,0,0,107,107,0,29-08-21,29-08-21,11:44:41,Wed Sep 29 2021 11:44:41 GMT+0200 (Centraleuropæisk sommertid),The main experiment item,yes,0,0,/Users/ethan/Documents/GitHub/OpenSesame/Sternberg/experiment_files,0,0,0,no,mono,no,18,no,white,no,no,768,43,3.6.1,legacy,legacy,1 4 3 6 5,osweb,1.4.0,1,0,n,36,,0,left,right,right,right,right,right,left,511,36175,47332,18006,20661,14319,511,2,legacy,900,1440,24,900,24,0,0,1440,1632908657731,5,1024,2,48000,-16,experiment,1,odd,MacIntel,8,774101,379415,666335,770863,40,771880,636102,39,18054,110255,776118,772884,776634,40,776118,Sternberg_updated,102,71997,108,yes,1024
94,94,667,667,black,no,experiment,Mozilla,Netscape,"5.0 (Macintosh; Intel Mac OS X 10_14_6) AppleWebKit/537.36 (KHTML, like Gecko) Chrome/92.0.4515.159 Safari/537.36",legacy,legacy,legacy,0,uniform,1,1,right,108,108,108,108,0,0,0,108,108,0,0,0,108,108,108,0,0,108,108,0,29-08-21,29-08-21,11:44:41,Wed Sep 29 2021 11:44:41 GMT+0200 (Centraleuropæisk sommertid),The main experiment item,yes,0,0,/Users/ethan/Documents/GitHub/OpenSesame/Sternberg/experiment_files,0,0,0,no,mono,no,18,no,white,no,no,768,43,3.6.1,legacy,legacy,8 5 4 7 3 1,osweb,1.4.0,1,2,y,36,,0,right,right,right,right,right,right,right,692,36175,47332,18006,20661,14319,692,2,legacy,900,1440,24,900,24,0,0,1440,1632908657731,6,1024,2,48000,-16,experiment,1,odd,MacIntel,5,779901,379415,666335,776635,40,777669,636102,39,18054,110255,781917,778685,782617,40,781917,Sternberg_updated,103,72689,109,yes,1024
95,95,666,666,black,no,experiment,Mozilla,Netscape,"5.0 (Macintosh; Intel Mac OS X 10_14_6) AppleWebKit/537.36 (KHTML, like Gecko) Chrome/92.0.4515.159 Safari/537.36",legacy,legacy,legacy,0,uniform,1,1,right,109,109,109,109,0,0,0,109,109,0,0,0,109,109,109,0,0,109,109,0,29-08-21,29-08-21,11:44:41,Wed Sep 29 2021 11:44:41 GMT+0200 (Centraleuropæisk sommertid),The main experiment item,yes,0,0,/Users/ethan/Documents/GitHub/OpenSesame/Sternberg/experiment_files,0,0,0,no,mono,no,18,no,white,no,no,768,43,3.6.1,legacy,legacy,9 5 8 1,osweb,1.4.0,1,2,y,36,,0,right,right,right,right,right,right,right,588,36175,47332,18006,20661,14319,588,2,legacy,900,1440,24,900,24,0,0,1440,1632908657731,4,1024,2,48000,-16,experiment,1,odd,MacIntel,5,785859,379415,666335,782618,40,783638,636102,39,18054,110255,787876,784643,788475,40,787876,Sternberg_updated,104,73277,110,yes,1024
95,95,666,666,black,no,experiment,Mozilla,Netscape,"5.0 (Macintosh; Intel Mac OS X 10_14_6) AppleWebKit/537.36 (KHTML, like Gecko) Chrome/92.0.4515.159 Safari/537.36",legacy,legacy,legacy,0,uniform,1,1,right,110,110,110,110,0,0,0,110,110,0,0,0,110,110,110,0,0,110,110,0,29-08-21,29-08-21,11:44:41,Wed Sep 29 2021 11:44:41 GMT+0200 (Centraleuropæisk sommertid),The main experiment item,yes,0,0,/Users/ethan/Documents/GitHub/OpenSesame/Sternberg/experiment_files,0,0,0,no,mono,no,18,no,white,no,no,768,43,3.6.1,legacy,legacy,2 5 4 8 7,osweb,1.4.0,1,3,y,36,,0,right,right,right,right,right,right,right,670,36175,47332,18006,20661,14319,670,2,legacy,900,1440,24,900,24,0,0,1440,1632908657731,5,1024,2,48000,-16,experiment,1,odd,MacIntel,4,791725,379415,666335,788476,40,789504,636102,39,18054,110255,793742,790508,794425,40,793742,Sternberg_updated,105,73947,111,yes,1024
95,95,667,667,black,no,experiment,Mozilla,Netscape,"5.0 (Macintosh; Intel Mac OS X 10_14_6) AppleWebKit/537.36 (KHTML, like Gecko) Chrome/92.0.4515.159 Safari/537.36",legacy,legacy,legacy,0,uniform,1,1,right,111,111,111,111,0,0,0,111,111,0,0,0,111,111,111,0,0,111,111,0,29-08-21,29-08-21,11:44:41,Wed Sep 29 2021 11:44:41 GMT+0200 (Centraleuropæisk sommertid),The main experiment item,yes,0,0,/Users/ethan/Documents/GitHub/OpenSesame/Sternberg/experiment_files,0,0,0,no,mono,no,18,no,white,no,no,768,43,3.6.1,legacy,legacy,9 6 2 4 1,osweb,1.4.0,1,4,y,36,,0,right,right,right,right,right,right,right,719,36175,47332,18006,20661,14319,719,2,legacy,900,1440,24,900,24,0,0,1440,1632908657731,5,1024,2,48000,-16,experiment,1,odd,MacIntel,4,797663,379415,666335,794426,40,795441,636102,39,18054,110255,799680,796446,800413,40,799680,Sternberg_updated,106,74666,112,yes,1024
94,94,665,665,black,no,experiment,Mozilla,Netscape,"5.0 (Macintosh; Intel Mac OS X 10_14_6) AppleWebKit/537.36 (KHTML, like Gecko) Chrome/92.0.4515.159 Safari/537.36",legacy,legacy,legacy,0,uniform,0,0,left,112,112,112,112,0,0,0,112,112,0,0,0,112,112,112,0,0,112,112,0,29-08-21,29-08-21,11:44:41,Wed Sep 29 2021 11:44:41 GMT+0200 (Centraleuropæisk sommertid),The main experiment item,yes,0,0,/Users/ethan/Documents/GitHub/OpenSesame/Sternberg/experiment_files,0,0,0,no,mono,no,18,no,white,no,no,768,43,3.6.1,legacy,legacy,6 9 4 5 2,osweb,1.4.0,1,0,n,36,,0,right,right,right,right,right,right,right,481,36175,47332,18006,20661,14319,481,2,legacy,900,1440,24,900,24,0,0,1440,1632908657731,5,1024,2,48000,-16,experiment,1,odd,MacIntel,1,803663,379415,666335,800413,40,801442,636102,39,18054,110255,805679,802446,806162,40,805679,Sternberg_updated,106,75147,113,yes,1024
94,94,665,665,black,no,experiment,Mozilla,Netscape,"5.0 (Macintosh; Intel Mac OS X 10_14_6) AppleWebKit/537.36 (KHTML, like Gecko) Chrome/92.0.4515.159 Safari/537.36",legacy,legacy,legacy,0,uniform,1,1,left,113,113,113,113,0,0,0,113,113,0,0,0,113,113,113,0,0,113,113,0,29-08-21,29-08-21,11:44:41,Wed Sep 29 2021 11:44:41 GMT+0200 (Centraleuropæisk sommertid),The main experiment item,yes,0,0,/Users/ethan/Documents/GitHub/OpenSesame/Sternberg/experiment_files,0,0,0,no,mono,no,18,no,white,no,no,768,43,3.6.1,legacy,legacy,7 3 2 8,osweb,1.4.0,1,0,n,36,,0,left,right,right,right,right,right,left,629,36175,47332,18006,20661,14319,629,2,legacy,900,1440,24,900,24,0,0,1440,1632908657731,4,1024,2,48000,-16,experiment,1,odd,MacIntel,4,809406,379415,666335,800413,40,807185,806163,39,18054,110255,811422,808190,812054,40,811422,Sternberg_updated,107,75776,114,yes,1024
94,94,664,664,black,no,experiment,Mozilla,Netscape,"5.0 (Macintosh; Intel Mac OS X 10_14_6) AppleWebKit/537.36 (KHTML, like Gecko) Chrome/92.0.4515.159 Safari/537.36",legacy,legacy,legacy,0,uniform,1,1,left,114,114,114,114,0,0,0,114,114,0,0,0,114,114,114,0,0,114,114,0,29-08-21,29-08-21,11:44:41,Wed Sep 29 2021 11:44:41 GMT+0200 (Centraleuropæisk sommertid),The main experiment item,yes,0,0,/Users/ethan/Documents/GitHub/OpenSesame/Sternberg/experiment_files,0,0,0,no,mono,no,18,no,white,no,no,768,43,3.6.1,legacy,legacy,7 9 1 6,osweb,1.4.0,1,0,n,36,,0,left,right,right,right,right,right,left,604,36175,47332,18006,20661,14319,604,2,legacy,900,1440,24,900,24,0,0,1440,1632908657731,4,1024,2,48000,-16,experiment,1,odd,MacIntel,4,815289,379415,666335,812055,40,813068,806163,39,18054,110255,817305,814073,817922,40,817305,Sternberg_updated,108,76380,115,yes,1024
94,94,665,665,black,no,experiment,Mozilla,Netscape,"5.0 (Macintosh; Intel Mac OS X 10_14_6) AppleWebKit/537.36 (KHTML, like Gecko) Chrome/92.0.4515.159 Safari/537.36",legacy,legacy,legacy,0,uniform,1,1,left,115,115,115,115,0,0,0,115,115,0,0,0,115,115,115,0,0,115,115,0,29-08-21,29-08-21,11:44:41,Wed Sep 29 2021 11:44:41 GMT+0200 (Centraleuropæisk sommertid),The main experiment item,yes,0,0,/Users/ethan/Documents/GitHub/OpenSesame/Sternberg/experiment_files,0,0,0,no,mono,no,18,no,white,no,no,768,43,3.6.1,legacy,legacy,2 8 7 9 5 3,osweb,1.4.0,1,0,n,36,,0,left,right,right,right,right,right,left,767,36175,47332,18006,20661,14319,767,2,legacy,900,1440,24,900,24,0,0,1440,1632908657731,6,1024,2,48000,-16,experiment,1,odd,MacIntel,6,821160,379415,666335,817923,40,818939,806163,39,18054,110255,823176,819943,823958,40,823176,Sternberg_updated,109,77147,116,yes,1024
94,94,672,672,black,no,experiment,Mozilla,Netscape,"5.0 (Macintosh; Intel Mac OS X 10_14_6) AppleWebKit/537.36 (KHTML, like Gecko) Chrome/92.0.4515.159 Safari/537.36",legacy,legacy,legacy,0,uniform,1,1,left,116,116,116,116,0,0,0,116,116,0,0,0,116,116,116,0,0,116,116,0,29-08-21,29-08-21,11:44:41,Wed Sep 29 2021 11:44:41 GMT+0200 (Centraleuropæisk sommertid),The main experiment item,yes,0,0,/Users/ethan/Documents/GitHub/OpenSesame/Sternberg/experiment_files,0,0,0,no,mono,no,18,no,white,no,no,768,43,3.6.1,legacy,legacy,6 3 1 7 9 8,osweb,1.4.0,1,0,n,36,,0,left,right,right,right,right,right,left,1449,36175,47332,18006,20661,14319,1449,2,legacy,900,1440,24,900,24,0,0,1440,1632908657731,6,1024,2,48000,-16,experiment,1,odd,MacIntel,4,827209,379415,666335,823959,40,824990,806163,39,18054,110255,829231,825993,830692,40,829231,Sternberg_updated,110,78596,117,yes,1024
94,94,671,671,black,no,experiment,Mozilla,Netscape,"5.0 (Macintosh; Intel Mac OS X 10_14_6) AppleWebKit/537.36 (KHTML, like Gecko) Chrome/92.0.4515.159 Safari/537.36",legacy,legacy,legacy,0,uniform,1,1,left,117,117,117,117,0,0,0,117,117,0,0,0,117,117,117,0,0,117,117,0,29-08-21,29-08-21,11:44:41,Wed Sep 29 2021 11:44:41 GMT+0200 (Centraleuropæisk sommertid),The main experiment item,yes,0,0,/Users/ethan/Documents/GitHub/OpenSesame/Sternberg/experiment_files,0,0,0,no,mono,no,18,no,white,no,no,768,43,3.6.1,legacy,legacy,7 4 2 8 1 9,osweb,1.4.0,1,0,n,36,,0,left,right,right,right,right,right,left,636,36175,47332,18006,20661,14319,636,2,legacy,900,1440,24,900,24,0,0,1440,1632908657731,6,1024,2,48000,-16,experiment,1,odd,MacIntel,5,833931,379415,666335,830693,40,831711,806163,39,18054,110255,835948,832715,836597,40,835948,Sternberg_updated,111,79232,118,yes,1024
