acc,accuracy,average_response_time,avg_rt,background,bidi,block,browser_codename,browser_name,browser_version,canvas_backend,clock_backend,color_backend,compensation,coordinates,correct,correct_keyboard_response,correct_response,count_ISI,count_break1,count_break_2,count_correct_feedback,count_credits,count_experiment,count_experimentLoop,count_fixation,count_incorrect_feedback,count_instructions1a,count_instructions1b,count_instructions2,count_keyboard_response,count_memory_set,count_new_logger,count_osweb,count_practiceLoop,count_practiceSequence,count_probe,count_thankYou,date_startdate,date_startdateUTC,date_starttime,datetime,description,disable_garbage_collection,experiment_debug,experiment_parameters,experiment_path,experiment_pilot,experiment_taskname,experiment_taskversion,font_bold,font_family,font_italic,font_size,font_underline,foreground,form_clicks,fullscreen,height,jatosStudyResultId,jatosVersion,keyboard_backend,mouse_backend,numberSet,opensesame_codename,opensesame_version,penwidth,posInSet,present,queryParams_batchId,queryParams_generalMultiple,repeat_cycle,response,response_break1,response_break_2,response_instructions1a,response_instructions1b,response_instructions2,response_keyboard_response,response_time,response_time_break1,response_time_break_2,response_time_instructions1a,response_time_instructions1b,response_time_instructions2,response_time_keyboard_response,round_decimals,sampler_backend,screen_availableHeight,screen_availableWidth,screen_colorDepth,screen_height,screen_pixelDepth,screen_screenX,screen_screenY,screen_width,sessionid,setSize,sound_buf_size,sound_channels,sound_freq,sound_sample_size,start,subject_nr,subject_parity,system_os,target,time_ISI,time_break1,time_break_2,time_correct_feedback,time_experimentLoop,time_fixation,time_incorrect_feedback,time_instructions1a,time_instructions1b,time_instructions2,time_keyboard_response,time_memory_set,time_new_logger,time_practiceLoop,time_probe,title,total_correct,total_response_time,total_responses,uniform_coordinates,width
100,100,671,671,black,no,practice,Mozilla,Netscape,"5.0 (Macintosh; Intel Mac OS X 10_15_7) AppleWebKit/537.36 (KHTML, like Gecko) Chrome/94.0.4606.61 Safari/537.36",legacy,legacy,legacy,0,uniform,1,1,right,0,0,0,0,0,0,0,0,0,0,0,0,0,0,0,0,0,0,0,0,29-08-21,29-08-21,11:45:51,Wed Sep 29 2021 11:45:51 GMT+0200 (Centraleuropæisk sommertid),The main experiment item,yes,0,0,/Users/ethan/Documents/GitHub/OpenSesame/Sternberg/experiment_files,0,0,0,no,mono,no,18,no,white,no,no,768,45,3.6.1,legacy,legacy,1 5 2 9,osweb,1.4.0,1,2,y,36,,0,right,,,right,right,,right,671,,,16107,14919,,671,2,legacy,785,1440,24,900,24,0,23,1440,1632908743492,4,1024,2,48000,-16,experiment,1,odd,MacIntel,5,33376,,,,65,31143,,64,16174,,35396,32158,36075,65,35395,Sternberg_updated,1,671,1,yes,1024
100,100,604,604,black,no,practice,Mozilla,Netscape,"5.0 (Macintosh; Intel Mac OS X 10_15_7) AppleWebKit/537.36 (KHTML, like Gecko) Chrome/94.0.4606.61 Safari/537.36",legacy,legacy,legacy,0,uniform,1,1,right,1,1,1,1,0,0,0,1,1,0,0,0,1,1,1,0,0,1,1,0,29-08-21,29-08-21,11:45:51,Wed Sep 29 2021 11:45:51 GMT+0200 (Centraleuropæisk sommertid),The main experiment item,yes,0,0,/Users/ethan/Documents/GitHub/OpenSesame/Sternberg/experiment_files,0,0,0,no,mono,no,18,no,white,no,no,768,45,3.6.1,legacy,legacy,2 9 4,osweb,1.4.0,1,3,y,36,,0,right,,,right,right,,right,537,,,16107,14919,,537,2,legacy,785,1440,24,900,24,0,23,1440,1632908743492,3,1024,2,48000,-16,experiment,1,odd,MacIntel,4,39342,,,36078,65,37119,,64,16174,,41359,38126,41908,65,41359,Sternberg_updated,2,1208,2,yes,1024
67,67,719,719,black,no,practice,Mozilla,Netscape,"5.0 (Macintosh; Intel Mac OS X 10_15_7) AppleWebKit/537.36 (KHTML, like Gecko) Chrome/94.0.4606.61 Safari/537.36",legacy,legacy,legacy,0,uniform,0,0,left,2,2,2,2,0,0,0,2,2,0,0,0,2,2,2,0,0,2,2,0,29-08-21,29-08-21,11:45:51,Wed Sep 29 2021 11:45:51 GMT+0200 (Centraleuropæisk sommertid),The main experiment item,yes,0,0,/Users/ethan/Documents/GitHub/OpenSesame/Sternberg/experiment_files,0,0,0,no,mono,no,18,no,white,no,no,768,45,3.6.1,legacy,legacy,4 1 5,osweb,1.4.0,1,0,n,36,,0,right,,,right,right,,right,950,,,16107,14919,,950,2,legacy,785,1440,24,900,24,0,23,1440,1632908743492,3,1024,2,48000,-16,experiment,1,odd,MacIntel,2,45176,,,41910,65,42948,,64,16174,,47193,43959,48159,65,47193,Sternberg_updated,2,2158,3,yes,1024
75,75,661,661,black,no,practice,Mozilla,Netscape,"5.0 (Macintosh; Intel Mac OS X 10_15_7) AppleWebKit/537.36 (KHTML, like Gecko) Chrome/94.0.4606.61 Safari/537.36",legacy,legacy,legacy,0,uniform,1,1,right,3,3,3,3,0,0,0,3,3,0,0,0,3,3,3,0,0,3,3,0,29-08-21,29-08-21,11:45:51,Wed Sep 29 2021 11:45:51 GMT+0200 (Centraleuropæisk sommertid),The main experiment item,yes,0,0,/Users/ethan/Documents/GitHub/OpenSesame/Sternberg/experiment_files,0,0,0,no,mono,no,18,no,white,no,no,768,45,3.6.1,legacy,legacy,4 8,osweb,1.4.0,1,1,y,36,,0,right,,,right,right,,right,487,,,16107,14919,,487,2,legacy,785,1440,24,900,24,0,23,1440,1632908743492,2,1024,2,48000,-16,experiment,1,odd,MacIntel,4,51425,,,41910,65,49198,48162,64,16174,,53426,50210,53926,65,53426,Sternberg_updated,3,2645,4,yes,1024
60,60,630,630,black,no,practice,Mozilla,Netscape,"5.0 (Macintosh; Intel Mac OS X 10_15_7) AppleWebKit/537.36 (KHTML, like Gecko) Chrome/94.0.4606.61 Safari/537.36",legacy,legacy,legacy,0,uniform,0,0,left,4,4,4,4,0,0,0,4,4,0,0,0,4,4,4,0,0,4,4,0,29-08-21,29-08-21,11:45:51,Wed Sep 29 2021 11:45:51 GMT+0200 (Centraleuropæisk sommertid),The main experiment item,yes,0,0,/Users/ethan/Documents/GitHub/OpenSesame/Sternberg/experiment_files,0,0,0,no,mono,no,18,no,white,no,no,768,45,3.6.1,legacy,legacy,9 6 7 4 5,osweb,1.4.0,1,0,n,36,,0,right,,,right,right,,right,503,,,16107,14919,,503,2,legacy,785,1440,24,900,24,0,23,1440,1632908743492,5,1024,2,48000,-16,experiment,1,odd,MacIntel,3,57193,,,53927,65,54966,48162,64,16174,,59210,55977,59727,65,59210,Sternberg_updated,3,3148,5,yes,1024
50,50,580,580,black,no,practice,Mozilla,Netscape,"5.0 (Macintosh; Intel Mac OS X 10_15_7) AppleWebKit/537.36 (KHTML, like Gecko) Chrome/94.0.4606.61 Safari/537.36",legacy,legacy,legacy,0,uniform,0,0,left,5,5,5,5,0,0,0,5,5,0,0,0,5,5,5,0,0,5,5,0,29-08-21,29-08-21,11:45:51,Wed Sep 29 2021 11:45:51 GMT+0200 (Centraleuropæisk sommertid),The main experiment item,yes,0,0,/Users/ethan/Documents/GitHub/OpenSesame/Sternberg/experiment_files,0,0,0,no,mono,no,18,no,white,no,no,768,45,3.6.1,legacy,legacy,5,osweb,1.4.0,1,0,n,36,,0,right,,,right,right,,right,330,,,16107,14919,,330,2,legacy,785,1440,24,900,24,0,23,1440,1632908743492,1,1024,2,48000,-16,experiment,1,odd,MacIntel,3,62994,,,53927,65,60766,59731,64,16174,,65010,61777,65343,65,65010,Sternberg_updated,3,3478,6,yes,1024
57,57,576,576,black,no,practice,Mozilla,Netscape,"5.0 (Macintosh; Intel Mac OS X 10_15_7) AppleWebKit/537.36 (KHTML, like Gecko) Chrome/94.0.4606.61 Safari/537.36",legacy,legacy,legacy,0,uniform,1,1,right,6,6,6,6,0,0,0,6,6,0,0,0,6,6,6,0,0,6,6,0,29-08-21,29-08-21,11:45:51,Wed Sep 29 2021 11:45:51 GMT+0200 (Centraleuropæisk sommertid),The main experiment item,yes,0,0,/Users/ethan/Documents/GitHub/OpenSesame/Sternberg/experiment_files,0,0,0,no,mono,no,18,no,white,no,no,768,45,3.6.1,legacy,legacy,4 3 1 7 9 8,osweb,1.4.0,1,1,y,36,,0,right,,,right,right,,right,557,,,16107,14919,,557,2,legacy,785,1440,24,900,24,0,23,1440,1632908743492,6,1024,2,48000,-16,experiment,1,odd,MacIntel,4,68611,,,53927,65,66378,65344,64,16174,,70628,67394,71194,65,70628,Sternberg_updated,4,4035,7,yes,1024
50,50,555,555,black,no,practice,Mozilla,Netscape,"5.0 (Macintosh; Intel Mac OS X 10_15_7) AppleWebKit/537.36 (KHTML, like Gecko) Chrome/94.0.4606.61 Safari/537.36",legacy,legacy,legacy,0,uniform,0,0,left,7,7,7,7,0,0,0,7,7,0,0,0,7,7,7,0,0,7,7,0,29-08-21,29-08-21,11:45:51,Wed Sep 29 2021 11:45:51 GMT+0200 (Centraleuropæisk sommertid),The main experiment item,yes,0,0,/Users/ethan/Documents/GitHub/OpenSesame/Sternberg/experiment_files,0,0,0,no,mono,no,18,no,white,no,no,768,45,3.6.1,legacy,legacy,5 7 8 4 1 2,osweb,1.4.0,1,0,n,36,,0,right,,,right,right,,right,402,,,16107,14919,,402,2,legacy,785,1440,24,900,24,0,23,1440,1632908743492,6,1024,2,48000,-16,experiment,1,odd,MacIntel,6,74461,,,71195,65,72231,65344,64,16174,,76478,73245,76895,65,76478,Sternberg_updated,4,4437,8,yes,1024
44,44,713,713,black,no,practice,Mozilla,Netscape,"5.0 (Macintosh; Intel Mac OS X 10_15_7) AppleWebKit/537.36 (KHTML, like Gecko) Chrome/94.0.4606.61 Safari/537.36",legacy,legacy,legacy,0,uniform,0,0,left,8,8,8,8,0,0,0,8,8,0,0,0,8,8,8,0,0,8,8,0,29-08-21,29-08-21,11:45:51,Wed Sep 29 2021 11:45:51 GMT+0200 (Centraleuropæisk sommertid),The main experiment item,yes,0,0,/Users/ethan/Documents/GitHub/OpenSesame/Sternberg/experiment_files,0,0,0,no,mono,no,18,no,white,no,no,768,45,3.6.1,legacy,legacy,3 1 9 4,osweb,1.4.0,1,0,n,36,,0,right,,,right,right,,right,1981,,,16107,14919,,1981,2,legacy,785,1440,24,900,24,0,23,1440,1632908743492,4,1024,2,48000,-16,experiment,1,odd,MacIntel,6,80161,,,71195,65,77933,76896,64,16174,,82178,78945,84161,65,82178,Sternberg_updated,4,6418,9,yes,1024
50,50,719,719,black,no,practice,Mozilla,Netscape,"5.0 (Macintosh; Intel Mac OS X 10_15_7) AppleWebKit/537.36 (KHTML, like Gecko) Chrome/94.0.4606.61 Safari/537.36",legacy,legacy,legacy,0,uniform,1,1,right,9,9,9,9,0,0,0,9,9,0,0,0,9,9,9,0,0,9,9,0,29-08-21,29-08-21,11:45:51,Wed Sep 29 2021 11:45:51 GMT+0200 (Centraleuropæisk sommertid),The main experiment item,yes,0,0,/Users/ethan/Documents/GitHub/OpenSesame/Sternberg/experiment_files,0,0,0,no,mono,no,18,no,white,no,no,768,45,3.6.1,legacy,legacy,1 7 9 8 5,osweb,1.4.0,1,4,y,36,,0,right,,,right,right,,right,776,,,16107,14919,,776,2,legacy,785,1440,24,900,24,0,23,1440,1632908743492,5,1024,2,48000,-16,experiment,1,odd,MacIntel,8,87429,,,71195,65,85200,84163,64,16174,,89446,86213,90228,65,89446,Sternberg_updated,5,7194,10,yes,1024
45,45,837,837,black,no,practice,Mozilla,Netscape,"5.0 (Macintosh; Intel Mac OS X 10_15_7) AppleWebKit/537.36 (KHTML, like Gecko) Chrome/94.0.4606.61 Safari/537.36",legacy,legacy,legacy,0,uniform,0,0,right,10,10,10,10,0,0,0,10,10,0,0,0,10,10,10,0,0,10,10,0,29-08-21,29-08-21,11:45:51,Wed Sep 29 2021 11:45:51 GMT+0200 (Centraleuropæisk sommertid),The main experiment item,yes,0,0,/Users/ethan/Documents/GitHub/OpenSesame/Sternberg/experiment_files,0,0,0,no,mono,no,18,no,white,no,no,768,45,3.6.1,legacy,legacy,6,osweb,1.4.0,1,1,y,36,,0,None,,,right,right,,None,2017,,,16107,14919,,2017,2,legacy,785,1440,24,900,24,0,23,1440,1632908743492,1,1024,2,48000,-16,experiment,1,odd,MacIntel,6,93496,,,90229,65,91268,84163,64,16174,,95512,92279,97530,65,95512,Sternberg_updated,5,9211,11,yes,1024
42,42,936,936,black,no,practice,Mozilla,Netscape,"5.0 (Macintosh; Intel Mac OS X 10_15_7) AppleWebKit/537.36 (KHTML, like Gecko) Chrome/94.0.4606.61 Safari/537.36",legacy,legacy,legacy,0,uniform,0,0,left,11,11,11,11,0,0,0,11,11,0,0,0,11,11,11,0,0,11,11,0,29-08-21,29-08-21,11:45:51,Wed Sep 29 2021 11:45:51 GMT+0200 (Centraleuropæisk sommertid),The main experiment item,yes,0,0,/Users/ethan/Documents/GitHub/OpenSesame/Sternberg/experiment_files,0,0,0,no,mono,no,18,no,white,no,no,768,45,3.6.1,legacy,legacy,2 1,osweb,1.4.0,1,0,n,36,,0,None,,,right,right,,None,2016,,,16107,14919,,2016,2,legacy,785,1440,24,900,24,0,23,1440,1632908743492,2,1024,2,48000,-16,experiment,1,odd,MacIntel,5,100796,,,90229,65,98567,97531,64,16174,,102813,99580,104829,65,102813,Sternberg_updated,5,11227,12,yes,1024
46,46,935,935,black,no,experiment,Mozilla,Netscape,"5.0 (Macintosh; Intel Mac OS X 10_15_7) AppleWebKit/537.36 (KHTML, like Gecko) Chrome/94.0.4606.61 Safari/537.36",legacy,legacy,legacy,0,uniform,1,1,left,12,12,12,12,0,0,0,12,12,0,0,0,12,12,12,0,0,12,12,0,29-08-21,29-08-21,11:45:51,Wed Sep 29 2021 11:45:51 GMT+0200 (Centraleuropæisk sommertid),The main experiment item,yes,0,0,/Users/ethan/Documents/GitHub/OpenSesame/Sternberg/experiment_files,0,0,0,no,mono,no,18,no,white,no,no,768,45,3.6.1,legacy,legacy,6 9 4 5 3 2,osweb,1.4.0,1,0,n,36,,0,left,,,right,right,right,left,923,,,16107,14919,14109,923,2,legacy,785,1440,24,900,24,0,23,1440,1632908743492,6,1024,2,48000,-16,experiment,1,odd,MacIntel,8,122214,,,90229,65,119985,104831,64,16174,105848,124232,120997,125164,65,124232,Sternberg_updated,6,12150,13,yes,1024
43,43,1012,1012,black,no,experiment,Mozilla,Netscape,"5.0 (Macintosh; Intel Mac OS X 10_15_7) AppleWebKit/537.36 (KHTML, like Gecko) Chrome/94.0.4606.61 Safari/537.36",legacy,legacy,legacy,0,uniform,0,0,left,13,13,13,13,0,0,0,13,13,0,0,0,13,13,13,0,0,13,13,0,29-08-21,29-08-21,11:45:51,Wed Sep 29 2021 11:45:51 GMT+0200 (Centraleuropæisk sommertid),The main experiment item,yes,0,0,/Users/ethan/Documents/GitHub/OpenSesame/Sternberg/experiment_files,0,0,0,no,mono,no,18,no,white,no,no,768,45,3.6.1,legacy,legacy,2 8 6 3 1,osweb,1.4.0,1,0,n,36,,0,None,,,right,right,right,None,2016,,,16107,14919,14109,2016,2,legacy,785,1440,24,900,24,0,23,1440,1632908743492,5,1024,2,48000,-16,experiment,1,odd,MacIntel,7,128431,,,125165,65,126202,104831,64,16174,105848,130448,127215,132465,65,130448,Sternberg_updated,6,14166,14,yes,1024
47,47,1013,1013,black,no,experiment,Mozilla,Netscape,"5.0 (Macintosh; Intel Mac OS X 10_15_7) AppleWebKit/537.36 (KHTML, like Gecko) Chrome/94.0.4606.61 Safari/537.36",legacy,legacy,legacy,0,uniform,1,1,right,14,14,14,14,0,0,0,14,14,0,0,0,14,14,14,0,0,14,14,0,29-08-21,29-08-21,11:45:51,Wed Sep 29 2021 11:45:51 GMT+0200 (Centraleuropæisk sommertid),The main experiment item,yes,0,0,/Users/ethan/Documents/GitHub/OpenSesame/Sternberg/experiment_files,0,0,0,no,mono,no,18,no,white,no,no,768,45,3.6.1,legacy,legacy,8 9 5 6 7,osweb,1.4.0,1,1,y,36,,0,right,,,right,right,right,right,1030,,,16107,14919,14109,1030,2,legacy,785,1440,24,900,24,0,23,1440,1632908743492,5,1024,2,48000,-16,experiment,1,odd,MacIntel,8,135732,,,125165,65,133504,132466,64,16174,105848,137749,134515,138781,65,137749,Sternberg_updated,7,15196,15,yes,1024
50,50,1006,1006,black,no,experiment,Mozilla,Netscape,"5.0 (Macintosh; Intel Mac OS X 10_15_7) AppleWebKit/537.36 (KHTML, like Gecko) Chrome/94.0.4606.61 Safari/537.36",legacy,legacy,legacy,0,uniform,1,1,left,15,15,15,15,0,0,0,15,15,0,0,0,15,15,15,0,0,15,15,0,29-08-21,29-08-21,11:45:51,Wed Sep 29 2021 11:45:51 GMT+0200 (Centraleuropæisk sommertid),The main experiment item,yes,0,0,/Users/ethan/Documents/GitHub/OpenSesame/Sternberg/experiment_files,0,0,0,no,mono,no,18,no,white,no,no,768,45,3.6.1,legacy,legacy,2 8 7 9 5 3,osweb,1.4.0,1,0,n,36,,0,left,,,right,right,right,left,898,,,16107,14919,14109,898,2,legacy,785,1440,24,900,24,0,23,1440,1632908743492,6,1024,2,48000,-16,experiment,1,odd,MacIntel,6,142049,,,138782,65,139820,132466,64,16174,105848,144066,140832,144965,65,144066,Sternberg_updated,8,16094,16,yes,1024
53,53,985,985,black,no,experiment,Mozilla,Netscape,"5.0 (Macintosh; Intel Mac OS X 10_15_7) AppleWebKit/537.36 (KHTML, like Gecko) Chrome/94.0.4606.61 Safari/537.36",legacy,legacy,legacy,0,uniform,1,1,right,16,16,16,16,0,0,0,16,16,0,0,0,16,16,16,0,0,16,16,0,29-08-21,29-08-21,11:45:51,Wed Sep 29 2021 11:45:51 GMT+0200 (Centraleuropæisk sommertid),The main experiment item,yes,0,0,/Users/ethan/Documents/GitHub/OpenSesame/Sternberg/experiment_files,0,0,0,no,mono,no,18,no,white,no,no,768,45,3.6.1,legacy,legacy,5 2 9 6 1 7,osweb,1.4.0,1,3,y,36,,0,right,,,right,right,right,right,657,,,16107,14919,14109,657,2,legacy,785,1440,24,900,24,0,23,1440,1632908743492,6,1024,2,48000,-16,experiment,1,odd,MacIntel,9,148232,,,144966,65,146007,132466,64,16174,105848,150233,147016,150899,65,150233,Sternberg_updated,9,16751,17,yes,1024
56,56,984,984,black,no,experiment,Mozilla,Netscape,"5.0 (Macintosh; Intel Mac OS X 10_15_7) AppleWebKit/537.36 (KHTML, like Gecko) Chrome/94.0.4606.61 Safari/537.36",legacy,legacy,legacy,0,uniform,1,1,right,17,17,17,17,0,0,0,17,17,0,0,0,17,17,17,0,0,17,17,0,29-08-21,29-08-21,11:45:51,Wed Sep 29 2021 11:45:51 GMT+0200 (Centraleuropæisk sommertid),The main experiment item,yes,0,0,/Users/ethan/Documents/GitHub/OpenSesame/Sternberg/experiment_files,0,0,0,no,mono,no,18,no,white,no,no,768,45,3.6.1,legacy,legacy,3 5 9 6 2 4,osweb,1.4.0,1,1,y,36,,0,right,,,right,right,right,right,953,,,16107,14919,14109,953,2,legacy,785,1440,24,900,24,0,23,1440,1632908743492,6,1024,2,48000,-16,experiment,1,odd,MacIntel,3,154167,,,150900,65,151937,132466,64,16174,105848,156184,152950,157150,65,156184,Sternberg_updated,10,17704,18,yes,1024
58,58,967,967,black,no,experiment,Mozilla,Netscape,"5.0 (Macintosh; Intel Mac OS X 10_15_7) AppleWebKit/537.36 (KHTML, like Gecko) Chrome/94.0.4606.61 Safari/537.36",legacy,legacy,legacy,0,uniform,1,1,right,18,18,18,18,0,0,0,18,18,0,0,0,18,18,18,0,0,18,18,0,29-08-21,29-08-21,11:45:51,Wed Sep 29 2021 11:45:51 GMT+0200 (Centraleuropæisk sommertid),The main experiment item,yes,0,0,/Users/ethan/Documents/GitHub/OpenSesame/Sternberg/experiment_files,0,0,0,no,mono,no,18,no,white,no,no,768,45,3.6.1,legacy,legacy,6 7 8 5,osweb,1.4.0,1,3,y,36,,0,right,,,right,right,right,right,666,,,16107,14919,14109,666,2,legacy,785,1440,24,900,24,0,23,1440,1632908743492,4,1024,2,48000,-16,experiment,1,odd,MacIntel,8,160417,,,157151,65,158189,132466,64,16174,105848,162434,159201,163100,65,162434,Sternberg_updated,11,18370,19,yes,1024
60,60,958,958,black,no,experiment,Mozilla,Netscape,"5.0 (Macintosh; Intel Mac OS X 10_15_7) AppleWebKit/537.36 (KHTML, like Gecko) Chrome/94.0.4606.61 Safari/537.36",legacy,legacy,legacy,0,uniform,1,1,right,19,19,19,19,0,0,0,19,19,0,0,0,19,19,19,0,0,19,19,0,29-08-21,29-08-21,11:45:51,Wed Sep 29 2021 11:45:51 GMT+0200 (Centraleuropæisk sommertid),The main experiment item,yes,0,0,/Users/ethan/Documents/GitHub/OpenSesame/Sternberg/experiment_files,0,0,0,no,mono,no,18,no,white,no,no,768,45,3.6.1,legacy,legacy,7 8 4 6 9 5,osweb,1.4.0,1,4,y,36,,0,right,,,right,right,right,right,780,,,16107,14919,14109,780,2,legacy,785,1440,24,900,24,0,23,1440,1632908743492,6,1024,2,48000,-16,experiment,1,odd,MacIntel,6,166367,,,163102,65,164139,132466,64,16174,105848,168384,165151,169167,65,168384,Sternberg_updated,12,19150,20,yes,1024
57,57,955,955,black,no,experiment,Mozilla,Netscape,"5.0 (Macintosh; Intel Mac OS X 10_15_7) AppleWebKit/537.36 (KHTML, like Gecko) Chrome/94.0.4606.61 Safari/537.36",legacy,legacy,legacy,0,uniform,0,0,left,20,20,20,20,0,0,0,20,20,0,0,0,20,20,20,0,0,20,20,0,29-08-21,29-08-21,11:45:51,Wed Sep 29 2021 11:45:51 GMT+0200 (Centraleuropæisk sommertid),The main experiment item,yes,0,0,/Users/ethan/Documents/GitHub/OpenSesame/Sternberg/experiment_files,0,0,0,no,mono,no,18,no,white,no,no,768,45,3.6.1,legacy,legacy,5 3 8 7 2 4,osweb,1.4.0,1,0,n,36,,0,right,,,right,right,right,right,901,,,16107,14919,14109,901,2,legacy,785,1440,24,900,24,0,23,1440,1632908743492,6,1024,2,48000,-16,experiment,1,odd,MacIntel,9,172434,,,169168,65,170207,132466,64,16174,105848,174451,171218,175368,65,174451,Sternberg_updated,12,20051,21,yes,1024
59,59,950,950,black,no,experiment,Mozilla,Netscape,"5.0 (Macintosh; Intel Mac OS X 10_15_7) AppleWebKit/537.36 (KHTML, like Gecko) Chrome/94.0.4606.61 Safari/537.36",legacy,legacy,legacy,0,uniform,1,1,left,21,21,21,21,0,0,0,21,21,0,0,0,21,21,21,0,0,21,21,0,29-08-21,29-08-21,11:45:51,Wed Sep 29 2021 11:45:51 GMT+0200 (Centraleuropæisk sommertid),The main experiment item,yes,0,0,/Users/ethan/Documents/GitHub/OpenSesame/Sternberg/experiment_files,0,0,0,no,mono,no,18,no,white,no,no,768,45,3.6.1,legacy,legacy,2 5 1 4,osweb,1.4.0,1,0,n,36,,0,left,,,right,right,right,left,858,,,16107,14919,14109,858,2,legacy,785,1440,24,900,24,0,23,1440,1632908743492,4,1024,2,48000,-16,experiment,1,odd,MacIntel,6,178634,,,169168,65,176405,175369,64,16174,105848,180635,177418,181501,65,180635,Sternberg_updated,13,20909,22,yes,1024
61,61,937,937,black,no,experiment,Mozilla,Netscape,"5.0 (Macintosh; Intel Mac OS X 10_15_7) AppleWebKit/537.36 (KHTML, like Gecko) Chrome/94.0.4606.61 Safari/537.36",legacy,legacy,legacy,0,uniform,1,1,right,22,22,22,22,0,0,0,22,22,0,0,0,22,22,22,0,0,22,22,0,29-08-21,29-08-21,11:45:51,Wed Sep 29 2021 11:45:51 GMT+0200 (Centraleuropæisk sommertid),The main experiment item,yes,0,0,/Users/ethan/Documents/GitHub/OpenSesame/Sternberg/experiment_files,0,0,0,no,mono,no,18,no,white,no,no,768,45,3.6.1,legacy,legacy,8 9 6 1,osweb,1.4.0,1,2,y,36,,0,right,,,right,right,right,right,633,,,16107,14919,14109,633,2,legacy,785,1440,24,900,24,0,23,1440,1632908743492,4,1024,2,48000,-16,experiment,1,odd,MacIntel,9,184768,,,181502,65,182539,175369,64,16174,105848,186785,183552,187419,65,186785,Sternberg_updated,14,21542,23,yes,1024
63,63,928,928,black,no,experiment,Mozilla,Netscape,"5.0 (Macintosh; Intel Mac OS X 10_15_7) AppleWebKit/537.36 (KHTML, like Gecko) Chrome/94.0.4606.61 Safari/537.36",legacy,legacy,legacy,0,uniform,1,1,left,23,23,23,23,0,0,0,23,23,0,0,0,23,23,23,0,0,23,23,0,29-08-21,29-08-21,11:45:51,Wed Sep 29 2021 11:45:51 GMT+0200 (Centraleuropæisk sommertid),The main experiment item,yes,0,0,/Users/ethan/Documents/GitHub/OpenSesame/Sternberg/experiment_files,0,0,0,no,mono,no,18,no,white,no,no,768,45,3.6.1,legacy,legacy,6 2 9 3 8 4,osweb,1.4.0,1,0,n,36,,0,left,,,right,right,right,left,723,,,16107,14919,14109,723,2,legacy,785,1440,24,900,24,0,23,1440,1632908743492,6,1024,2,48000,-16,experiment,1,odd,MacIntel,1,190686,,,187420,65,188456,175369,64,16174,105848,192703,189469,193436,65,192703,Sternberg_updated,15,22265,24,yes,1024
60,60,921,921,black,no,experiment,Mozilla,Netscape,"5.0 (Macintosh; Intel Mac OS X 10_15_7) AppleWebKit/537.36 (KHTML, like Gecko) Chrome/94.0.4606.61 Safari/537.36",legacy,legacy,legacy,0,uniform,0,0,left,24,24,24,24,0,0,0,24,24,0,0,0,24,24,24,0,0,24,24,0,29-08-21,29-08-21,11:45:51,Wed Sep 29 2021 11:45:51 GMT+0200 (Centraleuropæisk sommertid),The main experiment item,yes,0,0,/Users/ethan/Documents/GitHub/OpenSesame/Sternberg/experiment_files,0,0,0,no,mono,no,18,no,white,no,no,768,45,3.6.1,legacy,legacy,9 7 4 5 8,osweb,1.4.0,1,0,n,36,,0,right,,,right,right,right,right,748,,,16107,14919,14109,748,2,legacy,785,1440,24,900,24,0,23,1440,1632908743492,5,1024,2,48000,-16,experiment,1,odd,MacIntel,6,196702,,,193437,65,194475,175369,64,16174,105848,198704,195485,199453,65,198704,Sternberg_updated,15,23013,25,yes,1024
62,62,904,904,black,no,experiment,Mozilla,Netscape,"5.0 (Macintosh; Intel Mac OS X 10_15_7) AppleWebKit/537.36 (KHTML, like Gecko) Chrome/94.0.4606.61 Safari/537.36",legacy,legacy,legacy,0,uniform,1,1,right,25,25,25,25,0,0,0,25,25,0,0,0,25,25,25,0,0,25,25,0,29-08-21,29-08-21,11:45:51,Wed Sep 29 2021 11:45:51 GMT+0200 (Centraleuropæisk sommertid),The main experiment item,yes,0,0,/Users/ethan/Documents/GitHub/OpenSesame/Sternberg/experiment_files,0,0,0,no,mono,no,18,no,white,no,no,768,45,3.6.1,legacy,legacy,5 7 3 6 2,osweb,1.4.0,1,5,y,36,,0,right,,,right,right,right,right,486,,,16107,14919,14109,486,2,legacy,785,1440,24,900,24,0,23,1440,1632908743492,5,1024,2,48000,-16,experiment,1,odd,MacIntel,2,202720,,,193437,65,200491,199454,64,16174,105848,204737,201503,205236,65,204737,Sternberg_updated,16,23499,26,yes,1024
63,63,902,902,black,no,experiment,Mozilla,Netscape,"5.0 (Macintosh; Intel Mac OS X 10_15_7) AppleWebKit/537.36 (KHTML, like Gecko) Chrome/94.0.4606.61 Safari/537.36",legacy,legacy,legacy,0,uniform,1,1,right,26,26,26,26,0,0,0,26,26,0,0,0,26,26,26,0,0,26,26,0,29-08-21,29-08-21,11:45:51,Wed Sep 29 2021 11:45:51 GMT+0200 (Centraleuropæisk sommertid),The main experiment item,yes,0,0,/Users/ethan/Documents/GitHub/OpenSesame/Sternberg/experiment_files,0,0,0,no,mono,no,18,no,white,no,no,768,45,3.6.1,legacy,legacy,4,osweb,1.4.0,1,1,y,36,,0,right,,,right,right,right,right,844,,,16107,14919,14109,844,2,legacy,785,1440,24,900,24,0,23,1440,1632908743492,1,1024,2,48000,-16,experiment,1,odd,MacIntel,4,208504,,,205237,65,206275,199454,64,16174,105848,210521,207287,211370,65,210521,Sternberg_updated,17,24343,27,yes,1024
64,64,893,893,black,no,experiment,Mozilla,Netscape,"5.0 (Macintosh; Intel Mac OS X 10_15_7) AppleWebKit/537.36 (KHTML, like Gecko) Chrome/94.0.4606.61 Safari/537.36",legacy,legacy,legacy,0,uniform,1,1,left,27,27,27,27,0,0,0,27,27,0,0,0,27,27,27,0,0,27,27,0,29-08-21,29-08-21,11:45:51,Wed Sep 29 2021 11:45:51 GMT+0200 (Centraleuropæisk sommertid),The main experiment item,yes,0,0,/Users/ethan/Documents/GitHub/OpenSesame/Sternberg/experiment_files,0,0,0,no,mono,no,18,no,white,no,no,768,45,3.6.1,legacy,legacy,1 7 5 2,osweb,1.4.0,1,0,n,36,,0,left,,,right,right,right,left,669,,,16107,14919,14109,669,2,legacy,785,1440,24,900,24,0,23,1440,1632908743492,4,1024,2,48000,-16,experiment,1,odd,MacIntel,3,214637,,,211371,65,212407,199454,64,16174,105848,216654,213421,217339,65,216654,Sternberg_updated,18,25012,28,yes,1024
66,66,892,892,black,no,experiment,Mozilla,Netscape,"5.0 (Macintosh; Intel Mac OS X 10_15_7) AppleWebKit/537.36 (KHTML, like Gecko) Chrome/94.0.4606.61 Safari/537.36",legacy,legacy,legacy,0,uniform,1,1,left,28,28,28,28,0,0,0,28,28,0,0,0,28,28,28,0,0,28,28,0,29-08-21,29-08-21,11:45:51,Wed Sep 29 2021 11:45:51 GMT+0200 (Centraleuropæisk sommertid),The main experiment item,yes,0,0,/Users/ethan/Documents/GitHub/OpenSesame/Sternberg/experiment_files,0,0,0,no,mono,no,18,no,white,no,no,768,45,3.6.1,legacy,legacy,4 1,osweb,1.4.0,1,0,n,36,,0,left,,,right,right,right,left,843,,,16107,14919,14109,843,2,legacy,785,1440,24,900,24,0,23,1440,1632908743492,2,1024,2,48000,-16,experiment,1,odd,MacIntel,6,220604,,,217340,65,218377,199454,64,16174,105848,222622,219388,223470,65,222622,Sternberg_updated,19,25855,29,yes,1024
67,67,876,876,black,no,experiment,Mozilla,Netscape,"5.0 (Macintosh; Intel Mac OS X 10_15_7) AppleWebKit/537.36 (KHTML, like Gecko) Chrome/94.0.4606.61 Safari/537.36",legacy,legacy,legacy,0,uniform,1,1,right,29,29,29,29,0,0,0,29,29,0,0,0,29,29,29,0,0,29,29,0,29-08-21,29-08-21,11:45:51,Wed Sep 29 2021 11:45:51 GMT+0200 (Centraleuropæisk sommertid),The main experiment item,yes,0,0,/Users/ethan/Documents/GitHub/OpenSesame/Sternberg/experiment_files,0,0,0,no,mono,no,18,no,white,no,no,768,45,3.6.1,legacy,legacy,2 6 1 7 4,osweb,1.4.0,1,2,y,36,,0,right,,,right,right,right,right,410,,,16107,14919,14109,410,2,legacy,785,1440,24,900,24,0,23,1440,1632908743492,5,1024,2,48000,-16,experiment,1,odd,MacIntel,6,226738,,,223472,65,224508,199454,64,16174,105848,228755,225522,229171,65,228755,Sternberg_updated,20,26265,30,yes,1024
68,68,871,871,black,no,experiment,Mozilla,Netscape,"5.0 (Macintosh; Intel Mac OS X 10_15_7) AppleWebKit/537.36 (KHTML, like Gecko) Chrome/94.0.4606.61 Safari/537.36",legacy,legacy,legacy,0,uniform,1,1,right,30,30,30,30,0,0,0,30,30,0,0,0,30,30,30,0,0,30,30,0,29-08-21,29-08-21,11:45:51,Wed Sep 29 2021 11:45:51 GMT+0200 (Centraleuropæisk sommertid),The main experiment item,yes,0,0,/Users/ethan/Documents/GitHub/OpenSesame/Sternberg/experiment_files,0,0,0,no,mono,no,18,no,white,no,no,768,45,3.6.1,legacy,legacy,2 5 4 8 7,osweb,1.4.0,1,3,y,36,,0,right,,,right,right,right,right,739,,,16107,14919,14109,739,2,legacy,785,1440,24,900,24,0,23,1440,1632908743492,5,1024,2,48000,-16,experiment,1,odd,MacIntel,4,232439,,,229172,65,230210,199454,64,16174,105848,234456,231222,235205,65,234456,Sternberg_updated,21,27004,31,yes,1024
69,69,868,868,black,no,experiment,Mozilla,Netscape,"5.0 (Macintosh; Intel Mac OS X 10_15_7) AppleWebKit/537.36 (KHTML, like Gecko) Chrome/94.0.4606.61 Safari/537.36",legacy,legacy,legacy,0,uniform,1,1,left,31,31,31,31,0,0,0,31,31,0,0,0,31,31,31,0,0,31,31,0,29-08-21,29-08-21,11:45:51,Wed Sep 29 2021 11:45:51 GMT+0200 (Centraleuropæisk sommertid),The main experiment item,yes,0,0,/Users/ethan/Documents/GitHub/OpenSesame/Sternberg/experiment_files,0,0,0,no,mono,no,18,no,white,no,no,768,45,3.6.1,legacy,legacy,7 9 1 6,osweb,1.4.0,1,0,n,36,,0,left,,,right,right,right,left,767,,,16107,14919,14109,767,2,legacy,785,1440,24,900,24,0,23,1440,1632908743492,4,1024,2,48000,-16,experiment,1,odd,MacIntel,4,238473,,,235206,65,236244,199454,64,16174,105848,240490,237256,241272,65,240490,Sternberg_updated,22,27771,32,yes,1024
67,67,860,860,black,no,experiment,Mozilla,Netscape,"5.0 (Macintosh; Intel Mac OS X 10_15_7) AppleWebKit/537.36 (KHTML, like Gecko) Chrome/94.0.4606.61 Safari/537.36",legacy,legacy,legacy,0,uniform,0,0,right,32,32,32,32,0,0,0,32,32,0,0,0,32,32,32,0,0,32,32,0,29-08-21,29-08-21,11:45:51,Wed Sep 29 2021 11:45:51 GMT+0200 (Centraleuropæisk sommertid),The main experiment item,yes,0,0,/Users/ethan/Documents/GitHub/OpenSesame/Sternberg/experiment_files,0,0,0,no,mono,no,18,no,white,no,no,768,45,3.6.1,legacy,legacy,3 2 1 4 7,osweb,1.4.0,1,2,y,36,,0,left,,,right,right,right,left,619,,,16107,14919,14109,619,2,legacy,785,1440,24,900,24,0,23,1440,1632908743492,5,1024,2,48000,-16,experiment,1,odd,MacIntel,2,244539,,,241274,65,242310,199454,64,16174,105848,246556,243323,247189,65,246556,Sternberg_updated,22,28390,33,yes,1024
68,68,853,853,black,no,experiment,Mozilla,Netscape,"5.0 (Macintosh; Intel Mac OS X 10_15_7) AppleWebKit/537.36 (KHTML, like Gecko) Chrome/94.0.4606.61 Safari/537.36",legacy,legacy,legacy,0,uniform,1,1,right,33,33,33,33,0,0,0,33,33,0,0,0,33,33,33,0,0,33,33,0,29-08-21,29-08-21,11:45:51,Wed Sep 29 2021 11:45:51 GMT+0200 (Centraleuropæisk sommertid),The main experiment item,yes,0,0,/Users/ethan/Documents/GitHub/OpenSesame/Sternberg/experiment_files,0,0,0,no,mono,no,18,no,white,no,no,768,45,3.6.1,legacy,legacy,9 5 8 1,osweb,1.4.0,1,2,y,36,,0,right,,,right,right,right,right,601,,,16107,14919,14109,601,2,legacy,785,1440,24,900,24,0,23,1440,1632908743492,4,1024,2,48000,-16,experiment,1,odd,MacIntel,5,250440,,,241274,65,248227,247191,64,16174,105848,252457,249239,253074,65,252457,Sternberg_updated,23,28991,34,yes,1024
69,69,851,851,black,no,experiment,Mozilla,Netscape,"5.0 (Macintosh; Intel Mac OS X 10_15_7) AppleWebKit/537.36 (KHTML, like Gecko) Chrome/94.0.4606.61 Safari/537.36",legacy,legacy,legacy,0,uniform,1,1,left,34,34,34,34,0,0,0,34,34,0,0,0,34,34,34,0,0,34,34,0,29-08-21,29-08-21,11:45:51,Wed Sep 29 2021 11:45:51 GMT+0200 (Centraleuropæisk sommertid),The main experiment item,yes,0,0,/Users/ethan/Documents/GitHub/OpenSesame/Sternberg/experiment_files,0,0,0,no,mono,no,18,no,white,no,no,768,45,3.6.1,legacy,legacy,1 4 9 2 5,osweb,1.4.0,1,0,n,36,,0,left,,,right,right,right,left,777,,,16107,14919,14109,777,2,legacy,785,1440,24,900,24,0,23,1440,1632908743492,5,1024,2,48000,-16,experiment,1,odd,MacIntel,7,256340,,,253075,65,254111,247191,64,16174,105848,258357,255124,259140,65,258357,Sternberg_updated,24,29768,35,yes,1024
69,69,850,850,black,no,experiment,Mozilla,Netscape,"5.0 (Macintosh; Intel Mac OS X 10_15_7) AppleWebKit/537.36 (KHTML, like Gecko) Chrome/94.0.4606.61 Safari/537.36",legacy,legacy,legacy,0,uniform,1,1,left,35,35,35,35,0,0,0,35,35,0,0,0,35,35,35,0,0,35,35,0,29-08-21,29-08-21,11:45:51,Wed Sep 29 2021 11:45:51 GMT+0200 (Centraleuropæisk sommertid),The main experiment item,yes,0,0,/Users/ethan/Documents/GitHub/OpenSesame/Sternberg/experiment_files,0,0,0,no,mono,no,18,no,white,no,no,768,45,3.6.1,legacy,legacy,4 8 1 2,osweb,1.4.0,1,0,n,36,,0,left,,,right,right,right,left,818,,,16107,14919,14109,818,2,legacy,785,1440,24,900,24,0,23,1440,1632908743492,4,1024,2,48000,-16,experiment,1,odd,MacIntel,7,262407,,,259141,65,260179,247191,64,16174,105848,264425,261191,265258,65,264425,Sternberg_updated,25,30586,36,yes,1024
70,70,845,845,black,no,experiment,Mozilla,Netscape,"5.0 (Macintosh; Intel Mac OS X 10_15_7) AppleWebKit/537.36 (KHTML, like Gecko) Chrome/94.0.4606.61 Safari/537.36",legacy,legacy,legacy,0,uniform,1,1,right,36,36,36,36,0,0,0,36,36,0,0,0,36,36,36,0,0,36,36,0,29-08-21,29-08-21,11:45:51,Wed Sep 29 2021 11:45:51 GMT+0200 (Centraleuropæisk sommertid),The main experiment item,yes,0,0,/Users/ethan/Documents/GitHub/OpenSesame/Sternberg/experiment_files,0,0,0,no,mono,no,18,no,white,no,no,768,45,3.6.1,legacy,legacy,7 1 3,osweb,1.4.0,1,2,y,36,,0,right,,,right,right,right,right,681,,,16107,14919,14109,681,2,legacy,785,1440,24,900,24,0,23,1440,1632908743492,3,1024,2,48000,-16,experiment,1,odd,MacIntel,1,268525,,,265259,65,266301,247191,64,16174,105848,270541,267308,271224,65,270541,Sternberg_updated,26,31267,37,yes,1024
71,71,838,838,black,no,experiment,Mozilla,Netscape,"5.0 (Macintosh; Intel Mac OS X 10_15_7) AppleWebKit/537.36 (KHTML, like Gecko) Chrome/94.0.4606.61 Safari/537.36",legacy,legacy,legacy,0,uniform,1,1,right,37,37,37,37,0,0,0,37,37,0,0,0,37,37,37,0,0,37,37,0,29-08-21,29-08-21,11:45:51,Wed Sep 29 2021 11:45:51 GMT+0200 (Centraleuropæisk sommertid),The main experiment item,yes,0,0,/Users/ethan/Documents/GitHub/OpenSesame/Sternberg/experiment_files,0,0,0,no,mono,no,18,no,white,no,no,768,45,3.6.1,legacy,legacy,9 3 8 2 1 4,osweb,1.4.0,1,3,y,36,,0,right,,,right,right,right,right,592,,,16107,14919,14109,592,2,legacy,785,1440,24,900,24,0,23,1440,1632908743492,6,1024,2,48000,-16,experiment,1,odd,MacIntel,8,274491,,,271225,65,272264,247191,64,16174,105848,276508,273275,277108,65,276508,Sternberg_updated,27,31859,38,yes,1024
72,72,832,832,black,no,experiment,Mozilla,Netscape,"5.0 (Macintosh; Intel Mac OS X 10_15_7) AppleWebKit/537.36 (KHTML, like Gecko) Chrome/94.0.4606.61 Safari/537.36",legacy,legacy,legacy,0,uniform,1,1,right,38,38,38,38,0,0,0,38,38,0,0,0,38,38,38,0,0,38,38,0,29-08-21,29-08-21,11:45:51,Wed Sep 29 2021 11:45:51 GMT+0200 (Centraleuropæisk sommertid),The main experiment item,yes,0,0,/Users/ethan/Documents/GitHub/OpenSesame/Sternberg/experiment_files,0,0,0,no,mono,no,18,no,white,no,no,768,45,3.6.1,legacy,legacy,4 1 8 7 5,osweb,1.4.0,1,3,y,36,,0,right,,,right,right,right,right,577,,,16107,14919,14109,577,2,legacy,785,1440,24,900,24,0,23,1440,1632908743492,5,1024,2,48000,-16,experiment,1,odd,MacIntel,8,280375,,,277109,65,278145,247191,64,16174,105848,282392,279159,282976,65,282392,Sternberg_updated,28,32436,39,yes,1024
73,73,829,829,black,no,experiment,Mozilla,Netscape,"5.0 (Macintosh; Intel Mac OS X 10_15_7) AppleWebKit/537.36 (KHTML, like Gecko) Chrome/94.0.4606.61 Safari/537.36",legacy,legacy,legacy,0,uniform,1,1,right,39,39,39,39,0,0,0,39,39,0,0,0,39,39,39,0,0,39,39,0,29-08-21,29-08-21,11:45:51,Wed Sep 29 2021 11:45:51 GMT+0200 (Centraleuropæisk sommertid),The main experiment item,yes,0,0,/Users/ethan/Documents/GitHub/OpenSesame/Sternberg/experiment_files,0,0,0,no,mono,no,18,no,white,no,no,768,45,3.6.1,legacy,legacy,6 7 9 3 1 2,osweb,1.4.0,1,1,y,36,,0,right,,,right,right,right,right,742,,,16107,14919,14109,742,2,legacy,785,1440,24,900,24,0,23,1440,1632908743492,6,1024,2,48000,-16,experiment,1,odd,MacIntel,6,286242,,,282977,65,284013,247191,64,16174,105848,288259,285026,289009,65,288259,Sternberg_updated,29,33178,40,yes,1024
73,73,826,826,black,no,experiment,Mozilla,Netscape,"5.0 (Macintosh; Intel Mac OS X 10_15_7) AppleWebKit/537.36 (KHTML, like Gecko) Chrome/94.0.4606.61 Safari/537.36",legacy,legacy,legacy,0,uniform,1,1,left,40,40,40,40,0,0,0,40,40,0,0,0,40,40,40,0,0,40,40,0,29-08-21,29-08-21,11:45:51,Wed Sep 29 2021 11:45:51 GMT+0200 (Centraleuropæisk sommertid),The main experiment item,yes,0,0,/Users/ethan/Documents/GitHub/OpenSesame/Sternberg/experiment_files,0,0,0,no,mono,no,18,no,white,no,no,768,45,3.6.1,legacy,legacy,7 8 6 1,osweb,1.4.0,1,0,n,36,,0,left,,,right,right,right,left,680,,,16107,14919,14109,680,2,legacy,785,1440,24,900,24,0,23,1440,1632908743492,4,1024,2,48000,-16,experiment,1,odd,MacIntel,3,292276,,,289010,65,290045,247191,64,16174,105848,294293,291059,294977,65,294293,Sternberg_updated,30,33858,41,yes,1024
74,74,818,818,black,no,experiment,Mozilla,Netscape,"5.0 (Macintosh; Intel Mac OS X 10_15_7) AppleWebKit/537.36 (KHTML, like Gecko) Chrome/94.0.4606.61 Safari/537.36",legacy,legacy,legacy,0,uniform,1,1,right,41,41,41,41,0,0,0,41,41,0,0,0,41,41,41,0,0,41,41,0,29-08-21,29-08-21,11:45:51,Wed Sep 29 2021 11:45:51 GMT+0200 (Centraleuropæisk sommertid),The main experiment item,yes,0,0,/Users/ethan/Documents/GitHub/OpenSesame/Sternberg/experiment_files,0,0,0,no,mono,no,18,no,white,no,no,768,45,3.6.1,legacy,legacy,5 2 6,osweb,1.4.0,1,2,y,36,,0,right,,,right,right,right,right,502,,,16107,14919,14109,502,2,legacy,785,1440,24,900,24,0,23,1440,1632908743492,3,1024,2,48000,-16,experiment,1,odd,MacIntel,2,298243,,,294978,65,296014,247191,64,16174,105848,300260,297027,300776,65,300260,Sternberg_updated,31,34360,42,yes,1024
74,74,817,817,black,no,experiment,Mozilla,Netscape,"5.0 (Macintosh; Intel Mac OS X 10_15_7) AppleWebKit/537.36 (KHTML, like Gecko) Chrome/94.0.4606.61 Safari/537.36",legacy,legacy,legacy,0,uniform,1,1,left,42,42,42,42,0,0,0,42,42,0,0,0,42,42,42,0,0,42,42,0,29-08-21,29-08-21,11:45:51,Wed Sep 29 2021 11:45:51 GMT+0200 (Centraleuropæisk sommertid),The main experiment item,yes,0,0,/Users/ethan/Documents/GitHub/OpenSesame/Sternberg/experiment_files,0,0,0,no,mono,no,18,no,white,no,no,768,45,3.6.1,legacy,legacy,2 6 4 3 9,osweb,1.4.0,1,0,n,36,,0,left,,,right,right,right,left,764,,,16107,14919,14109,764,2,legacy,785,1440,24,900,24,0,23,1440,1632908743492,5,1024,2,48000,-16,experiment,1,odd,MacIntel,1,304044,,,300777,65,301818,247191,64,16174,105848,306060,302827,306827,65,306060,Sternberg_updated,32,35124,43,yes,1024
75,75,815,815,black,no,experiment,Mozilla,Netscape,"5.0 (Macintosh; Intel Mac OS X 10_15_7) AppleWebKit/537.36 (KHTML, like Gecko) Chrome/94.0.4606.61 Safari/537.36",legacy,legacy,legacy,0,uniform,1,1,left,43,43,43,43,0,0,0,43,43,0,0,0,43,43,43,0,0,43,43,0,29-08-21,29-08-21,11:45:51,Wed Sep 29 2021 11:45:51 GMT+0200 (Centraleuropæisk sommertid),The main experiment item,yes,0,0,/Users/ethan/Documents/GitHub/OpenSesame/Sternberg/experiment_files,0,0,0,no,mono,no,18,no,white,no,no,768,45,3.6.1,legacy,legacy,1 7 5 2 9,osweb,1.4.0,1,0,n,36,,0,left,,,right,right,right,left,743,,,16107,14919,14109,743,2,legacy,785,1440,24,900,24,0,23,1440,1632908743492,5,1024,2,48000,-16,experiment,1,odd,MacIntel,3,310094,,,306828,65,307865,247191,64,16174,105848,312110,308877,312860,65,312110,Sternberg_updated,33,35867,44,yes,1024
76,76,819,819,black,no,experiment,Mozilla,Netscape,"5.0 (Macintosh; Intel Mac OS X 10_15_7) AppleWebKit/537.36 (KHTML, like Gecko) Chrome/94.0.4606.61 Safari/537.36",legacy,legacy,legacy,0,uniform,1,1,left,44,44,44,44,0,0,0,44,44,0,0,0,44,44,44,0,0,44,44,0,29-08-21,29-08-21,11:45:51,Wed Sep 29 2021 11:45:51 GMT+0200 (Centraleuropæisk sommertid),The main experiment item,yes,0,0,/Users/ethan/Documents/GitHub/OpenSesame/Sternberg/experiment_files,0,0,0,no,mono,no,18,no,white,no,no,768,45,3.6.1,legacy,legacy,7 1 8 4 9 3,osweb,1.4.0,1,0,n,36,,0,left,,,right,right,right,left,1002,,,16107,14919,14109,1002,2,legacy,785,1440,24,900,24,0,23,1440,1632908743492,6,1024,2,48000,-16,experiment,1,odd,MacIntel,6,316128,,,312861,65,313898,247191,64,16174,105848,318145,314912,319161,65,318144,Sternberg_updated,34,36869,45,yes,1024
76,76,817,817,black,no,experiment,Mozilla,Netscape,"5.0 (Macintosh; Intel Mac OS X 10_15_7) AppleWebKit/537.36 (KHTML, like Gecko) Chrome/94.0.4606.61 Safari/537.36",legacy,legacy,legacy,0,uniform,1,1,left,45,45,45,45,0,0,0,45,45,0,0,0,45,45,45,0,0,45,45,0,29-08-21,29-08-21,11:45:51,Wed Sep 29 2021 11:45:51 GMT+0200 (Centraleuropæisk sommertid),The main experiment item,yes,0,0,/Users/ethan/Documents/GitHub/OpenSesame/Sternberg/experiment_files,0,0,0,no,mono,no,18,no,white,no,no,768,45,3.6.1,legacy,legacy,6 9 4 5 2,osweb,1.4.0,1,0,n,36,,0,left,,,right,right,right,left,719,,,16107,14919,14109,719,2,legacy,785,1440,24,900,24,0,23,1440,1632908743492,5,1024,2,48000,-16,experiment,1,odd,MacIntel,1,322428,,,319162,65,320199,247191,64,16174,105848,324445,321212,325178,65,324445,Sternberg_updated,35,37588,46,yes,1024
77,77,809,809,black,no,experiment,Mozilla,Netscape,"5.0 (Macintosh; Intel Mac OS X 10_15_7) AppleWebKit/537.36 (KHTML, like Gecko) Chrome/94.0.4606.61 Safari/537.36",legacy,legacy,legacy,0,uniform,1,1,right,46,46,46,46,0,0,0,46,46,0,0,0,46,46,46,0,0,46,46,0,29-08-21,29-08-21,11:45:51,Wed Sep 29 2021 11:45:51 GMT+0200 (Centraleuropæisk sommertid),The main experiment item,yes,0,0,/Users/ethan/Documents/GitHub/OpenSesame/Sternberg/experiment_files,0,0,0,no,mono,no,18,no,white,no,no,768,45,3.6.1,legacy,legacy,6 5,osweb,1.4.0,1,2,y,36,,0,right,,,right,right,right,right,428,,,16107,14919,14109,428,2,legacy,785,1440,24,900,24,0,23,1440,1632908743492,2,1024,2,48000,-16,experiment,1,odd,MacIntel,5,328445,,,325179,65,326216,247191,64,16174,105848,330462,327229,330895,65,330462,Sternberg_updated,36,38016,47,yes,1024
77,77,805,805,black,no,experiment,Mozilla,Netscape,"5.0 (Macintosh; Intel Mac OS X 10_15_7) AppleWebKit/537.36 (KHTML, like Gecko) Chrome/94.0.4606.61 Safari/537.36",legacy,legacy,legacy,0,uniform,1,1,right,47,47,47,47,0,0,0,47,47,0,0,0,47,47,47,0,0,47,47,0,29-08-21,29-08-21,11:45:51,Wed Sep 29 2021 11:45:51 GMT+0200 (Centraleuropæisk sommertid),The main experiment item,yes,0,0,/Users/ethan/Documents/GitHub/OpenSesame/Sternberg/experiment_files,0,0,0,no,mono,no,18,no,white,no,no,768,45,3.6.1,legacy,legacy,9 5 3 8 4,osweb,1.4.0,1,1,y,36,,0,right,,,right,right,right,right,607,,,16107,14919,14109,607,2,legacy,785,1440,24,900,24,0,23,1440,1632908743492,5,1024,2,48000,-16,experiment,1,odd,MacIntel,9,334162,,,330896,65,331936,247191,64,16174,105848,336180,332946,336796,65,336180,Sternberg_updated,37,38623,48,yes,1024
78,78,801,801,black,no,experiment,Mozilla,Netscape,"5.0 (Macintosh; Intel Mac OS X 10_15_7) AppleWebKit/537.36 (KHTML, like Gecko) Chrome/94.0.4606.61 Safari/537.36",legacy,legacy,legacy,0,uniform,1,1,left,48,48,48,48,0,0,0,48,48,0,0,0,48,48,48,0,0,48,48,0,29-08-21,29-08-21,11:45:51,Wed Sep 29 2021 11:45:51 GMT+0200 (Centraleuropæisk sommertid),The main experiment item,yes,0,0,/Users/ethan/Documents/GitHub/OpenSesame/Sternberg/experiment_files,0,0,0,no,mono,no,18,no,white,no,no,768,45,3.6.1,legacy,legacy,6 9 5,osweb,1.4.0,1,0,n,36,,0,left,,,right,right,right,left,606,,,16107,14919,14109,606,2,legacy,785,1440,24,900,24,0,23,1440,1632908743492,3,1024,2,48000,-16,experiment,1,odd,MacIntel,8,340046,,,336797,65,337840,247191,64,16174,105848,342063,338845,342679,65,342063,Sternberg_updated,38,39229,49,yes,1024
78,78,796,796,black,no,experiment,Mozilla,Netscape,"5.0 (Macintosh; Intel Mac OS X 10_15_7) AppleWebKit/537.36 (KHTML, like Gecko) Chrome/94.0.4606.61 Safari/537.36",legacy,legacy,legacy,0,uniform,1,1,right,49,49,49,49,0,0,0,49,49,0,0,0,49,49,49,0,0,49,49,0,29-08-21,29-08-21,11:45:51,Wed Sep 29 2021 11:45:51 GMT+0200 (Centraleuropæisk sommertid),The main experiment item,yes,0,0,/Users/ethan/Documents/GitHub/OpenSesame/Sternberg/experiment_files,0,0,0,no,mono,no,18,no,white,no,no,768,45,3.6.1,legacy,legacy,9 6 2 4 1,osweb,1.4.0,1,4,y,36,,0,right,,,right,right,right,right,548,,,16107,14919,14109,548,2,legacy,785,1440,24,900,24,0,23,1440,1632908743492,5,1024,2,48000,-16,experiment,1,odd,MacIntel,4,345946,,,342681,65,343717,247191,64,16174,105848,347963,344730,348512,65,347963,Sternberg_updated,39,39777,50,yes,1024
78,78,790,790,black,no,experiment,Mozilla,Netscape,"5.0 (Macintosh; Intel Mac OS X 10_15_7) AppleWebKit/537.36 (KHTML, like Gecko) Chrome/94.0.4606.61 Safari/537.36",legacy,legacy,legacy,0,uniform,1,1,right,50,50,50,50,0,0,0,50,50,0,0,0,50,50,50,0,0,50,50,0,29-08-21,29-08-21,11:45:51,Wed Sep 29 2021 11:45:51 GMT+0200 (Centraleuropæisk sommertid),The main experiment item,yes,0,0,/Users/ethan/Documents/GitHub/OpenSesame/Sternberg/experiment_files,0,0,0,no,mono,no,18,no,white,no,no,768,45,3.6.1,legacy,legacy,7 4 2 6 3 5,osweb,1.4.0,1,6,y,36,,0,right,,,right,right,right,right,503,,,16107,14919,14109,503,2,legacy,785,1440,24,900,24,0,23,1440,1632908743492,6,1024,2,48000,-16,experiment,1,odd,MacIntel,5,351779,,,348513,65,349546,247191,64,16174,105848,353797,350564,354313,65,353797,Sternberg_updated,40,40280,51,yes,1024
79,79,788,788,black,no,experiment,Mozilla,Netscape,"5.0 (Macintosh; Intel Mac OS X 10_15_7) AppleWebKit/537.36 (KHTML, like Gecko) Chrome/94.0.4606.61 Safari/537.36",legacy,legacy,legacy,0,uniform,1,1,left,51,51,51,51,0,0,0,51,51,0,0,0,51,51,51,0,0,51,51,0,29-08-21,29-08-21,11:45:51,Wed Sep 29 2021 11:45:51 GMT+0200 (Centraleuropæisk sommertid),The main experiment item,yes,0,0,/Users/ethan/Documents/GitHub/OpenSesame/Sternberg/experiment_files,0,0,0,no,mono,no,18,no,white,no,no,768,45,3.6.1,legacy,legacy,6 8 4,osweb,1.4.0,1,0,n,36,,0,left,,,right,right,right,left,679,,,16107,14919,14109,679,2,legacy,785,1440,24,900,24,0,23,1440,1632908743492,3,1024,2,48000,-16,experiment,1,odd,MacIntel,1,357583,,,354314,65,355350,247191,64,16174,105848,359598,356365,360280,65,359598,Sternberg_updated,41,40959,52,yes,1024
79,79,790,790,black,no,experiment,Mozilla,Netscape,"5.0 (Macintosh; Intel Mac OS X 10_15_7) AppleWebKit/537.36 (KHTML, like Gecko) Chrome/94.0.4606.61 Safari/537.36",legacy,legacy,legacy,0,uniform,1,1,left,52,52,52,52,0,0,0,52,52,0,0,0,52,52,52,0,0,52,52,0,29-08-21,29-08-21,11:45:51,Wed Sep 29 2021 11:45:51 GMT+0200 (Centraleuropæisk sommertid),The main experiment item,yes,0,0,/Users/ethan/Documents/GitHub/OpenSesame/Sternberg/experiment_files,0,0,0,no,mono,no,18,no,white,no,no,768,45,3.6.1,legacy,legacy,2 8 9,osweb,1.4.0,1,0,n,36,,0,left,,,right,right,right,left,902,,,16107,14919,14109,902,2,legacy,785,1440,24,900,24,0,23,1440,1632908743492,3,1024,2,48000,-16,experiment,1,odd,MacIntel,6,363548,,,360281,65,361318,247191,64,16174,105848,365564,362331,366481,65,365564,Sternberg_updated,42,41861,53,yes,1024
80,80,786,786,black,no,experiment,Mozilla,Netscape,"5.0 (Macintosh; Intel Mac OS X 10_15_7) AppleWebKit/537.36 (KHTML, like Gecko) Chrome/94.0.4606.61 Safari/537.36",legacy,legacy,legacy,0,uniform,1,1,left,53,53,53,53,0,0,0,53,53,0,0,0,53,53,53,0,0,53,53,0,29-08-21,29-08-21,11:45:51,Wed Sep 29 2021 11:45:51 GMT+0200 (Centraleuropæisk sommertid),The main experiment item,yes,0,0,/Users/ethan/Documents/GitHub/OpenSesame/Sternberg/experiment_files,0,0,0,no,mono,no,18,no,white,no,no,768,45,3.6.1,legacy,legacy,2 7 5,osweb,1.4.0,1,0,n,36,,0,left,,,right,right,right,left,583,,,16107,14919,14109,583,2,legacy,785,1440,24,900,24,0,23,1440,1632908743492,3,1024,2,48000,-16,experiment,1,odd,MacIntel,8,369748,,,366482,65,367519,247191,64,16174,105848,371765,368532,372349,65,371765,Sternberg_updated,43,42444,54,yes,1024
80,80,785,785,black,no,experiment,Mozilla,Netscape,"5.0 (Macintosh; Intel Mac OS X 10_15_7) AppleWebKit/537.36 (KHTML, like Gecko) Chrome/94.0.4606.61 Safari/537.36",legacy,legacy,legacy,0,uniform,1,1,left,54,54,54,54,0,0,0,54,54,0,0,0,54,54,54,0,0,54,54,0,29-08-21,29-08-21,11:45:51,Wed Sep 29 2021 11:45:51 GMT+0200 (Centraleuropæisk sommertid),The main experiment item,yes,0,0,/Users/ethan/Documents/GitHub/OpenSesame/Sternberg/experiment_files,0,0,0,no,mono,no,18,no,white,no,no,768,45,3.6.1,legacy,legacy,6 3 1 7 9 8,osweb,1.4.0,1,0,n,36,,0,left,,,right,right,right,left,747,,,16107,14919,14109,747,2,legacy,785,1440,24,900,24,0,23,1440,1632908743492,6,1024,2,48000,-16,experiment,1,odd,MacIntel,4,375615,,,372353,65,373390,247191,64,16174,105848,377631,374399,378381,65,377631,Sternberg_updated,44,43191,55,yes,1024
79,79,784,784,black,no,experiment,Mozilla,Netscape,"5.0 (Macintosh; Intel Mac OS X 10_15_7) AppleWebKit/537.36 (KHTML, like Gecko) Chrome/94.0.4606.61 Safari/537.36",legacy,legacy,legacy,0,uniform,0,0,right,55,55,55,55,0,0,0,55,55,0,0,0,55,55,55,0,0,55,55,0,29-08-21,29-08-21,11:45:51,Wed Sep 29 2021 11:45:51 GMT+0200 (Centraleuropæisk sommertid),The main experiment item,yes,0,0,/Users/ethan/Documents/GitHub/OpenSesame/Sternberg/experiment_files,0,0,0,no,mono,no,18,no,white,no,no,768,45,3.6.1,legacy,legacy,6 2,osweb,1.4.0,1,1,y,36,,0,left,right,,right,right,right,left,736,8964,,16107,14919,14109,736,2,legacy,785,1440,24,900,24,0,23,1440,1632908743492,2,1024,2,48000,-16,experiment,1,odd,MacIntel,6,390617,379399,,378382,65,388385,247191,64,16174,105848,392633,389400,393383,65,392633,Sternberg_updated,44,43927,56,yes,1024
79,79,784,784,black,no,experiment,Mozilla,Netscape,"5.0 (Macintosh; Intel Mac OS X 10_15_7) AppleWebKit/537.36 (KHTML, like Gecko) Chrome/94.0.4606.61 Safari/537.36",legacy,legacy,legacy,0,uniform,1,1,right,56,56,56,56,0,0,0,56,56,0,0,0,56,56,56,0,0,56,56,0,29-08-21,29-08-21,11:45:51,Wed Sep 29 2021 11:45:51 GMT+0200 (Centraleuropæisk sommertid),The main experiment item,yes,0,0,/Users/ethan/Documents/GitHub/OpenSesame/Sternberg/experiment_files,0,0,0,no,mono,no,18,no,white,no,no,768,45,3.6.1,legacy,legacy,3 5 4 7,osweb,1.4.0,1,1,y,36,,0,right,right,,right,right,right,right,741,8964,,16107,14919,14109,741,2,legacy,785,1440,24,900,24,0,23,1440,1632908743492,4,1024,2,48000,-16,experiment,1,odd,MacIntel,3,396650,379399,,378382,65,394421,393384,64,16174,105848,398667,395434,399428,65,398667,Sternberg_updated,45,44668,57,yes,1024
79,79,783,783,black,no,experiment,Mozilla,Netscape,"5.0 (Macintosh; Intel Mac OS X 10_15_7) AppleWebKit/537.36 (KHTML, like Gecko) Chrome/94.0.4606.61 Safari/537.36",legacy,legacy,legacy,0,uniform,1,1,right,57,57,57,57,0,0,0,57,57,0,0,0,57,57,57,0,0,57,57,0,29-08-21,29-08-21,11:45:51,Wed Sep 29 2021 11:45:51 GMT+0200 (Centraleuropæisk sommertid),The main experiment item,yes,0,0,/Users/ethan/Documents/GitHub/OpenSesame/Sternberg/experiment_files,0,0,0,no,mono,no,18,no,white,no,no,768,45,3.6.1,legacy,legacy,6 8 9 3 4 9,osweb,1.4.0,1,5,y,36,,0,right,right,,right,right,right,right,734,8964,,16107,14919,14109,734,2,legacy,785,1440,24,900,24,0,23,1440,1632908743492,6,1024,2,48000,-16,experiment,1,odd,MacIntel,4,402684,379399,,399428,65,400454,393384,64,16174,105848,404701,401467,405450,65,404701,Sternberg_updated,46,45402,58,yes,1024
80,80,780,780,black,no,experiment,Mozilla,Netscape,"5.0 (Macintosh; Intel Mac OS X 10_15_7) AppleWebKit/537.36 (KHTML, like Gecko) Chrome/94.0.4606.61 Safari/537.36",legacy,legacy,legacy,0,uniform,1,1,left,58,58,58,58,0,0,0,58,58,0,0,0,58,58,58,0,0,58,58,0,29-08-21,29-08-21,11:45:51,Wed Sep 29 2021 11:45:51 GMT+0200 (Centraleuropæisk sommertid),The main experiment item,yes,0,0,/Users/ethan/Documents/GitHub/OpenSesame/Sternberg/experiment_files,0,0,0,no,mono,no,18,no,white,no,no,768,45,3.6.1,legacy,legacy,9 8 2 7 4,osweb,1.4.0,1,0,n,36,,0,left,right,,right,right,right,left,634,8964,,16107,14919,14109,634,2,legacy,785,1440,24,900,24,0,23,1440,1632908743492,5,1024,2,48000,-16,experiment,1,odd,MacIntel,5,408717,379399,,405451,65,406488,393384,64,16174,105848,410734,407501,411384,65,410734,Sternberg_updated,47,46036,59,yes,1024
80,80,779,779,black,no,experiment,Mozilla,Netscape,"5.0 (Macintosh; Intel Mac OS X 10_15_7) AppleWebKit/537.36 (KHTML, like Gecko) Chrome/94.0.4606.61 Safari/537.36",legacy,legacy,legacy,0,uniform,1,1,right,59,59,59,59,0,0,0,59,59,0,0,0,59,59,59,0,0,59,59,0,29-08-21,29-08-21,11:45:51,Wed Sep 29 2021 11:45:51 GMT+0200 (Centraleuropæisk sommertid),The main experiment item,yes,0,0,/Users/ethan/Documents/GitHub/OpenSesame/Sternberg/experiment_files,0,0,0,no,mono,no,18,no,white,no,no,768,45,3.6.1,legacy,legacy,9 1 6 7 8,osweb,1.4.0,1,1,y,36,,0,right,right,,right,right,right,right,726,8964,,16107,14919,14109,726,2,legacy,785,1440,24,900,24,0,23,1440,1632908743492,5,1024,2,48000,-16,experiment,1,odd,MacIntel,9,414651,379399,,411385,65,412424,393384,64,16174,105848,416668,413435,417401,65,416668,Sternberg_updated,48,46762,60,yes,1024
80,80,778,778,black,no,experiment,Mozilla,Netscape,"5.0 (Macintosh; Intel Mac OS X 10_15_7) AppleWebKit/537.36 (KHTML, like Gecko) Chrome/94.0.4606.61 Safari/537.36",legacy,legacy,legacy,0,uniform,1,1,right,60,60,60,60,0,0,0,60,60,0,0,0,60,60,60,0,0,60,60,0,29-08-21,29-08-21,11:45:51,Wed Sep 29 2021 11:45:51 GMT+0200 (Centraleuropæisk sommertid),The main experiment item,yes,0,0,/Users/ethan/Documents/GitHub/OpenSesame/Sternberg/experiment_files,0,0,0,no,mono,no,18,no,white,no,no,768,45,3.6.1,legacy,legacy,7 2 3,osweb,1.4.0,1,3,y,36,,0,right,right,,right,right,right,right,673,8964,,16107,14919,14109,673,2,legacy,785,1440,24,900,24,0,23,1440,1632908743492,3,1024,2,48000,-16,experiment,1,odd,MacIntel,3,420668,379399,,417402,65,418438,393384,64,16174,105848,422686,419451,423368,65,422686,Sternberg_updated,49,47435,61,yes,1024
81,81,775,775,black,no,experiment,Mozilla,Netscape,"5.0 (Macintosh; Intel Mac OS X 10_15_7) AppleWebKit/537.36 (KHTML, like Gecko) Chrome/94.0.4606.61 Safari/537.36",legacy,legacy,legacy,0,uniform,1,1,left,61,61,61,61,0,0,0,61,61,0,0,0,61,61,61,0,0,61,61,0,29-08-21,29-08-21,11:45:51,Wed Sep 29 2021 11:45:51 GMT+0200 (Centraleuropæisk sommertid),The main experiment item,yes,0,0,/Users/ethan/Documents/GitHub/OpenSesame/Sternberg/experiment_files,0,0,0,no,mono,no,18,no,white,no,no,768,45,3.6.1,legacy,legacy,1 8 7,osweb,1.4.0,1,0,n,36,,0,left,right,,right,right,right,left,644,8964,,16107,14919,14109,644,2,legacy,785,1440,24,900,24,0,23,1440,1632908743492,3,1024,2,48000,-16,experiment,1,odd,MacIntel,4,426635,379399,,423369,65,424406,393384,64,16174,105848,428653,425419,429301,65,428653,Sternberg_updated,50,48079,62,yes,1024
81,81,773,773,black,no,experiment,Mozilla,Netscape,"5.0 (Macintosh; Intel Mac OS X 10_15_7) AppleWebKit/537.36 (KHTML, like Gecko) Chrome/94.0.4606.61 Safari/537.36",legacy,legacy,legacy,0,uniform,1,1,right,62,62,62,62,0,0,0,62,62,0,0,0,62,62,62,0,0,62,62,0,29-08-21,29-08-21,11:45:51,Wed Sep 29 2021 11:45:51 GMT+0200 (Centraleuropæisk sommertid),The main experiment item,yes,0,0,/Users/ethan/Documents/GitHub/OpenSesame/Sternberg/experiment_files,0,0,0,no,mono,no,18,no,white,no,no,768,45,3.6.1,legacy,legacy,2 3,osweb,1.4.0,1,1,y,36,,0,right,right,,right,right,right,right,611,8964,,16107,14919,14109,611,2,legacy,785,1440,24,900,24,0,23,1440,1632908743492,2,1024,2,48000,-16,experiment,1,odd,MacIntel,2,432569,379399,,429302,65,430339,393384,64,16174,105848,434586,431352,435203,65,434586,Sternberg_updated,51,48690,63,yes,1024
81,81,769,769,black,no,experiment,Mozilla,Netscape,"5.0 (Macintosh; Intel Mac OS X 10_15_7) AppleWebKit/537.36 (KHTML, like Gecko) Chrome/94.0.4606.61 Safari/537.36",legacy,legacy,legacy,0,uniform,1,1,right,63,63,63,63,0,0,0,63,63,0,0,0,63,63,63,0,0,63,63,0,29-08-21,29-08-21,11:45:51,Wed Sep 29 2021 11:45:51 GMT+0200 (Centraleuropæisk sommertid),The main experiment item,yes,0,0,/Users/ethan/Documents/GitHub/OpenSesame/Sternberg/experiment_files,0,0,0,no,mono,no,18,no,white,no,no,768,45,3.6.1,legacy,legacy,4 9 7 8 5 3,osweb,1.4.0,1,4,y,36,,0,right,right,,right,right,right,right,507,8964,,16107,14919,14109,507,2,legacy,785,1440,24,900,24,0,23,1440,1632908743492,6,1024,2,48000,-16,experiment,1,odd,MacIntel,8,438469,379399,,435204,65,436240,393384,64,16174,105848,440486,437253,441003,65,440486,Sternberg_updated,52,49197,64,yes,1024
82,82,767,767,black,no,experiment,Mozilla,Netscape,"5.0 (Macintosh; Intel Mac OS X 10_15_7) AppleWebKit/537.36 (KHTML, like Gecko) Chrome/94.0.4606.61 Safari/537.36",legacy,legacy,legacy,0,uniform,1,1,left,64,64,64,64,0,0,0,64,64,0,0,0,64,64,64,0,0,64,64,0,29-08-21,29-08-21,11:45:51,Wed Sep 29 2021 11:45:51 GMT+0200 (Centraleuropæisk sommertid),The main experiment item,yes,0,0,/Users/ethan/Documents/GitHub/OpenSesame/Sternberg/experiment_files,0,0,0,no,mono,no,18,no,white,no,no,768,45,3.6.1,legacy,legacy,8 4 3 5,osweb,1.4.0,1,0,n,36,,0,left,right,,right,right,right,left,634,8964,,16107,14919,14109,634,2,legacy,785,1440,24,900,24,0,23,1440,1632908743492,4,1024,2,48000,-16,experiment,1,odd,MacIntel,6,444270,379399,,441004,65,442041,393384,64,16174,105848,446287,443054,446936,65,446287,Sternberg_updated,53,49831,65,yes,1024
82,82,767,767,black,no,experiment,Mozilla,Netscape,"5.0 (Macintosh; Intel Mac OS X 10_15_7) AppleWebKit/537.36 (KHTML, like Gecko) Chrome/94.0.4606.61 Safari/537.36",legacy,legacy,legacy,0,uniform,1,1,left,65,65,65,65,0,0,0,65,65,0,0,0,65,65,65,0,0,65,65,0,29-08-21,29-08-21,11:45:51,Wed Sep 29 2021 11:45:51 GMT+0200 (Centraleuropæisk sommertid),The main experiment item,yes,0,0,/Users/ethan/Documents/GitHub/OpenSesame/Sternberg/experiment_files,0,0,0,no,mono,no,18,no,white,no,no,768,45,3.6.1,legacy,legacy,1 4 3 6 5,osweb,1.4.0,1,0,n,36,,0,left,right,,right,right,right,left,778,8964,,16107,14919,14109,778,2,legacy,785,1440,24,900,24,0,23,1440,1632908743492,5,1024,2,48000,-16,experiment,1,odd,MacIntel,8,450203,379399,,446937,65,447976,393384,64,16174,105848,452221,448987,453003,65,452221,Sternberg_updated,54,50609,66,yes,1024
82,82,766,766,black,no,experiment,Mozilla,Netscape,"5.0 (Macintosh; Intel Mac OS X 10_15_7) AppleWebKit/537.36 (KHTML, like Gecko) Chrome/94.0.4606.61 Safari/537.36",legacy,legacy,legacy,0,uniform,1,1,left,66,66,66,66,0,0,0,66,66,0,0,0,66,66,66,0,0,66,66,0,29-08-21,29-08-21,11:45:51,Wed Sep 29 2021 11:45:51 GMT+0200 (Centraleuropæisk sommertid),The main experiment item,yes,0,0,/Users/ethan/Documents/GitHub/OpenSesame/Sternberg/experiment_files,0,0,0,no,mono,no,18,no,white,no,no,768,45,3.6.1,legacy,legacy,2 3 8 5 6 7,osweb,1.4.0,1,0,n,36,,0,left,right,,right,right,right,left,688,8964,,16107,14919,14109,688,2,legacy,785,1440,24,900,24,0,23,1440,1632908743492,6,1024,2,48000,-16,experiment,1,odd,MacIntel,1,456271,379399,,453004,65,454041,393384,64,16174,105848,458288,455055,458988,65,458288,Sternberg_updated,55,51297,67,yes,1024
82,82,764,764,black,no,experiment,Mozilla,Netscape,"5.0 (Macintosh; Intel Mac OS X 10_15_7) AppleWebKit/537.36 (KHTML, like Gecko) Chrome/94.0.4606.61 Safari/537.36",legacy,legacy,legacy,0,uniform,1,1,right,67,67,67,67,0,0,0,67,67,0,0,0,67,67,67,0,0,67,67,0,29-08-21,29-08-21,11:45:51,Wed Sep 29 2021 11:45:51 GMT+0200 (Centraleuropæisk sommertid),The main experiment item,yes,0,0,/Users/ethan/Documents/GitHub/OpenSesame/Sternberg/experiment_files,0,0,0,no,mono,no,18,no,white,no,no,768,45,3.6.1,legacy,legacy,3 4,osweb,1.4.0,1,1,y,36,,0,right,right,,right,right,right,right,688,8964,,16107,14919,14109,688,2,legacy,785,1440,24,900,24,0,23,1440,1632908743492,2,1024,2,48000,-16,experiment,1,odd,MacIntel,3,462254,379399,,458988,65,460025,393384,64,16174,105848,464271,461038,464972,65,464271,Sternberg_updated,56,51985,68,yes,1024
83,83,765,765,black,no,experiment,Mozilla,Netscape,"5.0 (Macintosh; Intel Mac OS X 10_15_7) AppleWebKit/537.36 (KHTML, like Gecko) Chrome/94.0.4606.61 Safari/537.36",legacy,legacy,legacy,0,uniform,1,1,left,68,68,68,68,0,0,0,68,68,0,0,0,68,68,68,0,0,68,68,0,29-08-21,29-08-21,11:45:51,Wed Sep 29 2021 11:45:51 GMT+0200 (Centraleuropæisk sommertid),The main experiment item,yes,0,0,/Users/ethan/Documents/GitHub/OpenSesame/Sternberg/experiment_files,0,0,0,no,mono,no,18,no,white,no,no,768,45,3.6.1,legacy,legacy,8 5 7 3 6,osweb,1.4.0,1,0,n,36,,0,left,right,,right,right,right,left,812,8964,,16107,14919,14109,812,2,legacy,785,1440,24,900,24,0,23,1440,1632908743492,5,1024,2,48000,-16,experiment,1,odd,MacIntel,9,468239,379399,,464973,65,466010,393384,64,16174,105848,470255,467022,471071,65,470255,Sternberg_updated,57,52797,69,yes,1024
83,83,764,764,black,no,experiment,Mozilla,Netscape,"5.0 (Macintosh; Intel Mac OS X 10_15_7) AppleWebKit/537.36 (KHTML, like Gecko) Chrome/94.0.4606.61 Safari/537.36",legacy,legacy,legacy,0,uniform,1,1,right,69,69,69,69,0,0,0,69,69,0,0,0,69,69,69,0,0,69,69,0,29-08-21,29-08-21,11:45:51,Wed Sep 29 2021 11:45:51 GMT+0200 (Centraleuropæisk sommertid),The main experiment item,yes,0,0,/Users/ethan/Documents/GitHub/OpenSesame/Sternberg/experiment_files,0,0,0,no,mono,no,18,no,white,no,no,768,45,3.6.1,legacy,legacy,2 4 6 9,osweb,1.4.0,1,3,y,36,,0,right,right,,right,right,right,right,694,8964,,16107,14919,14109,694,2,legacy,785,1440,24,900,24,0,23,1440,1632908743492,4,1024,2,48000,-16,experiment,1,odd,MacIntel,6,474339,379399,,471072,65,472109,393384,64,16174,105848,476356,473122,477055,65,476356,Sternberg_updated,58,53491,70,yes,1024
82,82,769,769,black,no,experiment,Mozilla,Netscape,"5.0 (Macintosh; Intel Mac OS X 10_15_7) AppleWebKit/537.36 (KHTML, like Gecko) Chrome/94.0.4606.61 Safari/537.36",legacy,legacy,legacy,0,uniform,0,0,left,70,70,70,70,0,0,0,70,70,0,0,0,70,70,70,0,0,70,70,0,29-08-21,29-08-21,11:45:51,Wed Sep 29 2021 11:45:51 GMT+0200 (Centraleuropæisk sommertid),The main experiment item,yes,0,0,/Users/ethan/Documents/GitHub/OpenSesame/Sternberg/experiment_files,0,0,0,no,mono,no,18,no,white,no,no,768,45,3.6.1,legacy,legacy,1 3 2 6 9,osweb,1.4.0,1,0,n,36,,0,right,right,,right,right,right,right,1076,8964,,16107,14919,14109,1076,2,legacy,785,1440,24,900,24,0,23,1440,1632908743492,5,1024,2,48000,-16,experiment,1,odd,MacIntel,5,480322,379399,,477056,65,478093,393384,64,16174,105848,482323,479106,483406,65,482323,Sternberg_updated,58,54567,71,yes,1024
82,82,768,768,black,no,experiment,Mozilla,Netscape,"5.0 (Macintosh; Intel Mac OS X 10_15_7) AppleWebKit/537.36 (KHTML, like Gecko) Chrome/94.0.4606.61 Safari/537.36",legacy,legacy,legacy,0,uniform,1,1,left,71,71,71,71,0,0,0,71,71,0,0,0,71,71,71,0,0,71,71,0,29-08-21,29-08-21,11:45:51,Wed Sep 29 2021 11:45:51 GMT+0200 (Centraleuropæisk sommertid),The main experiment item,yes,0,0,/Users/ethan/Documents/GitHub/OpenSesame/Sternberg/experiment_files,0,0,0,no,mono,no,18,no,white,no,no,768,45,3.6.1,legacy,legacy,1 7 8 3 9,osweb,1.4.0,1,0,n,36,,0,left,right,,right,right,right,left,737,8964,,16107,14919,14109,737,2,legacy,785,1440,24,900,24,0,23,1440,1632908743492,5,1024,2,48000,-16,experiment,1,odd,MacIntel,2,486673,379399,,477056,65,484444,483407,64,16174,105848,488689,485456,489439,65,488689,Sternberg_updated,59,55304,72,yes,1024
82,82,765,765,black,no,experiment,Mozilla,Netscape,"5.0 (Macintosh; Intel Mac OS X 10_15_7) AppleWebKit/537.36 (KHTML, like Gecko) Chrome/94.0.4606.61 Safari/537.36",legacy,legacy,legacy,0,uniform,1,1,right,72,72,72,72,0,0,0,72,72,0,0,0,72,72,72,0,0,72,72,0,29-08-21,29-08-21,11:45:51,Wed Sep 29 2021 11:45:51 GMT+0200 (Centraleuropæisk sommertid),The main experiment item,yes,0,0,/Users/ethan/Documents/GitHub/OpenSesame/Sternberg/experiment_files,0,0,0,no,mono,no,18,no,white,no,no,768,45,3.6.1,legacy,legacy,4 1 5,osweb,1.4.0,1,2,y,36,,0,right,right,,right,right,right,right,542,8964,,16107,14919,14109,542,2,legacy,785,1440,24,900,24,0,23,1440,1632908743492,3,1024,2,48000,-16,experiment,1,odd,MacIntel,1,492707,379399,,489440,65,490477,483407,64,16174,105848,494723,491490,495273,65,494723,Sternberg_updated,60,55846,73,yes,1024
82,82,765,765,black,no,experiment,Mozilla,Netscape,"5.0 (Macintosh; Intel Mac OS X 10_15_7) AppleWebKit/537.36 (KHTML, like Gecko) Chrome/94.0.4606.61 Safari/537.36",legacy,legacy,legacy,0,uniform,1,1,left,73,73,73,73,0,0,0,73,73,0,0,0,73,73,73,0,0,73,73,0,29-08-21,29-08-21,11:45:51,Wed Sep 29 2021 11:45:51 GMT+0200 (Centraleuropæisk sommertid),The main experiment item,yes,0,0,/Users/ethan/Documents/GitHub/OpenSesame/Sternberg/experiment_files,0,0,0,no,mono,no,18,no,white,no,no,768,45,3.6.1,legacy,legacy,6 9 7 3 8 2,osweb,1.4.0,1,0,n,36,,0,left,right,,right,right,right,left,739,8964,,16107,14919,14109,739,2,legacy,785,1440,24,900,24,0,23,1440,1632908743492,6,1024,2,48000,-16,experiment,1,odd,MacIntel,5,498540,379399,,495274,65,496310,483407,64,16174,105848,500557,497324,501306,65,500557,Sternberg_updated,61,56585,74,yes,1024
83,83,763,763,black,no,experiment,Mozilla,Netscape,"5.0 (Macintosh; Intel Mac OS X 10_15_7) AppleWebKit/537.36 (KHTML, like Gecko) Chrome/94.0.4606.61 Safari/537.36",legacy,legacy,legacy,0,uniform,1,1,right,74,74,74,74,0,0,0,74,74,0,0,0,74,74,74,0,0,74,74,0,29-08-21,29-08-21,11:45:51,Wed Sep 29 2021 11:45:51 GMT+0200 (Centraleuropæisk sommertid),The main experiment item,yes,0,0,/Users/ethan/Documents/GitHub/OpenSesame/Sternberg/experiment_files,0,0,0,no,mono,no,18,no,white,no,no,768,45,3.6.1,legacy,legacy,3 4 9 6 2 9,osweb,1.4.0,1,5,y,36,,0,right,right,,right,right,right,right,661,8964,,16107,14919,14109,661,2,legacy,785,1440,24,900,24,0,23,1440,1632908743492,6,1024,2,48000,-16,experiment,1,odd,MacIntel,2,504574,379399,,501307,65,502345,483407,64,16174,105848,506591,503358,507256,65,506591,Sternberg_updated,62,57246,75,yes,1024
83,83,764,764,black,no,experiment,Mozilla,Netscape,"5.0 (Macintosh; Intel Mac OS X 10_15_7) AppleWebKit/537.36 (KHTML, like Gecko) Chrome/94.0.4606.61 Safari/537.36",legacy,legacy,legacy,0,uniform,1,1,right,75,75,75,75,0,0,0,75,75,0,0,0,75,75,75,0,0,75,75,0,29-08-21,29-08-21,11:45:51,Wed Sep 29 2021 11:45:51 GMT+0200 (Centraleuropæisk sommertid),The main experiment item,yes,0,0,/Users/ethan/Documents/GitHub/OpenSesame/Sternberg/experiment_files,0,0,0,no,mono,no,18,no,white,no,no,768,45,3.6.1,legacy,legacy,3 5 7 1,osweb,1.4.0,1,3,y,36,,0,right,right,,right,right,right,right,825,8964,,16107,14919,14109,825,2,legacy,785,1440,24,900,24,0,23,1440,1632908743492,4,1024,2,48000,-16,experiment,1,odd,MacIntel,7,510524,379399,,507257,65,508295,483407,64,16174,105848,512542,509307,513374,65,512542,Sternberg_updated,63,58071,76,yes,1024
82,82,769,769,black,no,experiment,Mozilla,Netscape,"5.0 (Macintosh; Intel Mac OS X 10_15_7) AppleWebKit/537.36 (KHTML, like Gecko) Chrome/94.0.4606.61 Safari/537.36",legacy,legacy,legacy,0,uniform,0,0,left,76,76,76,76,0,0,0,76,76,0,0,0,76,76,76,0,0,76,76,0,29-08-21,29-08-21,11:45:51,Wed Sep 29 2021 11:45:51 GMT+0200 (Centraleuropæisk sommertid),The main experiment item,yes,0,0,/Users/ethan/Documents/GitHub/OpenSesame/Sternberg/experiment_files,0,0,0,no,mono,no,18,no,white,no,no,768,45,3.6.1,legacy,legacy,9,osweb,1.4.0,1,0,n,36,,0,right,right,,right,right,right,right,1132,8964,,16107,14919,14109,1132,2,legacy,785,1440,24,900,24,0,23,1440,1632908743492,1,1024,2,48000,-16,experiment,1,odd,MacIntel,6,516641,379399,,513375,65,514411,483407,64,16174,105848,518658,515425,519792,65,518658,Sternberg_updated,63,59203,77,yes,1024
82,82,769,769,black,no,experiment,Mozilla,Netscape,"5.0 (Macintosh; Intel Mac OS X 10_15_7) AppleWebKit/537.36 (KHTML, like Gecko) Chrome/94.0.4606.61 Safari/537.36",legacy,legacy,legacy,0,uniform,1,1,right,77,77,77,77,0,0,0,77,77,0,0,0,77,77,77,0,0,77,77,0,29-08-21,29-08-21,11:45:51,Wed Sep 29 2021 11:45:51 GMT+0200 (Centraleuropæisk sommertid),The main experiment item,yes,0,0,/Users/ethan/Documents/GitHub/OpenSesame/Sternberg/experiment_files,0,0,0,no,mono,no,18,no,white,no,no,768,45,3.6.1,legacy,legacy,4 7 6 8 2 3,osweb,1.4.0,1,6,y,36,,0,right,right,,right,right,right,right,769,8964,,16107,14919,14109,769,2,legacy,785,1440,24,900,24,0,23,1440,1632908743492,6,1024,2,48000,-16,experiment,1,odd,MacIntel,3,523058,379399,,513375,65,520829,519793,64,16174,105848,525076,521842,525858,65,525075,Sternberg_updated,64,59972,78,yes,1024
82,82,770,770,black,no,experiment,Mozilla,Netscape,"5.0 (Macintosh; Intel Mac OS X 10_15_7) AppleWebKit/537.36 (KHTML, like Gecko) Chrome/94.0.4606.61 Safari/537.36",legacy,legacy,legacy,0,uniform,1,1,left,78,78,78,78,0,0,0,78,78,0,0,0,78,78,78,0,0,78,78,0,29-08-21,29-08-21,11:45:51,Wed Sep 29 2021 11:45:51 GMT+0200 (Centraleuropæisk sommertid),The main experiment item,yes,0,0,/Users/ethan/Documents/GitHub/OpenSesame/Sternberg/experiment_files,0,0,0,no,mono,no,18,no,white,no,no,768,45,3.6.1,legacy,legacy,7 3 2 8,osweb,1.4.0,1,0,n,36,,0,left,right,,right,right,right,left,860,8964,,16107,14919,14109,860,2,legacy,785,1440,24,900,24,0,23,1440,1632908743492,4,1024,2,48000,-16,experiment,1,odd,MacIntel,4,529126,379399,,525859,65,526896,519793,64,16174,105848,531142,527909,532009,65,531141,Sternberg_updated,65,60832,79,yes,1024
83,83,769,769,black,no,experiment,Mozilla,Netscape,"5.0 (Macintosh; Intel Mac OS X 10_15_7) AppleWebKit/537.36 (KHTML, like Gecko) Chrome/94.0.4606.61 Safari/537.36",legacy,legacy,legacy,0,uniform,1,1,left,79,79,79,79,0,0,0,79,79,0,0,0,79,79,79,0,0,79,79,0,29-08-21,29-08-21,11:45:51,Wed Sep 29 2021 11:45:51 GMT+0200 (Centraleuropæisk sommertid),The main experiment item,yes,0,0,/Users/ethan/Documents/GitHub/OpenSesame/Sternberg/experiment_files,0,0,0,no,mono,no,18,no,white,no,no,768,45,3.6.1,legacy,legacy,1 5 3 2 8,osweb,1.4.0,1,0,n,36,,0,left,right,,right,right,right,left,719,8964,,16107,14919,14109,719,2,legacy,785,1440,24,900,24,0,23,1440,1632908743492,5,1024,2,48000,-16,experiment,1,odd,MacIntel,4,535275,379399,,532010,65,533045,519793,64,16174,105848,537276,534060,538009,65,537276,Sternberg_updated,66,61551,80,yes,1024
83,83,768,768,black,no,experiment,Mozilla,Netscape,"5.0 (Macintosh; Intel Mac OS X 10_15_7) AppleWebKit/537.36 (KHTML, like Gecko) Chrome/94.0.4606.61 Safari/537.36",legacy,legacy,legacy,0,uniform,1,1,left,80,80,80,80,0,0,0,80,80,0,0,0,80,80,80,0,0,80,80,0,29-08-21,29-08-21,11:45:51,Wed Sep 29 2021 11:45:51 GMT+0200 (Centraleuropæisk sommertid),The main experiment item,yes,0,0,/Users/ethan/Documents/GitHub/OpenSesame/Sternberg/experiment_files,0,0,0,no,mono,no,18,no,white,no,no,768,45,3.6.1,legacy,legacy,7 9,osweb,1.4.0,1,0,n,36,,0,left,right,,right,right,right,left,630,8964,,16107,14919,14109,630,2,legacy,785,1440,24,900,24,0,23,1440,1632908743492,2,1024,2,48000,-16,experiment,1,odd,MacIntel,1,541277,379399,,538010,65,539047,519793,64,16174,105848,543293,540060,543926,65,543293,Sternberg_updated,67,62181,81,yes,1024
82,82,768,768,black,no,experiment,Mozilla,Netscape,"5.0 (Macintosh; Intel Mac OS X 10_15_7) AppleWebKit/537.36 (KHTML, like Gecko) Chrome/94.0.4606.61 Safari/537.36",legacy,legacy,legacy,0,uniform,0,0,left,81,81,81,81,0,0,0,81,81,0,0,0,81,81,81,0,0,81,81,0,29-08-21,29-08-21,11:45:51,Wed Sep 29 2021 11:45:51 GMT+0200 (Centraleuropæisk sommertid),The main experiment item,yes,0,0,/Users/ethan/Documents/GitHub/OpenSesame/Sternberg/experiment_files,0,0,0,no,mono,no,18,no,white,no,no,768,45,3.6.1,legacy,legacy,3 9 8 1 6 4,osweb,1.4.0,1,0,n,36,,0,right,right,,right,right,right,right,769,8964,,16107,14919,14109,769,2,legacy,785,1440,24,900,24,0,23,1440,1632908743492,6,1024,2,48000,-16,experiment,1,odd,MacIntel,7,547193,379399,,543927,65,544964,519793,64,16174,105848,549194,545977,549977,65,549194,Sternberg_updated,67,62950,82,yes,1024
81,81,766,766,black,no,experiment,Mozilla,Netscape,"5.0 (Macintosh; Intel Mac OS X 10_15_7) AppleWebKit/537.36 (KHTML, like Gecko) Chrome/94.0.4606.61 Safari/537.36",legacy,legacy,legacy,0,uniform,0,0,right,82,82,82,82,0,0,0,82,82,0,0,0,82,82,82,0,0,82,82,0,29-08-21,29-08-21,11:45:51,Wed Sep 29 2021 11:45:51 GMT+0200 (Centraleuropæisk sommertid),The main experiment item,yes,0,0,/Users/ethan/Documents/GitHub/OpenSesame/Sternberg/experiment_files,0,0,0,no,mono,no,18,no,white,no,no,768,45,3.6.1,legacy,legacy,7,osweb,1.4.0,1,1,y,36,,0,left,right,,right,right,right,left,604,8964,,16107,14919,14109,604,2,legacy,785,1440,24,900,24,0,23,1440,1632908743492,1,1024,2,48000,-16,experiment,1,odd,MacIntel,7,553244,379399,,543927,65,551015,549978,64,16174,105848,555261,552028,555878,65,555261,Sternberg_updated,67,63554,83,yes,1024
81,81,766,766,black,no,experiment,Mozilla,Netscape,"5.0 (Macintosh; Intel Mac OS X 10_15_7) AppleWebKit/537.36 (KHTML, like Gecko) Chrome/94.0.4606.61 Safari/537.36",legacy,legacy,legacy,0,uniform,1,1,right,83,83,83,83,0,0,0,83,83,0,0,0,83,83,83,0,0,83,83,0,29-08-21,29-08-21,11:45:51,Wed Sep 29 2021 11:45:51 GMT+0200 (Centraleuropæisk sommertid),The main experiment item,yes,0,0,/Users/ethan/Documents/GitHub/OpenSesame/Sternberg/experiment_files,0,0,0,no,mono,no,18,no,white,no,no,768,45,3.6.1,legacy,legacy,6 9 7 4 5 1,osweb,1.4.0,1,2,y,36,,0,right,right,,right,right,right,right,830,8964,,16107,14919,14109,830,2,legacy,785,1440,24,900,24,0,23,1440,1632908743492,6,1024,2,48000,-16,experiment,1,odd,MacIntel,9,559144,379399,,543927,65,556917,555879,64,16174,105848,561161,557928,561995,65,561161,Sternberg_updated,68,64384,84,yes,1024
81,81,765,765,black,no,experiment,Mozilla,Netscape,"5.0 (Macintosh; Intel Mac OS X 10_15_7) AppleWebKit/537.36 (KHTML, like Gecko) Chrome/94.0.4606.61 Safari/537.36",legacy,legacy,legacy,0,uniform,1,1,right,84,84,84,84,0,0,0,84,84,0,0,0,84,84,84,0,0,84,84,0,29-08-21,29-08-21,11:45:51,Wed Sep 29 2021 11:45:51 GMT+0200 (Centraleuropæisk sommertid),The main experiment item,yes,0,0,/Users/ethan/Documents/GitHub/OpenSesame/Sternberg/experiment_files,0,0,0,no,mono,no,18,no,white,no,no,768,45,3.6.1,legacy,legacy,2 3 7 4,osweb,1.4.0,1,1,y,36,,0,right,right,,right,right,right,right,633,8964,,16107,14919,14109,633,2,legacy,785,1440,24,900,24,0,23,1440,1632908743492,4,1024,2,48000,-16,experiment,1,odd,MacIntel,2,565262,379399,,561996,65,563034,555879,64,16174,105848,567279,564045,567928,65,567279,Sternberg_updated,69,65017,85,yes,1024
81,81,763,763,black,no,experiment,Mozilla,Netscape,"5.0 (Macintosh; Intel Mac OS X 10_15_7) AppleWebKit/537.36 (KHTML, like Gecko) Chrome/94.0.4606.61 Safari/537.36",legacy,legacy,legacy,0,uniform,1,1,right,85,85,85,85,0,0,0,85,85,0,0,0,85,85,85,0,0,85,85,0,29-08-21,29-08-21,11:45:51,Wed Sep 29 2021 11:45:51 GMT+0200 (Centraleuropæisk sommertid),The main experiment item,yes,0,0,/Users/ethan/Documents/GitHub/OpenSesame/Sternberg/experiment_files,0,0,0,no,mono,no,18,no,white,no,no,768,45,3.6.1,legacy,legacy,8 5 1 3 9,osweb,1.4.0,1,4,y,36,,0,right,right,,right,right,right,right,588,8964,,16107,14919,14109,588,2,legacy,785,1440,24,900,24,0,23,1440,1632908743492,5,1024,2,48000,-16,experiment,1,odd,MacIntel,3,571179,379399,,567929,65,568964,555879,64,16174,105848,573195,569978,573795,65,573195,Sternberg_updated,70,65605,86,yes,1024
82,82,761,761,black,no,experiment,Mozilla,Netscape,"5.0 (Macintosh; Intel Mac OS X 10_15_7) AppleWebKit/537.36 (KHTML, like Gecko) Chrome/94.0.4606.61 Safari/537.36",legacy,legacy,legacy,0,uniform,1,1,right,86,86,86,86,0,0,0,86,86,0,0,0,86,86,86,0,0,86,86,0,29-08-21,29-08-21,11:45:51,Wed Sep 29 2021 11:45:51 GMT+0200 (Centraleuropæisk sommertid),The main experiment item,yes,0,0,/Users/ethan/Documents/GitHub/OpenSesame/Sternberg/experiment_files,0,0,0,no,mono,no,18,no,white,no,no,768,45,3.6.1,legacy,legacy,8 7 3,osweb,1.4.0,1,1,y,36,,0,right,right,,right,right,right,right,629,8964,,16107,14919,14109,629,2,legacy,785,1440,24,900,24,0,23,1440,1632908743492,3,1024,2,48000,-16,experiment,1,odd,MacIntel,8,577062,379399,,573796,65,574833,555879,64,16174,105848,579080,575846,579711,65,579080,Sternberg_updated,71,66234,87,yes,1024
82,82,759,759,black,no,experiment,Mozilla,Netscape,"5.0 (Macintosh; Intel Mac OS X 10_15_7) AppleWebKit/537.36 (KHTML, like Gecko) Chrome/94.0.4606.61 Safari/537.36",legacy,legacy,legacy,0,uniform,1,1,right,87,87,87,87,0,0,0,87,87,0,0,0,87,87,87,0,0,87,87,0,29-08-21,29-08-21,11:45:51,Wed Sep 29 2021 11:45:51 GMT+0200 (Centraleuropæisk sommertid),The main experiment item,yes,0,0,/Users/ethan/Documents/GitHub/OpenSesame/Sternberg/experiment_files,0,0,0,no,mono,no,18,no,white,no,no,768,45,3.6.1,legacy,legacy,4 3 2 5 8,osweb,1.4.0,1,2,y,36,,0,right,right,,right,right,right,right,567,8964,,16107,14919,14109,567,2,legacy,785,1440,24,900,24,0,23,1440,1632908743492,5,1024,2,48000,-16,experiment,1,odd,MacIntel,3,582980,379399,,579712,65,580750,555879,64,16174,105848,584996,581762,585579,65,584996,Sternberg_updated,72,66801,88,yes,1024
82,82,758,758,black,no,experiment,Mozilla,Netscape,"5.0 (Macintosh; Intel Mac OS X 10_15_7) AppleWebKit/537.36 (KHTML, like Gecko) Chrome/94.0.4606.61 Safari/537.36",legacy,legacy,legacy,0,uniform,1,1,left,88,88,88,88,0,0,0,88,88,0,0,0,88,88,88,0,0,88,88,0,29-08-21,29-08-21,11:45:51,Wed Sep 29 2021 11:45:51 GMT+0200 (Centraleuropæisk sommertid),The main experiment item,yes,0,0,/Users/ethan/Documents/GitHub/OpenSesame/Sternberg/experiment_files,0,0,0,no,mono,no,18,no,white,no,no,768,45,3.6.1,legacy,legacy,3 9 1,osweb,1.4.0,1,0,n,36,,0,left,right,,right,right,right,left,698,8964,,16107,14919,14109,698,2,legacy,785,1440,24,900,24,0,23,1440,1632908743492,3,1024,2,48000,-16,experiment,1,odd,MacIntel,7,588847,379399,,585580,65,586620,555879,64,16174,105848,590864,587630,591562,65,590864,Sternberg_updated,73,67499,89,yes,1024
82,82,759,759,black,no,experiment,Mozilla,Netscape,"5.0 (Macintosh; Intel Mac OS X 10_15_7) AppleWebKit/537.36 (KHTML, like Gecko) Chrome/94.0.4606.61 Safari/537.36",legacy,legacy,legacy,0,uniform,1,1,right,89,89,89,89,0,0,0,89,89,0,0,0,89,89,89,0,0,89,89,0,29-08-21,29-08-21,11:45:51,Wed Sep 29 2021 11:45:51 GMT+0200 (Centraleuropæisk sommertid),The main experiment item,yes,0,0,/Users/ethan/Documents/GitHub/OpenSesame/Sternberg/experiment_files,0,0,0,no,mono,no,18,no,white,no,no,768,45,3.6.1,legacy,legacy,9 8 4,osweb,1.4.0,1,1,y,36,,0,right,right,,right,right,right,right,775,8964,,16107,14919,14109,775,2,legacy,785,1440,24,900,24,0,23,1440,1632908743492,3,1024,2,48000,-16,experiment,1,odd,MacIntel,9,594830,379399,,591563,65,592602,555879,64,16174,105848,596848,593613,597630,65,596848,Sternberg_updated,74,68274,90,yes,1024
82,82,760,760,black,no,experiment,Mozilla,Netscape,"5.0 (Macintosh; Intel Mac OS X 10_15_7) AppleWebKit/537.36 (KHTML, like Gecko) Chrome/94.0.4606.61 Safari/537.36",legacy,legacy,legacy,0,uniform,1,1,left,90,90,90,90,0,0,0,90,90,0,0,0,90,90,90,0,0,90,90,0,29-08-21,29-08-21,11:45:51,Wed Sep 29 2021 11:45:51 GMT+0200 (Centraleuropæisk sommertid),The main experiment item,yes,0,0,/Users/ethan/Documents/GitHub/OpenSesame/Sternberg/experiment_files,0,0,0,no,mono,no,18,no,white,no,no,768,45,3.6.1,legacy,legacy,6 7 5 9,osweb,1.4.0,1,0,n,36,,0,left,right,,right,right,right,left,845,8964,,16107,14919,14109,845,2,legacy,785,1440,24,900,24,0,23,1440,1632908743492,4,1024,2,48000,-16,experiment,1,odd,MacIntel,2,600897,379399,,597631,65,598667,555879,64,16174,105848,602914,599681,603764,65,602914,Sternberg_updated,75,69119,91,yes,1024
83,83,760,760,black,no,experiment,Mozilla,Netscape,"5.0 (Macintosh; Intel Mac OS X 10_15_7) AppleWebKit/537.36 (KHTML, like Gecko) Chrome/94.0.4606.61 Safari/537.36",legacy,legacy,legacy,0,uniform,1,1,left,91,91,91,91,0,0,0,91,91,0,0,0,91,91,91,0,0,91,91,0,29-08-21,29-08-21,11:45:51,Wed Sep 29 2021 11:45:51 GMT+0200 (Centraleuropæisk sommertid),The main experiment item,yes,0,0,/Users/ethan/Documents/GitHub/OpenSesame/Sternberg/experiment_files,0,0,0,no,mono,no,18,no,white,no,no,768,45,3.6.1,legacy,legacy,8 4 3 9,osweb,1.4.0,1,0,n,36,,0,left,right,,right,right,right,left,828,8964,,16107,14919,14109,828,2,legacy,785,1440,24,900,24,0,23,1440,1632908743492,4,1024,2,48000,-16,experiment,1,odd,MacIntel,5,607031,379399,,603765,65,604807,555879,64,16174,105848,609048,605814,609882,65,609048,Sternberg_updated,76,69947,92,yes,1024
83,83,759,759,black,no,experiment,Mozilla,Netscape,"5.0 (Macintosh; Intel Mac OS X 10_15_7) AppleWebKit/537.36 (KHTML, like Gecko) Chrome/94.0.4606.61 Safari/537.36",legacy,legacy,legacy,0,uniform,1,1,left,92,92,92,92,0,0,0,92,92,0,0,0,92,92,92,0,0,92,92,0,29-08-21,29-08-21,11:45:51,Wed Sep 29 2021 11:45:51 GMT+0200 (Centraleuropæisk sommertid),The main experiment item,yes,0,0,/Users/ethan/Documents/GitHub/OpenSesame/Sternberg/experiment_files,0,0,0,no,mono,no,18,no,white,no,no,768,45,3.6.1,legacy,legacy,8 9,osweb,1.4.0,1,0,n,36,,0,left,right,,right,right,right,left,622,8964,,16107,14919,14109,622,2,legacy,785,1440,24,900,24,0,23,1440,1632908743492,2,1024,2,48000,-16,experiment,1,odd,MacIntel,5,613149,379399,,609883,65,610919,555879,64,16174,105848,615165,611932,615797,65,615165,Sternberg_updated,77,70569,93,yes,1024
83,83,758,758,black,no,experiment,Mozilla,Netscape,"5.0 (Macintosh; Intel Mac OS X 10_15_7) AppleWebKit/537.36 (KHTML, like Gecko) Chrome/94.0.4606.61 Safari/537.36",legacy,legacy,legacy,0,uniform,1,1,left,93,93,93,93,0,0,0,93,93,0,0,0,93,93,93,0,0,93,93,0,29-08-21,29-08-21,11:45:51,Wed Sep 29 2021 11:45:51 GMT+0200 (Centraleuropæisk sommertid),The main experiment item,yes,0,0,/Users/ethan/Documents/GitHub/OpenSesame/Sternberg/experiment_files,0,0,0,no,mono,no,18,no,white,no,no,768,45,3.6.1,legacy,legacy,5 3 2 6 9 8,osweb,1.4.0,1,0,n,36,,0,left,right,,right,right,right,left,641,8964,,16107,14919,14109,641,2,legacy,785,1440,24,900,24,0,23,1440,1632908743492,6,1024,2,48000,-16,experiment,1,odd,MacIntel,4,619065,379399,,615798,65,616835,555879,64,16174,105848,621083,617849,621732,65,621083,Sternberg_updated,78,71210,94,yes,1024
83,83,759,759,black,no,experiment,Mozilla,Netscape,"5.0 (Macintosh; Intel Mac OS X 10_15_7) AppleWebKit/537.36 (KHTML, like Gecko) Chrome/94.0.4606.61 Safari/537.36",legacy,legacy,legacy,0,uniform,1,1,left,94,94,94,94,0,0,0,94,94,0,0,0,94,94,94,0,0,94,94,0,29-08-21,29-08-21,11:45:51,Wed Sep 29 2021 11:45:51 GMT+0200 (Centraleuropæisk sommertid),The main experiment item,yes,0,0,/Users/ethan/Documents/GitHub/OpenSesame/Sternberg/experiment_files,0,0,0,no,mono,no,18,no,white,no,no,768,45,3.6.1,legacy,legacy,5 7 3,osweb,1.4.0,1,0,n,36,,0,left,right,,right,right,right,left,865,8964,,16107,14919,14109,865,2,legacy,785,1440,24,900,24,0,23,1440,1632908743492,3,1024,2,48000,-16,experiment,1,odd,MacIntel,9,624998,379399,,621735,65,622770,555879,64,16174,105848,626999,623783,627865,65,626999,Sternberg_updated,79,72075,95,yes,1024
83,83,757,757,black,no,experiment,Mozilla,Netscape,"5.0 (Macintosh; Intel Mac OS X 10_15_7) AppleWebKit/537.36 (KHTML, like Gecko) Chrome/94.0.4606.61 Safari/537.36",legacy,legacy,legacy,0,uniform,1,1,left,95,95,95,95,0,0,0,95,95,0,0,0,95,95,95,0,0,95,95,0,29-08-21,29-08-21,11:45:51,Wed Sep 29 2021 11:45:51 GMT+0200 (Centraleuropæisk sommertid),The main experiment item,yes,0,0,/Users/ethan/Documents/GitHub/OpenSesame/Sternberg/experiment_files,0,0,0,no,mono,no,18,no,white,no,no,768,45,3.6.1,legacy,legacy,7 1,osweb,1.4.0,1,0,n,36,,0,left,right,,right,right,right,left,643,8964,,16107,14919,14109,643,2,legacy,785,1440,24,900,24,0,23,1440,1632908743492,2,1024,2,48000,-16,experiment,1,odd,MacIntel,8,631133,379399,,627866,65,628904,555879,64,16174,105848,633149,629916,633799,65,633149,Sternberg_updated,80,72718,96,yes,1024
84,84,758,758,black,no,experiment,Mozilla,Netscape,"5.0 (Macintosh; Intel Mac OS X 10_15_7) AppleWebKit/537.36 (KHTML, like Gecko) Chrome/94.0.4606.61 Safari/537.36",legacy,legacy,legacy,0,uniform,1,1,right,96,96,96,96,0,0,0,96,96,0,0,0,96,96,96,0,0,96,96,0,29-08-21,29-08-21,11:45:51,Wed Sep 29 2021 11:45:51 GMT+0200 (Centraleuropæisk sommertid),The main experiment item,yes,0,0,/Users/ethan/Documents/GitHub/OpenSesame/Sternberg/experiment_files,0,0,0,no,mono,no,18,no,white,no,no,768,45,3.6.1,legacy,legacy,9 4 2,osweb,1.4.0,1,1,y,36,,0,right,right,,right,right,right,right,814,8964,,16107,14919,14109,814,2,legacy,785,1440,24,900,24,0,23,1440,1632908743492,3,1024,2,48000,-16,experiment,1,odd,MacIntel,9,637066,379399,,633800,65,634840,555879,64,16174,105848,639084,635850,639900,65,639084,Sternberg_updated,81,73532,97,yes,1024
84,84,760,760,black,no,experiment,Mozilla,Netscape,"5.0 (Macintosh; Intel Mac OS X 10_15_7) AppleWebKit/537.36 (KHTML, like Gecko) Chrome/94.0.4606.61 Safari/537.36",legacy,legacy,legacy,0,uniform,1,1,right,97,97,97,97,0,0,0,97,97,0,0,0,97,97,97,0,0,97,97,0,29-08-21,29-08-21,11:45:51,Wed Sep 29 2021 11:45:51 GMT+0200 (Centraleuropæisk sommertid),The main experiment item,yes,0,0,/Users/ethan/Documents/GitHub/OpenSesame/Sternberg/experiment_files,0,0,0,no,mono,no,18,no,white,no,no,768,45,3.6.1,legacy,legacy,1 4 9 3 2 5,osweb,1.4.0,1,3,y,36,,0,right,right,right,right,right,right,right,944,8964,24265,16107,14919,14109,944,2,legacy,785,1440,24,900,24,0,23,1440,1632908743492,6,1024,2,48000,-16,experiment,1,odd,MacIntel,9,667419,379399,640917,639900,65,665203,555879,64,16174,105848,669436,666218,670386,65,669436,Sternberg_updated,82,74476,98,yes,1024
84,84,759,759,black,no,experiment,Mozilla,Netscape,"5.0 (Macintosh; Intel Mac OS X 10_15_7) AppleWebKit/537.36 (KHTML, like Gecko) Chrome/94.0.4606.61 Safari/537.36",legacy,legacy,legacy,0,uniform,1,1,left,98,98,98,98,0,0,0,98,98,0,0,0,98,98,98,0,0,98,98,0,29-08-21,29-08-21,11:45:51,Wed Sep 29 2021 11:45:51 GMT+0200 (Centraleuropæisk sommertid),The main experiment item,yes,0,0,/Users/ethan/Documents/GitHub/OpenSesame/Sternberg/experiment_files,0,0,0,no,mono,no,18,no,white,no,no,768,45,3.6.1,legacy,legacy,7 1 5 6 3,osweb,1.4.0,1,0,n,36,,0,left,right,right,right,right,right,left,620,8964,24265,16107,14919,14109,620,2,legacy,785,1440,24,900,24,0,23,1440,1632908743492,5,1024,2,48000,-16,experiment,1,odd,MacIntel,8,673652,379399,640917,670387,65,671422,555879,64,16174,105848,675669,672436,676302,65,675669,Sternberg_updated,83,75096,99,yes,1024
83,83,760,760,black,no,experiment,Mozilla,Netscape,"5.0 (Macintosh; Intel Mac OS X 10_15_7) AppleWebKit/537.36 (KHTML, like Gecko) Chrome/94.0.4606.61 Safari/537.36",legacy,legacy,legacy,0,uniform,0,0,left,99,99,99,99,0,0,0,99,99,0,0,0,99,99,99,0,0,99,99,0,29-08-21,29-08-21,11:45:51,Wed Sep 29 2021 11:45:51 GMT+0200 (Centraleuropæisk sommertid),The main experiment item,yes,0,0,/Users/ethan/Documents/GitHub/OpenSesame/Sternberg/experiment_files,0,0,0,no,mono,no,18,no,white,no,no,768,45,3.6.1,legacy,legacy,5,osweb,1.4.0,1,0,n,36,,0,right,right,right,right,right,right,right,917,8964,24265,16107,14919,14109,917,2,legacy,785,1440,24,900,24,0,23,1440,1632908743492,1,1024,2,48000,-16,experiment,1,odd,MacIntel,8,679570,379399,640917,676303,65,677343,555879,64,16174,105848,681585,678353,682502,65,681585,Sternberg_updated,83,76013,100,yes,1024
82,82,760,760,black,no,experiment,Mozilla,Netscape,"5.0 (Macintosh; Intel Mac OS X 10_15_7) AppleWebKit/537.36 (KHTML, like Gecko) Chrome/94.0.4606.61 Safari/537.36",legacy,legacy,legacy,0,uniform,0,0,right,100,100,100,100,0,0,0,100,100,0,0,0,100,100,100,0,0,100,100,0,29-08-21,29-08-21,11:45:51,Wed Sep 29 2021 11:45:51 GMT+0200 (Centraleuropæisk sommertid),The main experiment item,yes,0,0,/Users/ethan/Documents/GitHub/OpenSesame/Sternberg/experiment_files,0,0,0,no,mono,no,18,no,white,no,no,768,45,3.6.1,legacy,legacy,8,osweb,1.4.0,1,1,y,36,,0,left,right,right,right,right,right,left,711,8964,24265,16107,14919,14109,711,2,legacy,785,1440,24,900,24,0,23,1440,1632908743492,1,1024,2,48000,-16,experiment,1,odd,MacIntel,8,685769,379399,640917,676303,65,683540,682503,64,16174,105848,687787,684553,688503,65,687787,Sternberg_updated,83,76724,101,yes,1024
82,82,766,766,black,no,experiment,Mozilla,Netscape,"5.0 (Macintosh; Intel Mac OS X 10_15_7) AppleWebKit/537.36 (KHTML, like Gecko) Chrome/94.0.4606.61 Safari/537.36",legacy,legacy,legacy,0,uniform,1,1,left,101,101,101,101,0,0,0,101,101,0,0,0,101,101,101,0,0,101,101,0,29-08-21,29-08-21,11:45:51,Wed Sep 29 2021 11:45:51 GMT+0200 (Centraleuropæisk sommertid),The main experiment item,yes,0,0,/Users/ethan/Documents/GitHub/OpenSesame/Sternberg/experiment_files,0,0,0,no,mono,no,18,no,white,no,no,768,45,3.6.1,legacy,legacy,8 5 4 2 9 6,osweb,1.4.0,1,0,n,36,,0,left,right,right,right,right,right,left,1396,8964,24265,16107,14919,14109,1396,2,legacy,785,1440,24,900,24,0,23,1440,1632908743492,6,1024,2,48000,-16,experiment,1,odd,MacIntel,3,691770,379399,640917,676303,65,689541,688504,64,16174,105848,693787,690554,695188,65,693787,Sternberg_updated,84,78120,102,yes,1024
83,83,770,770,black,no,experiment,Mozilla,Netscape,"5.0 (Macintosh; Intel Mac OS X 10_15_7) AppleWebKit/537.36 (KHTML, like Gecko) Chrome/94.0.4606.61 Safari/537.36",legacy,legacy,legacy,0,uniform,1,1,left,102,102,102,102,0,0,0,102,102,0,0,0,102,102,102,0,0,102,102,0,29-08-21,29-08-21,11:45:51,Wed Sep 29 2021 11:45:51 GMT+0200 (Centraleuropæisk sommertid),The main experiment item,yes,0,0,/Users/ethan/Documents/GitHub/OpenSesame/Sternberg/experiment_files,0,0,0,no,mono,no,18,no,white,no,no,768,45,3.6.1,legacy,legacy,5 2,osweb,1.4.0,1,0,n,36,,0,left,right,right,right,right,right,left,1238,8964,24265,16107,14919,14109,1238,2,legacy,785,1440,24,900,24,0,23,1440,1632908743492,2,1024,2,48000,-16,experiment,1,odd,MacIntel,7,698454,379399,640917,695189,65,696225,688504,64,16174,105848,700471,697238,701721,65,700471,Sternberg_updated,85,79358,103,yes,1024
83,83,772,772,black,no,experiment,Mozilla,Netscape,"5.0 (Macintosh; Intel Mac OS X 10_15_7) AppleWebKit/537.36 (KHTML, like Gecko) Chrome/94.0.4606.61 Safari/537.36",legacy,legacy,legacy,0,uniform,1,1,right,103,103,103,103,0,0,0,103,103,0,0,0,103,103,103,0,0,103,103,0,29-08-21,29-08-21,11:45:51,Wed Sep 29 2021 11:45:51 GMT+0200 (Centraleuropæisk sommertid),The main experiment item,yes,0,0,/Users/ethan/Documents/GitHub/OpenSesame/Sternberg/experiment_files,0,0,0,no,mono,no,18,no,white,no,no,768,45,3.6.1,legacy,legacy,8 3,osweb,1.4.0,1,2,y,36,,0,right,right,right,right,right,right,right,880,8964,24265,16107,14919,14109,880,2,legacy,785,1440,24,900,24,0,23,1440,1632908743492,2,1024,2,48000,-16,experiment,1,odd,MacIntel,3,704987,379399,640917,701722,65,702757,688504,64,16174,105848,707004,703771,707887,65,707004,Sternberg_updated,86,80238,104,yes,1024
82,82,772,772,black,no,experiment,Mozilla,Netscape,"5.0 (Macintosh; Intel Mac OS X 10_15_7) AppleWebKit/537.36 (KHTML, like Gecko) Chrome/94.0.4606.61 Safari/537.36",legacy,legacy,legacy,0,uniform,0,0,left,104,104,104,104,0,0,0,104,104,0,0,0,104,104,104,0,0,104,104,0,29-08-21,29-08-21,11:45:51,Wed Sep 29 2021 11:45:51 GMT+0200 (Centraleuropæisk sommertid),The main experiment item,yes,0,0,/Users/ethan/Documents/GitHub/OpenSesame/Sternberg/experiment_files,0,0,0,no,mono,no,18,no,white,no,no,768,45,3.6.1,legacy,legacy,3 4 9 6 7 8,osweb,1.4.0,1,0,n,36,,0,right,right,right,right,right,right,right,784,8964,24265,16107,14919,14109,784,2,legacy,785,1440,24,900,24,0,23,1440,1632908743492,6,1024,2,48000,-16,experiment,1,odd,MacIntel,2,711155,379399,640917,707888,65,708925,688504,64,16174,105848,713172,709939,713971,65,713172,Sternberg_updated,86,81022,105,yes,1024
82,82,770,770,black,no,experiment,Mozilla,Netscape,"5.0 (Macintosh; Intel Mac OS X 10_15_7) AppleWebKit/537.36 (KHTML, like Gecko) Chrome/94.0.4606.61 Safari/537.36",legacy,legacy,legacy,0,uniform,1,1,left,105,105,105,105,0,0,0,105,105,0,0,0,105,105,105,0,0,105,105,0,29-08-21,29-08-21,11:45:51,Wed Sep 29 2021 11:45:51 GMT+0200 (Centraleuropæisk sommertid),The main experiment item,yes,0,0,/Users/ethan/Documents/GitHub/OpenSesame/Sternberg/experiment_files,0,0,0,no,mono,no,18,no,white,no,no,768,45,3.6.1,legacy,legacy,1 6 4 3 9 7,osweb,1.4.0,1,0,n,36,,0,left,right,right,right,right,right,left,628,8964,24265,16107,14919,14109,628,2,legacy,785,1440,24,900,24,0,23,1440,1632908743492,6,1024,2,48000,-16,experiment,1,odd,MacIntel,8,717239,379399,640917,707888,65,715011,713972,64,16174,105848,719256,716022,719889,65,719255,Sternberg_updated,87,81650,106,yes,1024
82,82,769,769,black,no,experiment,Mozilla,Netscape,"5.0 (Macintosh; Intel Mac OS X 10_15_7) AppleWebKit/537.36 (KHTML, like Gecko) Chrome/94.0.4606.61 Safari/537.36",legacy,legacy,legacy,0,uniform,1,1,left,106,106,106,106,0,0,0,106,106,0,0,0,106,106,106,0,0,106,106,0,29-08-21,29-08-21,11:45:51,Wed Sep 29 2021 11:45:51 GMT+0200 (Centraleuropæisk sommertid),The main experiment item,yes,0,0,/Users/ethan/Documents/GitHub/OpenSesame/Sternberg/experiment_files,0,0,0,no,mono,no,18,no,white,no,no,768,45,3.6.1,legacy,legacy,3 4 2,osweb,1.4.0,1,0,n,36,,0,left,right,right,right,right,right,left,605,8964,24265,16107,14919,14109,605,2,legacy,785,1440,24,900,24,0,23,1440,1632908743492,3,1024,2,48000,-16,experiment,1,odd,MacIntel,5,723156,379399,640917,719890,65,720927,713972,64,16174,105848,725173,721939,725789,65,725173,Sternberg_updated,88,82255,107,yes,1024
81,81,768,768,black,no,experiment,Mozilla,Netscape,"5.0 (Macintosh; Intel Mac OS X 10_15_7) AppleWebKit/537.36 (KHTML, like Gecko) Chrome/94.0.4606.61 Safari/537.36",legacy,legacy,legacy,0,uniform,0,0,right,107,107,107,107,0,0,0,107,107,0,0,0,107,107,107,0,0,107,107,0,29-08-21,29-08-21,11:45:51,Wed Sep 29 2021 11:45:51 GMT+0200 (Centraleuropæisk sommertid),The main experiment item,yes,0,0,/Users/ethan/Documents/GitHub/OpenSesame/Sternberg/experiment_files,0,0,0,no,mono,no,18,no,white,no,no,768,45,3.6.1,legacy,legacy,8 5 4 7 3 1,osweb,1.4.0,1,2,y,36,,0,left,right,right,right,right,right,left,720,8964,24265,16107,14919,14109,720,2,legacy,785,1440,24,900,24,0,23,1440,1632908743492,6,1024,2,48000,-16,experiment,1,odd,MacIntel,5,729056,379399,640917,725790,65,726827,713972,64,16174,105848,731074,727839,731806,65,731074,Sternberg_updated,88,82975,108,yes,1024
82,82,768,768,black,no,experiment,Mozilla,Netscape,"5.0 (Macintosh; Intel Mac OS X 10_15_7) AppleWebKit/537.36 (KHTML, like Gecko) Chrome/94.0.4606.61 Safari/537.36",legacy,legacy,legacy,0,uniform,1,1,right,108,108,108,108,0,0,0,108,108,0,0,0,108,108,108,0,0,108,108,0,29-08-21,29-08-21,11:45:51,Wed Sep 29 2021 11:45:51 GMT+0200 (Centraleuropæisk sommertid),The main experiment item,yes,0,0,/Users/ethan/Documents/GitHub/OpenSesame/Sternberg/experiment_files,0,0,0,no,mono,no,18,no,white,no,no,768,45,3.6.1,legacy,legacy,9 3 1 2 5,osweb,1.4.0,1,4,y,36,,0,right,right,right,right,right,right,right,746,8964,24265,16107,14919,14109,746,2,legacy,785,1440,24,900,24,0,23,1440,1632908743492,5,1024,2,48000,-16,experiment,1,odd,MacIntel,2,735073,379399,640917,725790,65,732843,731808,64,16174,105848,737090,733857,737840,65,737090,Sternberg_updated,89,83721,109,yes,1024
82,82,770,770,black,no,experiment,Mozilla,Netscape,"5.0 (Macintosh; Intel Mac OS X 10_15_7) AppleWebKit/537.36 (KHTML, like Gecko) Chrome/94.0.4606.61 Safari/537.36",legacy,legacy,legacy,0,uniform,1,1,right,109,109,109,109,0,0,0,109,109,0,0,0,109,109,109,0,0,109,109,0,29-08-21,29-08-21,11:45:51,Wed Sep 29 2021 11:45:51 GMT+0200 (Centraleuropæisk sommertid),The main experiment item,yes,0,0,/Users/ethan/Documents/GitHub/OpenSesame/Sternberg/experiment_files,0,0,0,no,mono,no,18,no,white,no,no,768,45,3.6.1,legacy,legacy,6 9 3 1,osweb,1.4.0,1,4,y,36,,0,right,right,right,right,right,right,right,929,8964,24265,16107,14919,14109,929,2,legacy,785,1440,24,900,24,0,23,1440,1632908743492,4,1024,2,48000,-16,experiment,1,odd,MacIntel,1,741108,379399,640917,737841,65,738876,731808,64,16174,105848,743124,739890,744057,65,743124,Sternberg_updated,90,84650,110,yes,1024
81,81,771,771,black,no,experiment,Mozilla,Netscape,"5.0 (Macintosh; Intel Mac OS X 10_15_7) AppleWebKit/537.36 (KHTML, like Gecko) Chrome/94.0.4606.61 Safari/537.36",legacy,legacy,legacy,0,uniform,0,0,right,110,110,110,110,0,0,0,110,110,0,0,0,110,110,110,0,0,110,110,0,29-08-21,29-08-21,11:45:51,Wed Sep 29 2021 11:45:51 GMT+0200 (Centraleuropæisk sommertid),The main experiment item,yes,0,0,/Users/ethan/Documents/GitHub/OpenSesame/Sternberg/experiment_files,0,0,0,no,mono,no,18,no,white,no,no,768,45,3.6.1,legacy,legacy,3 9 7 6 4,osweb,1.4.0,1,3,y,36,,0,left,right,right,right,right,right,left,936,8964,24265,16107,14919,14109,936,2,legacy,785,1440,24,900,24,0,23,1440,1632908743492,5,1024,2,48000,-16,experiment,1,odd,MacIntel,7,747324,379399,640917,744058,65,745094,731808,64,16174,105848,749341,746108,750291,65,749341,Sternberg_updated,90,85586,111,yes,1024
81,81,768,768,black,no,experiment,Mozilla,Netscape,"5.0 (Macintosh; Intel Mac OS X 10_15_7) AppleWebKit/537.36 (KHTML, like Gecko) Chrome/94.0.4606.61 Safari/537.36",legacy,legacy,legacy,0,uniform,1,1,right,111,111,111,111,0,0,0,111,111,0,0,0,111,111,111,0,0,111,111,0,29-08-21,29-08-21,11:45:51,Wed Sep 29 2021 11:45:51 GMT+0200 (Centraleuropæisk sommertid),The main experiment item,yes,0,0,/Users/ethan/Documents/GitHub/OpenSesame/Sternberg/experiment_files,0,0,0,no,mono,no,18,no,white,no,no,768,45,3.6.1,legacy,legacy,4 6 2 5 1,osweb,1.4.0,1,5,y,36,,0,right,right,right,right,right,right,right,410,8964,24265,16107,14919,14109,410,2,legacy,785,1440,24,900,24,0,23,1440,1632908743492,5,1024,2,48000,-16,experiment,1,odd,MacIntel,1,753558,379399,640917,744058,65,751328,750292,64,16174,105848,755575,752342,755991,65,755575,Sternberg_updated,91,85996,112,yes,1024
81,81,766,766,black,no,experiment,Mozilla,Netscape,"5.0 (Macintosh; Intel Mac OS X 10_15_7) AppleWebKit/537.36 (KHTML, like Gecko) Chrome/94.0.4606.61 Safari/537.36",legacy,legacy,legacy,0,uniform,1,1,left,112,112,112,112,0,0,0,112,112,0,0,0,112,112,112,0,0,112,112,0,29-08-21,29-08-21,11:45:51,Wed Sep 29 2021 11:45:51 GMT+0200 (Centraleuropæisk sommertid),The main experiment item,yes,0,0,/Users/ethan/Documents/GitHub/OpenSesame/Sternberg/experiment_files,0,0,0,no,mono,no,18,no,white,no,no,768,45,3.6.1,legacy,legacy,7 4 2 8 1 9,osweb,1.4.0,1,0,n,36,,0,left,right,right,right,right,right,left,586,8964,24265,16107,14919,14109,586,2,legacy,785,1440,24,900,24,0,23,1440,1632908743492,6,1024,2,48000,-16,experiment,1,odd,MacIntel,5,759258,379399,640917,755992,65,757029,750292,64,16174,105848,761275,758042,761875,65,761275,Sternberg_updated,92,86582,113,yes,1024
82,82,765,765,black,no,experiment,Mozilla,Netscape,"5.0 (Macintosh; Intel Mac OS X 10_15_7) AppleWebKit/537.36 (KHTML, like Gecko) Chrome/94.0.4606.61 Safari/537.36",legacy,legacy,legacy,0,uniform,1,1,right,113,113,113,113,0,0,0,113,113,0,0,0,113,113,113,0,0,113,113,0,29-08-21,29-08-21,11:45:51,Wed Sep 29 2021 11:45:51 GMT+0200 (Centraleuropæisk sommertid),The main experiment item,yes,0,0,/Users/ethan/Documents/GitHub/OpenSesame/Sternberg/experiment_files,0,0,0,no,mono,no,18,no,white,no,no,768,45,3.6.1,legacy,legacy,7 6,osweb,1.4.0,1,2,y,36,,0,right,right,right,right,right,right,right,668,8964,24265,16107,14919,14109,668,2,legacy,785,1440,24,900,24,0,23,1440,1632908743492,2,1024,2,48000,-16,experiment,1,odd,MacIntel,6,765126,379399,640917,761876,65,762913,750292,64,16174,105848,767143,763925,767825,65,767143,Sternberg_updated,93,87250,114,yes,1024
82,82,765,765,black,no,experiment,Mozilla,Netscape,"5.0 (Macintosh; Intel Mac OS X 10_15_7) AppleWebKit/537.36 (KHTML, like Gecko) Chrome/94.0.4606.61 Safari/537.36",legacy,legacy,legacy,0,uniform,1,1,right,114,114,114,114,0,0,0,114,114,0,0,0,114,114,114,0,0,114,114,0,29-08-21,29-08-21,11:45:51,Wed Sep 29 2021 11:45:51 GMT+0200 (Centraleuropæisk sommertid),The main experiment item,yes,0,0,/Users/ethan/Documents/GitHub/OpenSesame/Sternberg/experiment_files,0,0,0,no,mono,no,18,no,white,no,no,768,45,3.6.1,legacy,legacy,6 1 2,osweb,1.4.0,1,3,y,36,,0,right,right,right,right,right,right,right,723,8964,24265,16107,14919,14109,723,2,legacy,785,1440,24,900,24,0,23,1440,1632908743492,3,1024,2,48000,-16,experiment,1,odd,MacIntel,2,771091,379399,640917,767826,65,768862,750292,64,16174,105848,773093,769876,773825,65,773093,Sternberg_updated,94,87973,115,yes,1024
82,82,764,764,black,no,experiment,Mozilla,Netscape,"5.0 (Macintosh; Intel Mac OS X 10_15_7) AppleWebKit/537.36 (KHTML, like Gecko) Chrome/94.0.4606.61 Safari/537.36",legacy,legacy,legacy,0,uniform,1,1,left,115,115,115,115,0,0,0,115,115,0,0,0,115,115,115,0,0,115,115,0,29-08-21,29-08-21,11:45:51,Wed Sep 29 2021 11:45:51 GMT+0200 (Centraleuropæisk sommertid),The main experiment item,yes,0,0,/Users/ethan/Documents/GitHub/OpenSesame/Sternberg/experiment_files,0,0,0,no,mono,no,18,no,white,no,no,768,45,3.6.1,legacy,legacy,1 6 4,osweb,1.4.0,1,0,n,36,,0,left,right,right,right,right,right,left,649,8964,24265,16107,14919,14109,649,2,legacy,785,1440,24,900,24,0,23,1440,1632908743492,3,1024,2,48000,-16,experiment,1,odd,MacIntel,7,777093,379399,640917,773826,65,774863,750292,64,16174,105848,779110,775877,779759,65,779110,Sternberg_updated,95,88622,116,yes,1024
81,81,763,763,black,no,experiment,Mozilla,Netscape,"5.0 (Macintosh; Intel Mac OS X 10_15_7) AppleWebKit/537.36 (KHTML, like Gecko) Chrome/94.0.4606.61 Safari/537.36",legacy,legacy,legacy,0,uniform,0,0,right,116,116,116,116,0,0,0,116,116,0,0,0,116,116,116,0,0,116,116,0,29-08-21,29-08-21,11:45:51,Wed Sep 29 2021 11:45:51 GMT+0200 (Centraleuropæisk sommertid),The main experiment item,yes,0,0,/Users/ethan/Documents/GitHub/OpenSesame/Sternberg/experiment_files,0,0,0,no,mono,no,18,no,white,no,no,768,45,3.6.1,legacy,legacy,2 4 8 5 1 3,osweb,1.4.0,1,1,y,36,,0,left,right,right,right,right,right,left,653,8964,24265,16107,14919,14109,653,2,legacy,785,1440,24,900,24,0,23,1440,1632908743492,6,1024,2,48000,-16,experiment,1,odd,MacIntel,2,783026,379399,640917,779760,65,780799,750292,64,16174,105848,785044,781810,785709,65,785044,Sternberg_updated,95,89275,117,yes,1024
81,81,763,763,black,no,experiment,Mozilla,Netscape,"5.0 (Macintosh; Intel Mac OS X 10_15_7) AppleWebKit/537.36 (KHTML, like Gecko) Chrome/94.0.4606.61 Safari/537.36",legacy,legacy,legacy,0,uniform,1,1,right,117,117,117,117,0,0,0,117,117,0,0,0,117,117,117,0,0,117,117,0,29-08-21,29-08-21,11:45:51,Wed Sep 29 2021 11:45:51 GMT+0200 (Centraleuropæisk sommertid),The main experiment item,yes,0,0,/Users/ethan/Documents/GitHub/OpenSesame/Sternberg/experiment_files,0,0,0,no,mono,no,18,no,white,no,no,768,45,3.6.1,legacy,legacy,8 5 3 7 4 6,osweb,1.4.0,1,6,y,36,,0,right,right,right,right,right,right,right,787,8964,24265,16107,14919,14109,787,2,legacy,785,1440,24,900,24,0,23,1440,1632908743492,6,1024,2,48000,-16,experiment,1,odd,MacIntel,6,788977,379399,640917,779760,65,786746,785720,64,16174,105848,790994,787761,791793,65,790994,Sternberg_updated,96,90062,118,yes,1024
