,acc,accuracy,average_response_time,avg_rt,background,bidi,block,browser_codename,browser_name,browser_version,canvas_backend,clock_backend,color_backend,compensation,coordinates,correct,correct_keyboard_response,correct_response,count_ISI,count_break1,count_break_2,count_correct_feedback,count_credits,count_experiment,count_experimentLoop,count_fixation,count_incorrect_feedback,count_instructions1a,count_instructions1b,count_instructions2,count_keyboard_response,count_memory_set,count_new_logger,count_osweb,count_practiceLoop,count_practiceSequence,count_probe,count_thankYou,date_startdate,date_startdateUTC,date_starttime,datetime,description,disable_garbage_collection,experiment_debug,experiment_parameters,experiment_path,experiment_pilot,experiment_taskname,experiment_taskversion,font_bold,font_family,font_italic,font_size,font_underline,foreground,form_clicks,fullscreen,height,jatosStudyResultId,jatosVersion,keyboard_backend,mouse_backend,numberSet,opensesame_codename,opensesame_version,penwidth,posInSet,present,queryParams_batchId,queryParams_generalMultiple,repeat_cycle,response,response_break1,response_break_2,response_instructions1a,response_instructions1b,response_instructions2,response_keyboard_response,response_time,response_time_break1,response_time_break_2,response_time_instructions1a,response_time_instructions1b,response_time_instructions2,response_time_keyboard_response,round_decimals,sampler_backend,screen_availableHeight,screen_availableWidth,screen_colorDepth,screen_height,screen_pixelDepth,screen_screenX,screen_screenY,screen_width,sessionid,setSize,sound_buf_size,sound_channels,sound_freq,sound_sample_size,start,subject_nr,subject_parity,system_os,target,time_ISI,time_break1,time_break_2,time_correct_feedback,time_experimentLoop,time_fixation,time_incorrect_feedback,time_instructions1a,time_instructions1b,time_instructions2,time_keyboard_response,time_memory_set,time_new_logger,time_practiceLoop,time_probe,title,total_correct,total_response_time,total_responses,uniform_coordinates,width,participant_id
0,100,100,547,547,black,no,practice,Mozilla,Netscape,"5.0 (Macintosh; Intel Mac OS X 10_13_6) AppleWebKit/605.1.15 (KHTML, like Gecko) Version/13.1.2 Safari/605.1.15",legacy,legacy,legacy,0,uniform,1,1,right,0,0,0,0,0,0,0,0,0,0,0,0,0,0,0,0,0,0,0,0,29-08-21,29-08-21,11:45:48,Wed Sep 29 2021 11:45:48 GMT+0200 (CEST),The main experiment item,yes,0,0,/Users/ethan/Documents/GitHub/OpenSesame/Sternberg/experiment_files,0,0,0,no,mono,no,18,no,white,no,no,768,40,3.6.1,legacy,legacy,1 5 2 9,osweb,1.4.0,1,2,y,36,,0,right,,,right,right,,right,547,,,19662,15469,,547,2,legacy,878,1440,24,900,24,0,0,1440,1632908712246,4,1024,2,48000,-16,experiment,0,even,MacIntel,5,37517,,,,77,35297,,76,19769,,39537,36303,40100,77,39536,Sternberg_updated,1,547,1,yes,1024,1
1,50,50,400,400,black,no,practice,Mozilla,Netscape,"5.0 (Macintosh; Intel Mac OS X 10_13_6) AppleWebKit/605.1.15 (KHTML, like Gecko) Version/13.1.2 Safari/605.1.15",legacy,legacy,legacy,0,uniform,0,0,right,1,1,1,1,0,0,0,1,1,0,0,0,1,1,1,0,0,1,1,0,29-08-21,29-08-21,11:45:48,Wed Sep 29 2021 11:45:48 GMT+0200 (CEST),The main experiment item,yes,0,0,/Users/ethan/Documents/GitHub/OpenSesame/Sternberg/experiment_files,0,0,0,no,mono,no,18,no,white,no,no,768,40,3.6.1,legacy,legacy,4 8,osweb,1.4.0,1,1,y,36,,0,left,,,right,right,,left,253,,,19662,15469,,253,2,legacy,878,1440,24,900,24,0,0,1440,1632908712246,2,1024,2,48000,-16,experiment,0,even,MacIntel,4,43384,,,40109.0,77,41152,,76,19769,,45403,42170,45666,77,45403,Sternberg_updated,1,800,2,yes,1024,1
2,67,67,455,455,black,no,practice,Mozilla,Netscape,"5.0 (Macintosh; Intel Mac OS X 10_13_6) AppleWebKit/605.1.15 (KHTML, like Gecko) Version/13.1.2 Safari/605.1.15",legacy,legacy,legacy,0,uniform,1,1,left,2,2,2,2,0,0,0,2,2,0,0,0,2,2,2,0,0,2,2,0,29-08-21,29-08-21,11:45:48,Wed Sep 29 2021 11:45:48 GMT+0200 (CEST),The main experiment item,yes,0,0,/Users/ethan/Documents/GitHub/OpenSesame/Sternberg/experiment_files,0,0,0,no,mono,no,18,no,white,no,no,768,40,3.6.1,legacy,legacy,3 1 9 4,osweb,1.4.0,1,0,n,36,,0,left,,,right,right,,left,566,,,19662,15469,,566,2,legacy,878,1440,24,900,24,0,0,1440,1632908712246,4,1024,2,48000,-16,experiment,0,even,MacIntel,6,48935,,,40109.0,77,46713,45670.0,76,19769,,50954,47721,51534,77,50954,Sternberg_updated,2,1366,3,yes,1024,1
3,75,75,454,454,black,no,practice,Mozilla,Netscape,"5.0 (Macintosh; Intel Mac OS X 10_13_6) AppleWebKit/605.1.15 (KHTML, like Gecko) Version/13.1.2 Safari/605.1.15",legacy,legacy,legacy,0,uniform,1,1,left,3,3,3,3,0,0,0,3,3,0,0,0,3,3,3,0,0,3,3,0,29-08-21,29-08-21,11:45:48,Wed Sep 29 2021 11:45:48 GMT+0200 (CEST),The main experiment item,yes,0,0,/Users/ethan/Documents/GitHub/OpenSesame/Sternberg/experiment_files,0,0,0,no,mono,no,18,no,white,no,no,768,40,3.6.1,legacy,legacy,4 1 5,osweb,1.4.0,1,0,n,36,,0,left,,,right,right,,left,449,,,19662,15469,,449,2,legacy,878,1440,24,900,24,0,0,1440,1632908712246,3,1024,2,48000,-16,experiment,0,even,MacIntel,2,54802,,,51539.0,77,52582,45670.0,76,19769,,56821,53587,57284,77,56821,Sternberg_updated,3,1815,4,yes,1024,1
4,80,80,521,521,black,no,practice,Mozilla,Netscape,"5.0 (Macintosh; Intel Mac OS X 10_13_6) AppleWebKit/605.1.15 (KHTML, like Gecko) Version/13.1.2 Safari/605.1.15",legacy,legacy,legacy,0,uniform,1,1,right,4,4,4,4,0,0,0,4,4,0,0,0,4,4,4,0,0,4,4,0,29-08-21,29-08-21,11:45:48,Wed Sep 29 2021 11:45:48 GMT+0200 (CEST),The main experiment item,yes,0,0,/Users/ethan/Documents/GitHub/OpenSesame/Sternberg/experiment_files,0,0,0,no,mono,no,18,no,white,no,no,768,40,3.6.1,legacy,legacy,4 3 1 7 9 8,osweb,1.4.0,1,1,y,36,,0,right,,,right,right,,right,789,,,19662,15469,,789,2,legacy,878,1440,24,900,24,0,0,1440,1632908712246,6,1024,2,48000,-16,experiment,0,even,MacIntel,4,60569,,,57289.0,77,58336,45670.0,76,19769,,62588,59354,63385,77,62588,Sternberg_updated,4,2604,5,yes,1024,1
5,83,83,556,556,black,no,practice,Mozilla,Netscape,"5.0 (Macintosh; Intel Mac OS X 10_13_6) AppleWebKit/605.1.15 (KHTML, like Gecko) Version/13.1.2 Safari/605.1.15",legacy,legacy,legacy,0,uniform,1,1,left,5,5,5,5,0,0,0,5,5,0,0,0,5,5,5,0,0,5,5,0,29-08-21,29-08-21,11:45:48,Wed Sep 29 2021 11:45:48 GMT+0200 (CEST),The main experiment item,yes,0,0,/Users/ethan/Documents/GitHub/OpenSesame/Sternberg/experiment_files,0,0,0,no,mono,no,18,no,white,no,no,768,40,3.6.1,legacy,legacy,9 6 7 4 5,osweb,1.4.0,1,0,n,36,,0,left,,,right,right,,left,734,,,19662,15469,,734,2,legacy,878,1440,24,900,24,0,0,1440,1632908712246,5,1024,2,48000,-16,experiment,0,even,MacIntel,3,66651,,,63391.0,77,64432,45670.0,76,19769,,68670,65438,69419,77,68670,Sternberg_updated,5,3338,6,yes,1024,1
6,86,86,527,527,black,no,practice,Mozilla,Netscape,"5.0 (Macintosh; Intel Mac OS X 10_13_6) AppleWebKit/605.1.15 (KHTML, like Gecko) Version/13.1.2 Safari/605.1.15",legacy,legacy,legacy,0,uniform,1,1,right,6,6,6,6,0,0,0,6,6,0,0,0,6,6,6,0,0,6,6,0,29-08-21,29-08-21,11:45:48,Wed Sep 29 2021 11:45:48 GMT+0200 (CEST),The main experiment item,yes,0,0,/Users/ethan/Documents/GitHub/OpenSesame/Sternberg/experiment_files,0,0,0,no,mono,no,18,no,white,no,no,768,40,3.6.1,legacy,legacy,6,osweb,1.4.0,1,1,y,36,,0,right,,,right,right,,right,350,,,19662,15469,,350,2,legacy,878,1440,24,900,24,0,0,1440,1632908712246,1,1024,2,48000,-16,experiment,0,even,MacIntel,6,72686,,,69423.0,77,70466,45670.0,76,19769,,74706,71471,75069,77,74706,Sternberg_updated,6,3688,7,yes,1024,1
7,88,88,563,563,black,no,practice,Mozilla,Netscape,"5.0 (Macintosh; Intel Mac OS X 10_13_6) AppleWebKit/605.1.15 (KHTML, like Gecko) Version/13.1.2 Safari/605.1.15",legacy,legacy,legacy,0,uniform,1,1,right,7,7,7,7,0,0,0,7,7,0,0,0,7,7,7,0,0,7,7,0,29-08-21,29-08-21,11:45:48,Wed Sep 29 2021 11:45:48 GMT+0200 (CEST),The main experiment item,yes,0,0,/Users/ethan/Documents/GitHub/OpenSesame/Sternberg/experiment_files,0,0,0,no,mono,no,18,no,white,no,no,768,40,3.6.1,legacy,legacy,1 7 9 8 5,osweb,1.4.0,1,4,y,36,,0,right,,,right,right,,right,819,,,19662,15469,,819,2,legacy,878,1440,24,900,24,0,0,1440,1632908712246,5,1024,2,48000,-16,experiment,0,even,MacIntel,8,78337,,,75073.0,77,76112,45670.0,76,19769,,80356,77122,81186,77,80356,Sternberg_updated,7,4507,8,yes,1024,1
8,89,89,552,552,black,no,practice,Mozilla,Netscape,"5.0 (Macintosh; Intel Mac OS X 10_13_6) AppleWebKit/605.1.15 (KHTML, like Gecko) Version/13.1.2 Safari/605.1.15",legacy,legacy,legacy,0,uniform,1,1,right,8,8,8,8,0,0,0,8,8,0,0,0,8,8,8,0,0,8,8,0,29-08-21,29-08-21,11:45:48,Wed Sep 29 2021 11:45:48 GMT+0200 (CEST),The main experiment item,yes,0,0,/Users/ethan/Documents/GitHub/OpenSesame/Sternberg/experiment_files,0,0,0,no,mono,no,18,no,white,no,no,768,40,3.6.1,legacy,legacy,2 9 4,osweb,1.4.0,1,3,y,36,,0,right,,,right,right,,right,461,,,19662,15469,,461,2,legacy,878,1440,24,900,24,0,0,1440,1632908712246,3,1024,2,48000,-16,experiment,0,even,MacIntel,4,84454,,,81190.0,77,82233,45670.0,76,19769,,86473,83239,86936,77,86473,Sternberg_updated,8,4968,9,yes,1024,1
9,90,90,527,527,black,no,practice,Mozilla,Netscape,"5.0 (Macintosh; Intel Mac OS X 10_13_6) AppleWebKit/605.1.15 (KHTML, like Gecko) Version/13.1.2 Safari/605.1.15",legacy,legacy,legacy,0,uniform,1,1,left,9,9,9,9,0,0,0,9,9,0,0,0,9,9,9,0,0,9,9,0,29-08-21,29-08-21,11:45:48,Wed Sep 29 2021 11:45:48 GMT+0200 (CEST),The main experiment item,yes,0,0,/Users/ethan/Documents/GitHub/OpenSesame/Sternberg/experiment_files,0,0,0,no,mono,no,18,no,white,no,no,768,40,3.6.1,legacy,legacy,5,osweb,1.4.0,1,0,n,36,,0,left,,,right,right,,left,304,,,19662,15469,,304,2,legacy,878,1440,24,900,24,0,0,1440,1632908712246,1,1024,2,48000,-16,experiment,0,even,MacIntel,3,90204,,,86940.0,77,87983,45670.0,76,19769,,92223,88990,92537,77,92223,Sternberg_updated,9,5272,10,yes,1024,1
10,91,91,515,515,black,no,practice,Mozilla,Netscape,"5.0 (Macintosh; Intel Mac OS X 10_13_6) AppleWebKit/605.1.15 (KHTML, like Gecko) Version/13.1.2 Safari/605.1.15",legacy,legacy,legacy,0,uniform,1,1,left,10,10,10,10,0,0,0,10,10,0,0,0,10,10,10,0,0,10,10,0,29-08-21,29-08-21,11:45:48,Wed Sep 29 2021 11:45:48 GMT+0200 (CEST),The main experiment item,yes,0,0,/Users/ethan/Documents/GitHub/OpenSesame/Sternberg/experiment_files,0,0,0,no,mono,no,18,no,white,no,no,768,40,3.6.1,legacy,legacy,2 1,osweb,1.4.0,1,0,n,36,,0,left,,,right,right,,left,397,,,19662,15469,,397,2,legacy,878,1440,24,900,24,0,0,1440,1632908712246,2,1024,2,48000,-16,experiment,0,even,MacIntel,5,95805,,,92541.0,77,93580,45670.0,76,19769,,97823,94590,98220,77,97823,Sternberg_updated,10,5669,11,yes,1024,1
11,92,92,522,522,black,no,practice,Mozilla,Netscape,"5.0 (Macintosh; Intel Mac OS X 10_13_6) AppleWebKit/605.1.15 (KHTML, like Gecko) Version/13.1.2 Safari/605.1.15",legacy,legacy,legacy,0,uniform,1,1,left,11,11,11,11,0,0,0,11,11,0,0,0,11,11,11,0,0,11,11,0,29-08-21,29-08-21,11:45:48,Wed Sep 29 2021 11:45:48 GMT+0200 (CEST),The main experiment item,yes,0,0,/Users/ethan/Documents/GitHub/OpenSesame/Sternberg/experiment_files,0,0,0,no,mono,no,18,no,white,no,no,768,40,3.6.1,legacy,legacy,5 7 8 4 1 2,osweb,1.4.0,1,0,n,36,,0,left,,,right,right,,left,593,,,19662,15469,,593,2,legacy,878,1440,24,900,24,0,0,1440,1632908712246,6,1024,2,48000,-16,experiment,0,even,MacIntel,6,101488,,,98225.0,77,99265,45670.0,76,19769,,103507,100274,104104,77,103507,Sternberg_updated,11,6262,12,yes,1024,1
12,92,92,520,520,black,no,experiment,Mozilla,Netscape,"5.0 (Macintosh; Intel Mac OS X 10_13_6) AppleWebKit/605.1.15 (KHTML, like Gecko) Version/13.1.2 Safari/605.1.15",legacy,legacy,legacy,0,uniform,1,1,left,12,12,12,12,0,0,0,12,12,0,0,0,12,12,12,0,0,12,12,0,29-08-21,29-08-21,11:45:48,Wed Sep 29 2021 11:45:48 GMT+0200 (CEST),The main experiment item,yes,0,0,/Users/ethan/Documents/GitHub/OpenSesame/Sternberg/experiment_files,0,0,0,no,mono,no,18,no,white,no,no,768,40,3.6.1,legacy,legacy,1 7 5 2 9,osweb,1.4.0,1,0,n,36,,0,left,,,right,right,right,left,494,,,19662,15469,10975.0,494,2,legacy,878,1440,24,900,24,0,0,1440,1632908712246,5,1024,2,48000,-16,experiment,0,even,MacIntel,3,118373,,,104109.0,77,116150,45670.0,76,19769,105142.0,120392,117158,120889,77,120392,Sternberg_updated,12,6756,13,yes,1024,1
13,93,93,529,529,black,no,experiment,Mozilla,Netscape,"5.0 (Macintosh; Intel Mac OS X 10_13_6) AppleWebKit/605.1.15 (KHTML, like Gecko) Version/13.1.2 Safari/605.1.15",legacy,legacy,legacy,0,uniform,1,1,right,13,13,13,13,0,0,0,13,13,0,0,0,13,13,13,0,0,13,13,0,29-08-21,29-08-21,11:45:48,Wed Sep 29 2021 11:45:48 GMT+0200 (CEST),The main experiment item,yes,0,0,/Users/ethan/Documents/GitHub/OpenSesame/Sternberg/experiment_files,0,0,0,no,mono,no,18,no,white,no,no,768,40,3.6.1,legacy,legacy,3 9 7 6 4,osweb,1.4.0,1,3,y,36,,0,right,,,right,right,right,right,656,,,19662,15469,10975.0,656,2,legacy,878,1440,24,900,24,0,0,1440,1632908712246,5,1024,2,48000,-16,experiment,0,even,MacIntel,7,124156,,,120893.0,77,121935,45670.0,76,19769,105142.0,126176,122942,126839,77,126175,Sternberg_updated,13,7412,14,yes,1024,1
14,93,93,529,529,black,no,experiment,Mozilla,Netscape,"5.0 (Macintosh; Intel Mac OS X 10_13_6) AppleWebKit/605.1.15 (KHTML, like Gecko) Version/13.1.2 Safari/605.1.15",legacy,legacy,legacy,0,uniform,1,1,right,14,14,14,14,0,0,0,14,14,0,0,0,14,14,14,0,0,14,14,0,29-08-21,29-08-21,11:45:48,Wed Sep 29 2021 11:45:48 GMT+0200 (CEST),The main experiment item,yes,0,0,/Users/ethan/Documents/GitHub/OpenSesame/Sternberg/experiment_files,0,0,0,no,mono,no,18,no,white,no,no,768,40,3.6.1,legacy,legacy,9 4 2,osweb,1.4.0,1,1,y,36,,0,right,,,right,right,right,right,525,,,19662,15469,10975.0,525,2,legacy,878,1440,24,900,24,0,0,1440,1632908712246,3,1024,2,48000,-16,experiment,0,even,MacIntel,9,130107,,,126843.0,77,127885,45670.0,76,19769,105142.0,132126,128892,132656,77,132126,Sternberg_updated,14,7937,15,yes,1024,1
15,94,94,533,533,black,no,experiment,Mozilla,Netscape,"5.0 (Macintosh; Intel Mac OS X 10_13_6) AppleWebKit/605.1.15 (KHTML, like Gecko) Version/13.1.2 Safari/605.1.15",legacy,legacy,legacy,0,uniform,1,1,right,15,15,15,15,0,0,0,15,15,0,0,0,15,15,15,0,0,15,15,0,29-08-21,29-08-21,11:45:48,Wed Sep 29 2021 11:45:48 GMT+0200 (CEST),The main experiment item,yes,0,0,/Users/ethan/Documents/GitHub/OpenSesame/Sternberg/experiment_files,0,0,0,no,mono,no,18,no,white,no,no,768,40,3.6.1,legacy,legacy,6 7 8 5,osweb,1.4.0,1,3,y,36,,0,right,,,right,right,right,right,585,,,19662,15469,10975.0,585,2,legacy,878,1440,24,900,24,0,0,1440,1632908712246,4,1024,2,48000,-16,experiment,0,even,MacIntel,8,135941,,,132660.0,77,133707,45670.0,76,19769,105142.0,137960,134726,138557,77,137959,Sternberg_updated,15,8522,16,yes,1024,1
16,94,94,547,547,black,no,experiment,Mozilla,Netscape,"5.0 (Macintosh; Intel Mac OS X 10_13_6) AppleWebKit/605.1.15 (KHTML, like Gecko) Version/13.1.2 Safari/605.1.15",legacy,legacy,legacy,0,uniform,1,1,left,16,16,16,16,0,0,0,16,16,0,0,0,16,16,16,0,0,16,16,0,29-08-21,29-08-21,11:45:48,Wed Sep 29 2021 11:45:48 GMT+0200 (CEST),The main experiment item,yes,0,0,/Users/ethan/Documents/GitHub/OpenSesame/Sternberg/experiment_files,0,0,0,no,mono,no,18,no,white,no,no,768,40,3.6.1,legacy,legacy,9 5 3 2 8 6,osweb,1.4.0,1,0,n,36,,0,left,,,right,right,right,left,774,,,19662,15469,10975.0,774,2,legacy,878,1440,24,900,24,0,0,1440,1632908712246,6,1024,2,48000,-16,experiment,0,even,MacIntel,7,141824,,,138561.0,77,139599,45670.0,76,19769,105142.0,143843,140610,144624,77,143843,Sternberg_updated,16,9296,17,yes,1024,1
17,94,94,574,574,black,no,experiment,Mozilla,Netscape,"5.0 (Macintosh; Intel Mac OS X 10_13_6) AppleWebKit/605.1.15 (KHTML, like Gecko) Version/13.1.2 Safari/605.1.15",legacy,legacy,legacy,0,uniform,1,1,left,17,17,17,17,0,0,0,17,17,0,0,0,17,17,17,0,0,17,17,0,29-08-21,29-08-21,11:45:48,Wed Sep 29 2021 11:45:48 GMT+0200 (CEST),The main experiment item,yes,0,0,/Users/ethan/Documents/GitHub/OpenSesame/Sternberg/experiment_files,0,0,0,no,mono,no,18,no,white,no,no,768,40,3.6.1,legacy,legacy,4 2 7 6 1 3,osweb,1.4.0,1,0,n,36,,0,left,,,right,right,right,left,1040,,,19662,15469,10975.0,1040,2,legacy,878,1440,24,900,24,0,0,1440,1632908712246,6,1024,2,48000,-16,experiment,0,even,MacIntel,8,147891,,,144628.0,77,145668,45670.0,76,19769,105142.0,149910,146677,150958,77,149910,Sternberg_updated,17,10336,18,yes,1024,1
18,95,95,569,569,black,no,experiment,Mozilla,Netscape,"5.0 (Macintosh; Intel Mac OS X 10_13_6) AppleWebKit/605.1.15 (KHTML, like Gecko) Version/13.1.2 Safari/605.1.15",legacy,legacy,legacy,0,uniform,1,1,right,18,18,18,18,0,0,0,18,18,0,0,0,18,18,18,0,0,18,18,0,29-08-21,29-08-21,11:45:48,Wed Sep 29 2021 11:45:48 GMT+0200 (CEST),The main experiment item,yes,0,0,/Users/ethan/Documents/GitHub/OpenSesame/Sternberg/experiment_files,0,0,0,no,mono,no,18,no,white,no,no,768,40,3.6.1,legacy,legacy,2 3,osweb,1.4.0,1,1,y,36,,0,right,,,right,right,right,right,476,,,19662,15469,10975.0,476,2,legacy,878,1440,24,900,24,0,0,1440,1632908712246,2,1024,2,48000,-16,experiment,0,even,MacIntel,2,154225,,,150962.0,77,152003,45670.0,76,19769,105142.0,156244,153010,156725,77,156244,Sternberg_updated,18,10812,19,yes,1024,1
19,95,95,559,559,black,no,experiment,Mozilla,Netscape,"5.0 (Macintosh; Intel Mac OS X 10_13_6) AppleWebKit/605.1.15 (KHTML, like Gecko) Version/13.1.2 Safari/605.1.15",legacy,legacy,legacy,0,uniform,1,1,right,19,19,19,19,0,0,0,19,19,0,0,0,19,19,19,0,0,19,19,0,29-08-21,29-08-21,11:45:48,Wed Sep 29 2021 11:45:48 GMT+0200 (CEST),The main experiment item,yes,0,0,/Users/ethan/Documents/GitHub/OpenSesame/Sternberg/experiment_files,0,0,0,no,mono,no,18,no,white,no,no,768,40,3.6.1,legacy,legacy,2 4 6 9,osweb,1.4.0,1,3,y,36,,0,right,,,right,right,right,right,375,,,19662,15469,10975.0,375,2,legacy,878,1440,24,900,24,0,0,1440,1632908712246,4,1024,2,48000,-16,experiment,0,even,MacIntel,6,159992,,,156729.0,77,157767,45670.0,76,19769,105142.0,162011,158778,162392,77,162011,Sternberg_updated,19,11187,20,yes,1024,1
20,95,95,562,562,black,no,experiment,Mozilla,Netscape,"5.0 (Macintosh; Intel Mac OS X 10_13_6) AppleWebKit/605.1.15 (KHTML, like Gecko) Version/13.1.2 Safari/605.1.15",legacy,legacy,legacy,0,uniform,1,1,right,20,20,20,20,0,0,0,20,20,0,0,0,20,20,20,0,0,20,20,0,29-08-21,29-08-21,11:45:48,Wed Sep 29 2021 11:45:48 GMT+0200 (CEST),The main experiment item,yes,0,0,/Users/ethan/Documents/GitHub/OpenSesame/Sternberg/experiment_files,0,0,0,no,mono,no,18,no,white,no,no,768,40,3.6.1,legacy,legacy,2 5 4 8 7,osweb,1.4.0,1,3,y,36,,0,right,,,right,right,right,right,625,,,19662,15469,10975.0,625,2,legacy,878,1440,24,900,24,0,0,1440,1632908712246,5,1024,2,48000,-16,experiment,0,even,MacIntel,4,165659,,,162396.0,77,163437,45670.0,76,19769,105142.0,167678,164445,168309,77,167678,Sternberg_updated,20,11812,21,yes,1024,1
21,95,95,559,559,black,no,experiment,Mozilla,Netscape,"5.0 (Macintosh; Intel Mac OS X 10_13_6) AppleWebKit/605.1.15 (KHTML, like Gecko) Version/13.1.2 Safari/605.1.15",legacy,legacy,legacy,0,uniform,1,1,left,21,21,21,21,0,0,0,21,21,0,0,0,21,21,21,0,0,21,21,0,29-08-21,29-08-21,11:45:48,Wed Sep 29 2021 11:45:48 GMT+0200 (CEST),The main experiment item,yes,0,0,/Users/ethan/Documents/GitHub/OpenSesame/Sternberg/experiment_files,0,0,0,no,mono,no,18,no,white,no,no,768,40,3.6.1,legacy,legacy,5 7 3,osweb,1.4.0,1,0,n,36,,0,left,,,right,right,right,left,484,,,19662,15469,10975.0,484,2,legacy,878,1440,24,900,24,0,0,1440,1632908712246,3,1024,2,48000,-16,experiment,0,even,MacIntel,9,171576,,,168313.0,77,169353,45670.0,76,19769,105142.0,173595,170362,174092,77,173595,Sternberg_updated,21,12296,22,yes,1024,1
22,96,96,554,554,black,no,experiment,Mozilla,Netscape,"5.0 (Macintosh; Intel Mac OS X 10_13_6) AppleWebKit/605.1.15 (KHTML, like Gecko) Version/13.1.2 Safari/605.1.15",legacy,legacy,legacy,0,uniform,1,1,left,22,22,22,22,0,0,0,22,22,0,0,0,22,22,22,0,0,22,22,0,29-08-21,29-08-21,11:45:48,Wed Sep 29 2021 11:45:48 GMT+0200 (CEST),The main experiment item,yes,0,0,/Users/ethan/Documents/GitHub/OpenSesame/Sternberg/experiment_files,0,0,0,no,mono,no,18,no,white,no,no,768,40,3.6.1,legacy,legacy,3 4 2,osweb,1.4.0,1,0,n,36,,0,left,,,right,right,right,left,445,,,19662,15469,10975.0,445,2,legacy,878,1440,24,900,24,0,0,1440,1632908712246,3,1024,2,48000,-16,experiment,0,even,MacIntel,5,177360,,,174096.0,77,175140,45670.0,76,19769,105142.0,179379,176145,179826,77,179379,Sternberg_updated,22,12741,23,yes,1024,1
23,96,96,551,551,black,no,experiment,Mozilla,Netscape,"5.0 (Macintosh; Intel Mac OS X 10_13_6) AppleWebKit/605.1.15 (KHTML, like Gecko) Version/13.1.2 Safari/605.1.15",legacy,legacy,legacy,0,uniform,1,1,left,23,23,23,23,0,0,0,23,23,0,0,0,23,23,23,0,0,23,23,0,29-08-21,29-08-21,11:45:48,Wed Sep 29 2021 11:45:48 GMT+0200 (CEST),The main experiment item,yes,0,0,/Users/ethan/Documents/GitHub/OpenSesame/Sternberg/experiment_files,0,0,0,no,mono,no,18,no,white,no,no,768,40,3.6.1,legacy,legacy,9 7 4 5 8,osweb,1.4.0,1,0,n,36,,0,left,,,right,right,right,left,494,,,19662,15469,10975.0,494,2,legacy,878,1440,24,900,24,0,0,1440,1632908712246,5,1024,2,48000,-16,experiment,0,even,MacIntel,6,183093,,,179830.0,77,180874,45670.0,76,19769,105142.0,185113,181879,185610,77,185113,Sternberg_updated,23,13235,24,yes,1024,1
24,96,96,563,563,black,no,experiment,Mozilla,Netscape,"5.0 (Macintosh; Intel Mac OS X 10_13_6) AppleWebKit/605.1.15 (KHTML, like Gecko) Version/13.1.2 Safari/605.1.15",legacy,legacy,legacy,0,uniform,1,1,left,24,24,24,24,0,0,0,24,24,0,0,0,24,24,24,0,0,24,24,0,29-08-21,29-08-21,11:45:48,Wed Sep 29 2021 11:45:48 GMT+0200 (CEST),The main experiment item,yes,0,0,/Users/ethan/Documents/GitHub/OpenSesame/Sternberg/experiment_files,0,0,0,no,mono,no,18,no,white,no,no,768,40,3.6.1,legacy,legacy,7 3 2 8,osweb,1.4.0,1,0,n,36,,0,left,,,right,right,right,left,848,,,19662,15469,10975.0,848,2,legacy,878,1440,24,900,24,0,0,1440,1632908712246,4,1024,2,48000,-16,experiment,0,even,MacIntel,4,188878,,,185614.0,77,186653,45670.0,76,19769,105142.0,190897,187663,191760,77,190897,Sternberg_updated,24,14083,25,yes,1024,1
25,96,96,566,566,black,no,experiment,Mozilla,Netscape,"5.0 (Macintosh; Intel Mac OS X 10_13_6) AppleWebKit/605.1.15 (KHTML, like Gecko) Version/13.1.2 Safari/605.1.15",legacy,legacy,legacy,0,uniform,1,1,left,25,25,25,25,0,0,0,25,25,0,0,0,25,25,25,0,0,25,25,0,29-08-21,29-08-21,11:45:48,Wed Sep 29 2021 11:45:48 GMT+0200 (CEST),The main experiment item,yes,0,0,/Users/ethan/Documents/GitHub/OpenSesame/Sternberg/experiment_files,0,0,0,no,mono,no,18,no,white,no,no,768,40,3.6.1,legacy,legacy,5 3 2 6 9 8,osweb,1.4.0,1,0,n,36,,0,left,,,right,right,right,left,620,,,19662,15469,10975.0,620,2,legacy,878,1440,24,900,24,0,0,1440,1632908712246,6,1024,2,48000,-16,experiment,0,even,MacIntel,4,195045,,,191765.0,77,192814,45670.0,76,19769,105142.0,197064,193831,197694,77,197064,Sternberg_updated,25,14703,26,yes,1024,1
26,96,96,562,562,black,no,experiment,Mozilla,Netscape,"5.0 (Macintosh; Intel Mac OS X 10_13_6) AppleWebKit/605.1.15 (KHTML, like Gecko) Version/13.1.2 Safari/605.1.15",legacy,legacy,legacy,0,uniform,1,1,right,26,26,26,26,0,0,0,26,26,0,0,0,26,26,26,0,0,26,26,0,29-08-21,29-08-21,11:45:48,Wed Sep 29 2021 11:45:48 GMT+0200 (CEST),The main experiment item,yes,0,0,/Users/ethan/Documents/GitHub/OpenSesame/Sternberg/experiment_files,0,0,0,no,mono,no,18,no,white,no,no,768,40,3.6.1,legacy,legacy,3 5 7 1,osweb,1.4.0,1,3,y,36,,0,right,,,right,right,right,right,458,,,19662,15469,10975.0,458,2,legacy,878,1440,24,900,24,0,0,1440,1632908712246,4,1024,2,48000,-16,experiment,0,even,MacIntel,7,200962,,,197700.0,77,198740,45670.0,76,19769,105142.0,202981,199750,203445,77,202981,Sternberg_updated,26,15161,27,yes,1024,1
27,96,96,560,560,black,no,experiment,Mozilla,Netscape,"5.0 (Macintosh; Intel Mac OS X 10_13_6) AppleWebKit/605.1.15 (KHTML, like Gecko) Version/13.1.2 Safari/605.1.15",legacy,legacy,legacy,0,uniform,1,1,right,27,27,27,27,0,0,0,27,27,0,0,0,27,27,27,0,0,27,27,0,29-08-21,29-08-21,11:45:48,Wed Sep 29 2021 11:45:48 GMT+0200 (CEST),The main experiment item,yes,0,0,/Users/ethan/Documents/GitHub/OpenSesame/Sternberg/experiment_files,0,0,0,no,mono,no,18,no,white,no,no,768,40,3.6.1,legacy,legacy,9 8 4,osweb,1.4.0,1,1,y,36,,0,right,,,right,right,right,right,525,,,19662,15469,10975.0,525,2,legacy,878,1440,24,900,24,0,0,1440,1632908712246,3,1024,2,48000,-16,experiment,0,even,MacIntel,9,206712,,,203450.0,77,204490,45670.0,76,19769,105142.0,208731,205498,209262,77,208731,Sternberg_updated,27,15686,28,yes,1024,1
28,97,97,557,557,black,no,experiment,Mozilla,Netscape,"5.0 (Macintosh; Intel Mac OS X 10_13_6) AppleWebKit/605.1.15 (KHTML, like Gecko) Version/13.1.2 Safari/605.1.15",legacy,legacy,legacy,0,uniform,1,1,right,28,28,28,28,0,0,0,28,28,0,0,0,28,28,28,0,0,28,28,0,29-08-21,29-08-21,11:45:48,Wed Sep 29 2021 11:45:48 GMT+0200 (CEST),The main experiment item,yes,0,0,/Users/ethan/Documents/GitHub/OpenSesame/Sternberg/experiment_files,0,0,0,no,mono,no,18,no,white,no,no,768,40,3.6.1,legacy,legacy,9 1 6 7 8,osweb,1.4.0,1,1,y,36,,0,right,,,right,right,right,right,474,,,19662,15469,10975.0,474,2,legacy,878,1440,24,900,24,0,0,1440,1632908712246,5,1024,2,48000,-16,experiment,0,even,MacIntel,9,212529,,,209266.0,77,210305,45670.0,76,19769,105142.0,214548,211315,215029,77,214548,Sternberg_updated,28,16160,29,yes,1024,1
29,97,97,551,551,black,no,experiment,Mozilla,Netscape,"5.0 (Macintosh; Intel Mac OS X 10_13_6) AppleWebKit/605.1.15 (KHTML, like Gecko) Version/13.1.2 Safari/605.1.15",legacy,legacy,legacy,0,uniform,1,1,left,29,29,29,29,0,0,0,29,29,0,0,0,29,29,29,0,0,29,29,0,29-08-21,29-08-21,11:45:48,Wed Sep 29 2021 11:45:48 GMT+0200 (CEST),The main experiment item,yes,0,0,/Users/ethan/Documents/GitHub/OpenSesame/Sternberg/experiment_files,0,0,0,no,mono,no,18,no,white,no,no,768,40,3.6.1,legacy,legacy,4 1,osweb,1.4.0,1,0,n,36,,0,left,,,right,right,right,left,374,,,19662,15469,10975.0,374,2,legacy,878,1440,24,900,24,0,0,1440,1632908712246,2,1024,2,48000,-16,experiment,0,even,MacIntel,6,218295,,,215033.0,77,216072,45670.0,76,19769,105142.0,220298,217082,220679,77,220298,Sternberg_updated,29,16534,30,yes,1024,1
30,97,97,552,552,black,no,experiment,Mozilla,Netscape,"5.0 (Macintosh; Intel Mac OS X 10_13_6) AppleWebKit/605.1.15 (KHTML, like Gecko) Version/13.1.2 Safari/605.1.15",legacy,legacy,legacy,0,uniform,1,1,left,30,30,30,30,0,0,0,30,30,0,0,0,30,30,30,0,0,30,30,0,29-08-21,29-08-21,11:45:48,Wed Sep 29 2021 11:45:48 GMT+0200 (CEST),The main experiment item,yes,0,0,/Users/ethan/Documents/GitHub/OpenSesame/Sternberg/experiment_files,0,0,0,no,mono,no,18,no,white,no,no,768,40,3.6.1,legacy,legacy,1 3 2 6 9,osweb,1.4.0,1,0,n,36,,0,left,,,right,right,right,left,574,,,19662,15469,10975.0,574,2,legacy,878,1440,24,900,24,0,0,1440,1632908712246,5,1024,2,48000,-16,experiment,0,even,MacIntel,5,223947,,,220684.0,77,221723,45670.0,76,19769,105142.0,225966,222732,226546,77,225966,Sternberg_updated,30,17108,31,yes,1024,1
31,97,97,555,555,black,no,experiment,Mozilla,Netscape,"5.0 (Macintosh; Intel Mac OS X 10_13_6) AppleWebKit/605.1.15 (KHTML, like Gecko) Version/13.1.2 Safari/605.1.15",legacy,legacy,legacy,0,uniform,1,1,left,31,31,31,31,0,0,0,31,31,0,0,0,31,31,31,0,0,31,31,0,29-08-21,29-08-21,11:45:48,Wed Sep 29 2021 11:45:48 GMT+0200 (CEST),The main experiment item,yes,0,0,/Users/ethan/Documents/GitHub/OpenSesame/Sternberg/experiment_files,0,0,0,no,mono,no,18,no,white,no,no,768,40,3.6.1,legacy,legacy,1 5 3 2 8,osweb,1.4.0,1,0,n,36,,0,left,,,right,right,right,left,637,,,19662,15469,10975.0,637,2,legacy,878,1440,24,900,24,0,0,1440,1632908712246,5,1024,2,48000,-16,experiment,0,even,MacIntel,4,229814,,,226550.0,77,227591,45670.0,76,19769,105142.0,231833,228599,232480,77,231833,Sternberg_updated,31,17745,32,yes,1024,1
32,97,97,557,557,black,no,experiment,Mozilla,Netscape,"5.0 (Macintosh; Intel Mac OS X 10_13_6) AppleWebKit/605.1.15 (KHTML, like Gecko) Version/13.1.2 Safari/605.1.15",legacy,legacy,legacy,0,uniform,1,1,left,32,32,32,32,0,0,0,32,32,0,0,0,32,32,32,0,0,32,32,0,29-08-21,29-08-21,11:45:48,Wed Sep 29 2021 11:45:48 GMT+0200 (CEST),The main experiment item,yes,0,0,/Users/ethan/Documents/GitHub/OpenSesame/Sternberg/experiment_files,0,0,0,no,mono,no,18,no,white,no,no,768,40,3.6.1,legacy,legacy,1 8 7,osweb,1.4.0,1,0,n,36,,0,left,,,right,right,right,left,640,,,19662,15469,10975.0,640,2,legacy,878,1440,24,900,24,0,0,1440,1632908712246,3,1024,2,48000,-16,experiment,0,even,MacIntel,4,235747,,,232485.0,77,233525,45670.0,76,19769,105142.0,237766,234533,238414,77,237766,Sternberg_updated,32,18385,33,yes,1024,1
33,97,97,565,565,black,no,experiment,Mozilla,Netscape,"5.0 (Macintosh; Intel Mac OS X 10_13_6) AppleWebKit/605.1.15 (KHTML, like Gecko) Version/13.1.2 Safari/605.1.15",legacy,legacy,legacy,0,uniform,1,1,left,33,33,33,33,0,0,0,33,33,0,0,0,33,33,33,0,0,33,33,0,29-08-21,29-08-21,11:45:48,Wed Sep 29 2021 11:45:48 GMT+0200 (CEST),The main experiment item,yes,0,0,/Users/ethan/Documents/GitHub/OpenSesame/Sternberg/experiment_files,0,0,0,no,mono,no,18,no,white,no,no,768,40,3.6.1,legacy,legacy,4 2 6 9,osweb,1.4.0,1,0,n,36,,0,left,,,right,right,right,left,837,,,19662,15469,10975.0,837,2,legacy,878,1440,24,900,24,0,0,1440,1632908712246,4,1024,2,48000,-16,experiment,0,even,MacIntel,7,241681,,,238418.0,77,239457,45670.0,76,19769,105142.0,243700,240467,244547,77,243700,Sternberg_updated,33,19222,34,yes,1024,1
34,97,97,562,562,black,no,experiment,Mozilla,Netscape,"5.0 (Macintosh; Intel Mac OS X 10_13_6) AppleWebKit/605.1.15 (KHTML, like Gecko) Version/13.1.2 Safari/605.1.15",legacy,legacy,legacy,0,uniform,1,1,left,34,34,34,34,0,0,0,34,34,0,0,0,34,34,34,0,0,34,34,0,29-08-21,29-08-21,11:45:48,Wed Sep 29 2021 11:45:48 GMT+0200 (CEST),The main experiment item,yes,0,0,/Users/ethan/Documents/GitHub/OpenSesame/Sternberg/experiment_files,0,0,0,no,mono,no,18,no,white,no,no,768,40,3.6.1,legacy,legacy,1 7 5 2,osweb,1.4.0,1,0,n,36,,0,left,,,right,right,right,left,440,,,19662,15469,10975.0,440,2,legacy,878,1440,24,900,24,0,0,1440,1632908712246,4,1024,2,48000,-16,experiment,0,even,MacIntel,3,247832,,,244551.0,77,245599,45670.0,76,19769,105142.0,249851,246616,250298,77,249850,Sternberg_updated,34,19662,35,yes,1024,1
35,97,97,568,568,black,no,experiment,Mozilla,Netscape,"5.0 (Macintosh; Intel Mac OS X 10_13_6) AppleWebKit/605.1.15 (KHTML, like Gecko) Version/13.1.2 Safari/605.1.15",legacy,legacy,legacy,0,uniform,1,1,right,35,35,35,35,0,0,0,35,35,0,0,0,35,35,35,0,0,35,35,0,29-08-21,29-08-21,11:45:48,Wed Sep 29 2021 11:45:48 GMT+0200 (CEST),The main experiment item,yes,0,0,/Users/ethan/Documents/GitHub/OpenSesame/Sternberg/experiment_files,0,0,0,no,mono,no,18,no,white,no,no,768,40,3.6.1,legacy,legacy,7 1 8 5 6 2,osweb,1.4.0,1,2,y,36,,0,right,,,right,right,right,right,790,,,19662,15469,10975.0,790,2,legacy,878,1440,24,900,24,0,0,1440,1632908712246,6,1024,2,48000,-16,experiment,0,even,MacIntel,1,253582,,,250302.0,77,251351,45670.0,76,19769,105142.0,255601,252367,256398,77,255601,Sternberg_updated,35,20452,36,yes,1024,1
36,97,97,571,571,black,no,experiment,Mozilla,Netscape,"5.0 (Macintosh; Intel Mac OS X 10_13_6) AppleWebKit/605.1.15 (KHTML, like Gecko) Version/13.1.2 Safari/605.1.15",legacy,legacy,legacy,0,uniform,1,1,left,36,36,36,36,0,0,0,36,36,0,0,0,36,36,36,0,0,36,36,0,29-08-21,29-08-21,11:45:48,Wed Sep 29 2021 11:45:48 GMT+0200 (CEST),The main experiment item,yes,0,0,/Users/ethan/Documents/GitHub/OpenSesame/Sternberg/experiment_files,0,0,0,no,mono,no,18,no,white,no,no,768,40,3.6.1,legacy,legacy,7 9 1 6,osweb,1.4.0,1,0,n,36,,0,left,,,right,right,right,left,688,,,19662,15469,10975.0,688,2,legacy,878,1440,24,900,24,0,0,1440,1632908712246,4,1024,2,48000,-16,experiment,0,even,MacIntel,4,259666,,,256402.0,77,257442,45670.0,76,19769,105142.0,261685,258451,262382,77,261685,Sternberg_updated,36,21140,37,yes,1024,1
37,97,97,567,567,black,no,experiment,Mozilla,Netscape,"5.0 (Macintosh; Intel Mac OS X 10_13_6) AppleWebKit/605.1.15 (KHTML, like Gecko) Version/13.1.2 Safari/605.1.15",legacy,legacy,legacy,0,uniform,1,1,right,37,37,37,37,0,0,0,37,37,0,0,0,37,37,37,0,0,37,37,0,29-08-21,29-08-21,11:45:48,Wed Sep 29 2021 11:45:48 GMT+0200 (CEST),The main experiment item,yes,0,0,/Users/ethan/Documents/GitHub/OpenSesame/Sternberg/experiment_files,0,0,0,no,mono,no,18,no,white,no,no,768,40,3.6.1,legacy,legacy,4 6 5 8,osweb,1.4.0,1,1,y,36,,0,right,,,right,right,right,right,402,,,19662,15469,10975.0,402,2,legacy,878,1440,24,900,24,0,0,1440,1632908712246,4,1024,2,48000,-16,experiment,0,even,MacIntel,4,265649,,,262386.0,77,263429,45670.0,76,19769,105142.0,267668,264435,268082,77,267668,Sternberg_updated,37,21542,38,yes,1024,1
38,97,97,567,567,black,no,experiment,Mozilla,Netscape,"5.0 (Macintosh; Intel Mac OS X 10_13_6) AppleWebKit/605.1.15 (KHTML, like Gecko) Version/13.1.2 Safari/605.1.15",legacy,legacy,legacy,0,uniform,1,1,right,38,38,38,38,0,0,0,38,38,0,0,0,38,38,38,0,0,38,38,0,29-08-21,29-08-21,11:45:48,Wed Sep 29 2021 11:45:48 GMT+0200 (CEST),The main experiment item,yes,0,0,/Users/ethan/Documents/GitHub/OpenSesame/Sternberg/experiment_files,0,0,0,no,mono,no,18,no,white,no,no,768,40,3.6.1,legacy,legacy,8 5 1 3 9,osweb,1.4.0,1,4,y,36,,0,right,,,right,right,right,right,559,,,19662,15469,10975.0,559,2,legacy,878,1440,24,900,24,0,0,1440,1632908712246,5,1024,2,48000,-16,experiment,0,even,MacIntel,3,271350,,,268086.0,77,269126,45670.0,76,19769,105142.0,273368,270135,273933,77,273368,Sternberg_updated,38,22101,39,yes,1024,1
39,98,98,565,565,black,no,experiment,Mozilla,Netscape,"5.0 (Macintosh; Intel Mac OS X 10_13_6) AppleWebKit/605.1.15 (KHTML, like Gecko) Version/13.1.2 Safari/605.1.15",legacy,legacy,legacy,0,uniform,1,1,left,39,39,39,39,0,0,0,39,39,0,0,0,39,39,39,0,0,39,39,0,29-08-21,29-08-21,11:45:48,Wed Sep 29 2021 11:45:48 GMT+0200 (CEST),The main experiment item,yes,0,0,/Users/ethan/Documents/GitHub/OpenSesame/Sternberg/experiment_files,0,0,0,no,mono,no,18,no,white,no,no,768,40,3.6.1,legacy,legacy,7 9,osweb,1.4.0,1,0,n,36,,0,left,,,right,right,right,left,482,,,19662,15469,10975.0,482,2,legacy,878,1440,24,900,24,0,0,1440,1632908712246,2,1024,2,48000,-16,experiment,0,even,MacIntel,1,277200,,,273937.0,77,274979,45670.0,76,19769,105142.0,279219,275985,279716,77,279219,Sternberg_updated,39,22583,40,yes,1024,1
40,98,98,564,564,black,no,experiment,Mozilla,Netscape,"5.0 (Macintosh; Intel Mac OS X 10_13_6) AppleWebKit/605.1.15 (KHTML, like Gecko) Version/13.1.2 Safari/605.1.15",legacy,legacy,legacy,0,uniform,1,1,left,40,40,40,40,0,0,0,40,40,0,0,0,40,40,40,0,0,40,40,0,29-08-21,29-08-21,11:45:48,Wed Sep 29 2021 11:45:48 GMT+0200 (CEST),The main experiment item,yes,0,0,/Users/ethan/Documents/GitHub/OpenSesame/Sternberg/experiment_files,0,0,0,no,mono,no,18,no,white,no,no,768,40,3.6.1,legacy,legacy,8 5 4 2 9 6,osweb,1.4.0,1,0,n,36,,0,left,,,right,right,right,left,552,,,19662,15469,10975.0,552,2,legacy,878,1440,24,900,24,0,0,1440,1632908712246,6,1024,2,48000,-16,experiment,0,even,MacIntel,3,282984,,,279720.0,77,280759,45670.0,76,19769,105142.0,285003,281770,285567,77,285003,Sternberg_updated,40,23135,41,yes,1024,1
41,98,98,563,563,black,no,experiment,Mozilla,Netscape,"5.0 (Macintosh; Intel Mac OS X 10_13_6) AppleWebKit/605.1.15 (KHTML, like Gecko) Version/13.1.2 Safari/605.1.15",legacy,legacy,legacy,0,uniform,1,1,right,41,41,41,41,0,0,0,41,41,0,0,0,41,41,41,0,0,41,41,0,29-08-21,29-08-21,11:45:48,Wed Sep 29 2021 11:45:48 GMT+0200 (CEST),The main experiment item,yes,0,0,/Users/ethan/Documents/GitHub/OpenSesame/Sternberg/experiment_files,0,0,0,no,mono,no,18,no,white,no,no,768,40,3.6.1,legacy,legacy,1 4 9 3 2 5,osweb,1.4.0,1,3,y,36,,0,right,,,right,right,right,right,510,,,19662,15469,10975.0,510,2,legacy,878,1440,24,900,24,0,0,1440,1632908712246,6,1024,2,48000,-16,experiment,0,even,MacIntel,9,288834,,,285571.0,77,286612,45670.0,76,19769,105142.0,290854,287620,291367,77,290853,Sternberg_updated,41,23645,42,yes,1024,1
42,98,98,562,562,black,no,experiment,Mozilla,Netscape,"5.0 (Macintosh; Intel Mac OS X 10_13_6) AppleWebKit/605.1.15 (KHTML, like Gecko) Version/13.1.2 Safari/605.1.15",legacy,legacy,legacy,0,uniform,1,1,left,42,42,42,42,0,0,0,42,42,0,0,0,42,42,42,0,0,42,42,0,29-08-21,29-08-21,11:45:48,Wed Sep 29 2021 11:45:48 GMT+0200 (CEST),The main experiment item,yes,0,0,/Users/ethan/Documents/GitHub/OpenSesame/Sternberg/experiment_files,0,0,0,no,mono,no,18,no,white,no,no,768,40,3.6.1,legacy,legacy,7 4 2 8 1 9,osweb,1.4.0,1,0,n,36,,0,left,,,right,right,right,left,525,,,19662,15469,10975.0,525,2,legacy,878,1440,24,900,24,0,0,1440,1632908712246,6,1024,2,48000,-16,experiment,0,even,MacIntel,5,294634,,,291372.0,77,292416,45670.0,76,19769,105142.0,296654,293420,297184,77,296654,Sternberg_updated,42,24170,43,yes,1024,1
43,98,98,560,560,black,no,experiment,Mozilla,Netscape,"5.0 (Macintosh; Intel Mac OS X 10_13_6) AppleWebKit/605.1.15 (KHTML, like Gecko) Version/13.1.2 Safari/605.1.15",legacy,legacy,legacy,0,uniform,1,1,left,43,43,43,43,0,0,0,43,43,0,0,0,43,43,43,0,0,43,43,0,29-08-21,29-08-21,11:45:48,Wed Sep 29 2021 11:45:48 GMT+0200 (CEST),The main experiment item,yes,0,0,/Users/ethan/Documents/GitHub/OpenSesame/Sternberg/experiment_files,0,0,0,no,mono,no,18,no,white,no,no,768,40,3.6.1,legacy,legacy,2 8 9 4 1,osweb,1.4.0,1,0,n,36,,0,left,,,right,right,right,left,450,,,19662,15469,10975.0,450,2,legacy,878,1440,24,900,24,0,0,1440,1632908712246,5,1024,2,48000,-16,experiment,0,even,MacIntel,5,300452,,,297189.0,77,298229,45670.0,76,19769,105142.0,302471,299237,302935,77,302471,Sternberg_updated,43,24620,44,yes,1024,1
44,98,98,560,560,black,no,experiment,Mozilla,Netscape,"5.0 (Macintosh; Intel Mac OS X 10_13_6) AppleWebKit/605.1.15 (KHTML, like Gecko) Version/13.1.2 Safari/605.1.15",legacy,legacy,legacy,0,uniform,1,1,left,44,44,44,44,0,0,0,44,44,0,0,0,44,44,44,0,0,44,44,0,29-08-21,29-08-21,11:45:48,Wed Sep 29 2021 11:45:48 GMT+0200 (CEST),The main experiment item,yes,0,0,/Users/ethan/Documents/GitHub/OpenSesame/Sternberg/experiment_files,0,0,0,no,mono,no,18,no,white,no,no,768,40,3.6.1,legacy,legacy,5 9 2 3,osweb,1.4.0,1,0,n,36,,0,left,,,right,right,right,left,593,,,19662,15469,10975.0,593,2,legacy,878,1440,24,900,24,0,0,1440,1632908712246,4,1024,2,48000,-16,experiment,0,even,MacIntel,8,306202,,,302939.0,77,303980,45670.0,76,19769,105142.0,308221,304987,308818,77,308221,Sternberg_updated,44,25213,45,yes,1024,1
45,98,98,561,561,black,no,experiment,Mozilla,Netscape,"5.0 (Macintosh; Intel Mac OS X 10_13_6) AppleWebKit/605.1.15 (KHTML, like Gecko) Version/13.1.2 Safari/605.1.15",legacy,legacy,legacy,0,uniform,1,1,right,45,45,45,45,0,0,0,45,45,0,0,0,45,45,45,0,0,45,45,0,29-08-21,29-08-21,11:45:48,Wed Sep 29 2021 11:45:48 GMT+0200 (CEST),The main experiment item,yes,0,0,/Users/ethan/Documents/GitHub/OpenSesame/Sternberg/experiment_files,0,0,0,no,mono,no,18,no,white,no,no,768,40,3.6.1,legacy,legacy,5 7 8 2 3 8,osweb,1.4.0,1,5,y,36,,0,right,,,right,right,right,right,597,,,19662,15469,10975.0,597,2,legacy,878,1440,24,900,24,0,0,1440,1632908712246,6,1024,2,48000,-16,experiment,0,even,MacIntel,3,312086,,,308822.0,77,309863,45670.0,76,19769,105142.0,314104,310871,314701,77,314104,Sternberg_updated,45,25810,46,yes,1024,1
46,98,98,557,557,black,no,experiment,Mozilla,Netscape,"5.0 (Macintosh; Intel Mac OS X 10_13_6) AppleWebKit/605.1.15 (KHTML, like Gecko) Version/13.1.2 Safari/605.1.15",legacy,legacy,legacy,0,uniform,1,1,right,46,46,46,46,0,0,0,46,46,0,0,0,46,46,46,0,0,46,46,0,29-08-21,29-08-21,11:45:48,Wed Sep 29 2021 11:45:48 GMT+0200 (CEST),The main experiment item,yes,0,0,/Users/ethan/Documents/GitHub/OpenSesame/Sternberg/experiment_files,0,0,0,no,mono,no,18,no,white,no,no,768,40,3.6.1,legacy,legacy,8 3,osweb,1.4.0,1,2,y,36,,0,right,,,right,right,right,right,349,,,19662,15469,10975.0,349,2,legacy,878,1440,24,900,24,0,0,1440,1632908712246,2,1024,2,48000,-16,experiment,0,even,MacIntel,3,317970,,,314705.0,77,315745,45670.0,76,19769,105142.0,319989,316755,320353,77,319989,Sternberg_updated,46,26159,47,yes,1024,1
47,98,98,554,554,black,no,experiment,Mozilla,Netscape,"5.0 (Macintosh; Intel Mac OS X 10_13_6) AppleWebKit/605.1.15 (KHTML, like Gecko) Version/13.1.2 Safari/605.1.15",legacy,legacy,legacy,0,uniform,1,1,left,47,47,47,47,0,0,0,47,47,0,0,0,47,47,47,0,0,47,47,0,29-08-21,29-08-21,11:45:48,Wed Sep 29 2021 11:45:48 GMT+0200 (CEST),The main experiment item,yes,0,0,/Users/ethan/Documents/GitHub/OpenSesame/Sternberg/experiment_files,0,0,0,no,mono,no,18,no,white,no,no,768,40,3.6.1,legacy,legacy,6 9 7 3 8 2,osweb,1.4.0,1,0,n,36,,0,left,,,right,right,right,left,444,,,19662,15469,10975.0,444,2,legacy,878,1440,24,900,24,0,0,1440,1632908712246,6,1024,2,48000,-16,experiment,0,even,MacIntel,5,323637,,,320357.0,77,321403,45670.0,76,19769,105142.0,325656,322422,326102,77,325656,Sternberg_updated,47,26603,48,yes,1024,1
48,98,98,554,554,black,no,experiment,Mozilla,Netscape,"5.0 (Macintosh; Intel Mac OS X 10_13_6) AppleWebKit/605.1.15 (KHTML, like Gecko) Version/13.1.2 Safari/605.1.15",legacy,legacy,legacy,0,uniform,1,1,left,48,48,48,48,0,0,0,48,48,0,0,0,48,48,48,0,0,48,48,0,29-08-21,29-08-21,11:45:48,Wed Sep 29 2021 11:45:48 GMT+0200 (CEST),The main experiment item,yes,0,0,/Users/ethan/Documents/GitHub/OpenSesame/Sternberg/experiment_files,0,0,0,no,mono,no,18,no,white,no,no,768,40,3.6.1,legacy,legacy,6 3 1 7 9 8,osweb,1.4.0,1,0,n,36,,0,left,,,right,right,right,left,546,,,19662,15469,10975.0,546,2,legacy,878,1440,24,900,24,0,0,1440,1632908712246,6,1024,2,48000,-16,experiment,0,even,MacIntel,4,329371,,,326107.0,77,327148,45670.0,76,19769,105142.0,331390,328155,331936,77,331390,Sternberg_updated,48,27149,49,yes,1024,1
49,98,98,556,556,black,no,experiment,Mozilla,Netscape,"5.0 (Macintosh; Intel Mac OS X 10_13_6) AppleWebKit/605.1.15 (KHTML, like Gecko) Version/13.1.2 Safari/605.1.15",legacy,legacy,legacy,0,uniform,1,1,left,49,49,49,49,0,0,0,49,49,0,0,0,49,49,49,0,0,49,49,0,29-08-21,29-08-21,11:45:48,Wed Sep 29 2021 11:45:48 GMT+0200 (CEST),The main experiment item,yes,0,0,/Users/ethan/Documents/GitHub/OpenSesame/Sternberg/experiment_files,0,0,0,no,mono,no,18,no,white,no,no,768,40,3.6.1,legacy,legacy,6 2 9 3 8 4,osweb,1.4.0,1,0,n,36,,0,left,,,right,right,right,left,650,,,19662,15469,10975.0,650,2,legacy,878,1440,24,900,24,0,0,1440,1632908712246,6,1024,2,48000,-16,experiment,0,even,MacIntel,1,335204,,,331940.0,77,332979,45670.0,76,19769,105142.0,337223,333990,337887,77,337223,Sternberg_updated,49,27799,50,yes,1024,1
50,98,98,552,552,black,no,experiment,Mozilla,Netscape,"5.0 (Macintosh; Intel Mac OS X 10_13_6) AppleWebKit/605.1.15 (KHTML, like Gecko) Version/13.1.2 Safari/605.1.15",legacy,legacy,legacy,0,uniform,1,1,right,50,50,50,50,0,0,0,50,50,0,0,0,50,50,50,0,0,50,50,0,29-08-21,29-08-21,11:45:48,Wed Sep 29 2021 11:45:48 GMT+0200 (CEST),The main experiment item,yes,0,0,/Users/ethan/Documents/GitHub/OpenSesame/Sternberg/experiment_files,0,0,0,no,mono,no,18,no,white,no,no,768,40,3.6.1,legacy,legacy,7 8 6 3 1,osweb,1.4.0,1,5,y,36,,0,right,,,right,right,right,right,362,,,19662,15469,10975.0,362,2,legacy,878,1440,24,900,24,0,0,1440,1632908712246,5,1024,2,48000,-16,experiment,0,even,MacIntel,1,341171,,,337891.0,77,338941,45670.0,76,19769,105142.0,343190,339957,343554,77,343190,Sternberg_updated,50,28161,51,yes,1024,1
51,98,98,552,552,black,no,experiment,Mozilla,Netscape,"5.0 (Macintosh; Intel Mac OS X 10_13_6) AppleWebKit/605.1.15 (KHTML, like Gecko) Version/13.1.2 Safari/605.1.15",legacy,legacy,legacy,0,uniform,1,1,left,51,51,51,51,0,0,0,51,51,0,0,0,51,51,51,0,0,51,51,0,29-08-21,29-08-21,11:45:48,Wed Sep 29 2021 11:45:48 GMT+0200 (CEST),The main experiment item,yes,0,0,/Users/ethan/Documents/GitHub/OpenSesame/Sternberg/experiment_files,0,0,0,no,mono,no,18,no,white,no,no,768,40,3.6.1,legacy,legacy,4 8 1 2,osweb,1.4.0,1,0,n,36,,0,left,,,right,right,right,left,540,,,19662,15469,10975.0,540,2,legacy,878,1440,24,900,24,0,0,1440,1632908712246,4,1024,2,48000,-16,experiment,0,even,MacIntel,7,346822,,,343558.0,77,344599,45670.0,76,19769,105142.0,348841,345612,349388,77,348841,Sternberg_updated,51,28701,52,yes,1024,1
52,98,98,551,551,black,no,experiment,Mozilla,Netscape,"5.0 (Macintosh; Intel Mac OS X 10_13_6) AppleWebKit/605.1.15 (KHTML, like Gecko) Version/13.1.2 Safari/605.1.15",legacy,legacy,legacy,0,uniform,1,1,right,52,52,52,52,0,0,0,52,52,0,0,0,52,52,52,0,0,52,52,0,29-08-21,29-08-21,11:45:48,Wed Sep 29 2021 11:45:48 GMT+0200 (CEST),The main experiment item,yes,0,0,/Users/ethan/Documents/GitHub/OpenSesame/Sternberg/experiment_files,0,0,0,no,mono,no,18,no,white,no,no,768,40,3.6.1,legacy,legacy,6 7 9 3 1 2,osweb,1.4.0,1,1,y,36,,0,right,,,right,right,right,right,476,,,19662,15469,10975.0,476,2,legacy,878,1440,24,900,24,0,0,1440,1632908712246,6,1024,2,48000,-16,experiment,0,even,MacIntel,6,352655,,,349392.0,77,350430,45670.0,76,19769,105142.0,354675,351441,355155,77,354674,Sternberg_updated,52,29177,53,yes,1024,1
53,98,98,551,551,black,no,experiment,Mozilla,Netscape,"5.0 (Macintosh; Intel Mac OS X 10_13_6) AppleWebKit/605.1.15 (KHTML, like Gecko) Version/13.1.2 Safari/605.1.15",legacy,legacy,legacy,0,uniform,1,1,right,53,53,53,53,0,0,0,53,53,0,0,0,53,53,53,0,0,53,53,0,29-08-21,29-08-21,11:45:48,Wed Sep 29 2021 11:45:48 GMT+0200 (CEST),The main experiment item,yes,0,0,/Users/ethan/Documents/GitHub/OpenSesame/Sternberg/experiment_files,0,0,0,no,mono,no,18,no,white,no,no,768,40,3.6.1,legacy,legacy,6 1 2,osweb,1.4.0,1,3,y,36,,0,right,,,right,right,right,right,569,,,19662,15469,10975.0,569,2,legacy,878,1440,24,900,24,0,0,1440,1632908712246,3,1024,2,48000,-16,experiment,0,even,MacIntel,2,358423,,,355159.0,77,356203,45670.0,76,19769,105142.0,360442,357207,361021,77,360442,Sternberg_updated,53,29746,54,yes,1024,1
54,98,98,548,548,black,no,experiment,Mozilla,Netscape,"5.0 (Macintosh; Intel Mac OS X 10_13_6) AppleWebKit/605.1.15 (KHTML, like Gecko) Version/13.1.2 Safari/605.1.15",legacy,legacy,legacy,0,uniform,1,1,right,54,54,54,54,0,0,0,54,54,0,0,0,54,54,54,0,0,54,54,0,29-08-21,29-08-21,11:45:48,Wed Sep 29 2021 11:45:48 GMT+0200 (CEST),The main experiment item,yes,0,0,/Users/ethan/Documents/GitHub/OpenSesame/Sternberg/experiment_files,0,0,0,no,mono,no,18,no,white,no,no,768,40,3.6.1,legacy,legacy,8,osweb,1.4.0,1,1,y,36,,0,right,,,right,right,right,right,373,,,19662,15469,10975.0,373,2,legacy,878,1440,24,900,24,0,0,1440,1632908712246,1,1024,2,48000,-16,experiment,0,even,MacIntel,8,364289,,,361025.0,77,362070,45670.0,76,19769,105142.0,366309,363074,366689,77,366308,Sternberg_updated,54,30119,55,yes,1024,1
55,98,98,547,547,black,no,experiment,Mozilla,Netscape,"5.0 (Macintosh; Intel Mac OS X 10_13_6) AppleWebKit/605.1.15 (KHTML, like Gecko) Version/13.1.2 Safari/605.1.15",legacy,legacy,legacy,0,uniform,1,1,left,55,55,55,55,0,0,0,55,55,0,0,0,55,55,55,0,0,55,55,0,29-08-21,29-08-21,11:45:48,Wed Sep 29 2021 11:45:48 GMT+0200 (CEST),The main experiment item,yes,0,0,/Users/ethan/Documents/GitHub/OpenSesame/Sternberg/experiment_files,0,0,0,no,mono,no,18,no,white,no,no,768,40,3.6.1,legacy,legacy,7 6 4 8 1 2,osweb,1.4.0,1,0,n,36,,0,left,right,,right,right,right,left,505,18812.0,,19662,15469,10975.0,505,2,legacy,878,1440,24,900,24,0,0,1440,1632908712246,6,1024,2,48000,-16,experiment,0,even,MacIntel,9,388791,367713.0,,366693.0,77,386567,45670.0,76,19769,105142.0,390811,387577,391324,77,390811,Sternberg_updated,55,30624,56,yes,1024,1
56,98,98,548,548,black,no,experiment,Mozilla,Netscape,"5.0 (Macintosh; Intel Mac OS X 10_13_6) AppleWebKit/605.1.15 (KHTML, like Gecko) Version/13.1.2 Safari/605.1.15",legacy,legacy,legacy,0,uniform,1,1,right,56,56,56,56,0,0,0,56,56,0,0,0,56,56,56,0,0,56,56,0,29-08-21,29-08-21,11:45:48,Wed Sep 29 2021 11:45:48 GMT+0200 (CEST),The main experiment item,yes,0,0,/Users/ethan/Documents/GitHub/OpenSesame/Sternberg/experiment_files,0,0,0,no,mono,no,18,no,white,no,no,768,40,3.6.1,legacy,legacy,3 5 4 7,osweb,1.4.0,1,1,y,36,,0,right,right,,right,right,right,right,588,18812.0,,19662,15469,10975.0,588,2,legacy,878,1440,24,900,24,0,0,1440,1632908712246,4,1024,2,48000,-16,experiment,0,even,MacIntel,3,394592,367713.0,,391328.0,77,392367,45670.0,76,19769,105142.0,396611,393377,397208,77,396611,Sternberg_updated,56,31212,57,yes,1024,1
57,98,98,555,555,black,no,experiment,Mozilla,Netscape,"5.0 (Macintosh; Intel Mac OS X 10_13_6) AppleWebKit/605.1.15 (KHTML, like Gecko) Version/13.1.2 Safari/605.1.15",legacy,legacy,legacy,0,uniform,1,1,right,57,57,57,57,0,0,0,57,57,0,0,0,57,57,57,0,0,57,57,0,29-08-21,29-08-21,11:45:48,Wed Sep 29 2021 11:45:48 GMT+0200 (CEST),The main experiment item,yes,0,0,/Users/ethan/Documents/GitHub/OpenSesame/Sternberg/experiment_files,0,0,0,no,mono,no,18,no,white,no,no,768,40,3.6.1,legacy,legacy,2 4 8 5 1 3,osweb,1.4.0,1,1,y,36,,0,right,right,,right,right,right,right,967,18812.0,,19662,15469,10975.0,967,2,legacy,878,1440,24,900,24,0,0,1440,1632908712246,6,1024,2,48000,-16,experiment,0,even,MacIntel,2,400492,367713.0,,397212.0,77,398258,45670.0,76,19769,105142.0,402510,399279,403492,77,402510,Sternberg_updated,57,32179,58,yes,1024,1
58,98,98,552,552,black,no,experiment,Mozilla,Netscape,"5.0 (Macintosh; Intel Mac OS X 10_13_6) AppleWebKit/605.1.15 (KHTML, like Gecko) Version/13.1.2 Safari/605.1.15",legacy,legacy,legacy,0,uniform,1,1,right,58,58,58,58,0,0,0,58,58,0,0,0,58,58,58,0,0,58,58,0,29-08-21,29-08-21,11:45:48,Wed Sep 29 2021 11:45:48 GMT+0200 (CEST),The main experiment item,yes,0,0,/Users/ethan/Documents/GitHub/OpenSesame/Sternberg/experiment_files,0,0,0,no,mono,no,18,no,white,no,no,768,40,3.6.1,legacy,legacy,4,osweb,1.4.0,1,1,y,36,,0,right,right,,right,right,right,right,410,18812.0,,19662,15469,10975.0,410,2,legacy,878,1440,24,900,24,0,0,1440,1632908712246,1,1024,2,48000,-16,experiment,0,even,MacIntel,4,406759,367713.0,,403498.0,77,404536,45670.0,76,19769,105142.0,408779,405544,409192,77,408779,Sternberg_updated,58,32589,59,yes,1024,1
59,98,98,557,557,black,no,experiment,Mozilla,Netscape,"5.0 (Macintosh; Intel Mac OS X 10_13_6) AppleWebKit/605.1.15 (KHTML, like Gecko) Version/13.1.2 Safari/605.1.15",legacy,legacy,legacy,0,uniform,1,1,right,59,59,59,59,0,0,0,59,59,0,0,0,59,59,59,0,0,59,59,0,29-08-21,29-08-21,11:45:48,Wed Sep 29 2021 11:45:48 GMT+0200 (CEST),The main experiment item,yes,0,0,/Users/ethan/Documents/GitHub/OpenSesame/Sternberg/experiment_files,0,0,0,no,mono,no,18,no,white,no,no,768,40,3.6.1,legacy,legacy,4 7 6 8 2 3,osweb,1.4.0,1,6,y,36,,0,right,right,,right,right,right,right,812,18812.0,,19662,15469,10975.0,812,2,legacy,878,1440,24,900,24,0,0,1440,1632908712246,6,1024,2,48000,-16,experiment,0,even,MacIntel,3,412460,367713.0,,409197.0,77,410235,45670.0,76,19769,105142.0,414479,411245,415292,77,414478,Sternberg_updated,59,33401,60,yes,1024,1
60,98,98,558,558,black,no,experiment,Mozilla,Netscape,"5.0 (Macintosh; Intel Mac OS X 10_13_6) AppleWebKit/605.1.15 (KHTML, like Gecko) Version/13.1.2 Safari/605.1.15",legacy,legacy,legacy,0,uniform,1,1,right,60,60,60,60,0,0,0,60,60,0,0,0,60,60,60,0,0,60,60,0,29-08-21,29-08-21,11:45:48,Wed Sep 29 2021 11:45:48 GMT+0200 (CEST),The main experiment item,yes,0,0,/Users/ethan/Documents/GitHub/OpenSesame/Sternberg/experiment_files,0,0,0,no,mono,no,18,no,white,no,no,768,40,3.6.1,legacy,legacy,9 3 1 2 5,osweb,1.4.0,1,4,y,36,,0,right,right,,right,right,right,right,660,18812.0,,19662,15469,10975.0,660,2,legacy,878,1440,24,900,24,0,0,1440,1632908712246,5,1024,2,48000,-16,experiment,0,even,MacIntel,2,418560,367713.0,,415297.0,77,416335,45670.0,76,19769,105142.0,420579,417345,421243,77,420578,Sternberg_updated,60,34061,61,yes,1024,1
61,98,98,555,555,black,no,experiment,Mozilla,Netscape,"5.0 (Macintosh; Intel Mac OS X 10_13_6) AppleWebKit/605.1.15 (KHTML, like Gecko) Version/13.1.2 Safari/605.1.15",legacy,legacy,legacy,0,uniform,1,1,right,61,61,61,61,0,0,0,61,61,0,0,0,61,61,61,0,0,61,61,0,29-08-21,29-08-21,11:45:48,Wed Sep 29 2021 11:45:48 GMT+0200 (CEST),The main experiment item,yes,0,0,/Users/ethan/Documents/GitHub/OpenSesame/Sternberg/experiment_files,0,0,0,no,mono,no,18,no,white,no,no,768,40,3.6.1,legacy,legacy,7,osweb,1.4.0,1,1,y,36,,0,right,right,,right,right,right,right,373,18812.0,,19662,15469,10975.0,373,2,legacy,878,1440,24,900,24,0,0,1440,1632908712246,1,1024,2,48000,-16,experiment,0,even,MacIntel,7,424511,367713.0,,421247.0,77,422285,45670.0,76,19769,105142.0,426529,423296,426910,77,426529,Sternberg_updated,61,34434,62,yes,1024,1
62,98,98,556,556,black,no,experiment,Mozilla,Netscape,"5.0 (Macintosh; Intel Mac OS X 10_13_6) AppleWebKit/605.1.15 (KHTML, like Gecko) Version/13.1.2 Safari/605.1.15",legacy,legacy,legacy,0,uniform,1,1,right,62,62,62,62,0,0,0,62,62,0,0,0,62,62,62,0,0,62,62,0,29-08-21,29-08-21,11:45:48,Wed Sep 29 2021 11:45:48 GMT+0200 (CEST),The main experiment item,yes,0,0,/Users/ethan/Documents/GitHub/OpenSesame/Sternberg/experiment_files,0,0,0,no,mono,no,18,no,white,no,no,768,40,3.6.1,legacy,legacy,3 4,osweb,1.4.0,1,1,y,36,,0,right,right,,right,right,right,right,579,18812.0,,19662,15469,10975.0,579,2,legacy,878,1440,24,900,24,0,0,1440,1632908712246,2,1024,2,48000,-16,experiment,0,even,MacIntel,3,430178,367713.0,,426914.0,77,427955,45670.0,76,19769,105142.0,432198,428963,432794,77,432197,Sternberg_updated,62,35013,63,yes,1024,1
63,97,97,557,557,black,no,experiment,Mozilla,Netscape,"5.0 (Macintosh; Intel Mac OS X 10_13_6) AppleWebKit/605.1.15 (KHTML, like Gecko) Version/13.1.2 Safari/605.1.15",legacy,legacy,legacy,0,uniform,0,0,right,63,63,63,63,0,0,0,63,63,0,0,0,63,63,63,0,0,63,63,0,29-08-21,29-08-21,11:45:48,Wed Sep 29 2021 11:45:48 GMT+0200 (CEST),The main experiment item,yes,0,0,/Users/ethan/Documents/GitHub/OpenSesame/Sternberg/experiment_files,0,0,0,no,mono,no,18,no,white,no,no,768,40,3.6.1,legacy,legacy,5 2 9 6 1 7,osweb,1.4.0,1,3,y,36,,0,left,right,,right,right,right,left,642,18812.0,,19662,15469,10975.0,642,2,legacy,878,1440,24,900,24,0,0,1440,1632908712246,6,1024,2,48000,-16,experiment,0,even,MacIntel,9,436061,367713.0,,432800.0,77,433840,45670.0,76,19769,105142.0,438080,434847,438728,77,438080,Sternberg_updated,62,35655,64,yes,1024,1
64,97,97,557,557,black,no,experiment,Mozilla,Netscape,"5.0 (Macintosh; Intel Mac OS X 10_13_6) AppleWebKit/605.1.15 (KHTML, like Gecko) Version/13.1.2 Safari/605.1.15",legacy,legacy,legacy,0,uniform,1,1,right,64,64,64,64,0,0,0,64,64,0,0,0,64,64,64,0,0,64,64,0,29-08-21,29-08-21,11:45:48,Wed Sep 29 2021 11:45:48 GMT+0200 (CEST),The main experiment item,yes,0,0,/Users/ethan/Documents/GitHub/OpenSesame/Sternberg/experiment_files,0,0,0,no,mono,no,18,no,white,no,no,768,40,3.6.1,legacy,legacy,4 1 8 7 5,osweb,1.4.0,1,3,y,36,,0,right,right,,right,right,right,right,582,18812.0,,19662,15469,10975.0,582,2,legacy,878,1440,24,900,24,0,0,1440,1632908712246,5,1024,2,48000,-16,experiment,0,even,MacIntel,8,441995,367713.0,,432800.0,77,439770,438733.0,76,19769,105142.0,444014,440780,444611,77,444014,Sternberg_updated,63,36237,65,yes,1024,1
65,97,97,558,558,black,no,experiment,Mozilla,Netscape,"5.0 (Macintosh; Intel Mac OS X 10_13_6) AppleWebKit/605.1.15 (KHTML, like Gecko) Version/13.1.2 Safari/605.1.15",legacy,legacy,legacy,0,uniform,1,1,left,65,65,65,65,0,0,0,65,65,0,0,0,65,65,65,0,0,65,65,0,29-08-21,29-08-21,11:45:48,Wed Sep 29 2021 11:45:48 GMT+0200 (CEST),The main experiment item,yes,0,0,/Users/ethan/Documents/GitHub/OpenSesame/Sternberg/experiment_files,0,0,0,no,mono,no,18,no,white,no,no,768,40,3.6.1,legacy,legacy,9 8 2 7 4,osweb,1.4.0,1,0,n,36,,0,left,right,,right,right,right,left,558,18812.0,,19662,15469,10975.0,558,2,legacy,878,1440,24,900,24,0,0,1440,1632908712246,5,1024,2,48000,-16,experiment,0,even,MacIntel,5,447879,367713.0,,444615.0,77,445652,438733.0,76,19769,105142.0,449898,446664,450461,77,449897,Sternberg_updated,64,36795,66,yes,1024,1
66,97,97,555,555,black,no,experiment,Mozilla,Netscape,"5.0 (Macintosh; Intel Mac OS X 10_13_6) AppleWebKit/605.1.15 (KHTML, like Gecko) Version/13.1.2 Safari/605.1.15",legacy,legacy,legacy,0,uniform,1,1,right,66,66,66,66,0,0,0,66,66,0,0,0,66,66,66,0,0,66,66,0,29-08-21,29-08-21,11:45:48,Wed Sep 29 2021 11:45:48 GMT+0200 (CEST),The main experiment item,yes,0,0,/Users/ethan/Documents/GitHub/OpenSesame/Sternberg/experiment_files,0,0,0,no,mono,no,18,no,white,no,no,768,40,3.6.1,legacy,legacy,7 1 3,osweb,1.4.0,1,2,y,36,,0,right,right,,right,right,right,right,378,18812.0,,19662,15469,10975.0,378,2,legacy,878,1440,24,900,24,0,0,1440,1632908712246,3,1024,2,48000,-16,experiment,0,even,MacIntel,1,453729,367713.0,,450467.0,77,451510,438733.0,76,19769,105142.0,455748,452515,456128,77,455748,Sternberg_updated,65,37173,67,yes,1024,1
67,97,97,553,553,black,no,experiment,Mozilla,Netscape,"5.0 (Macintosh; Intel Mac OS X 10_13_6) AppleWebKit/605.1.15 (KHTML, like Gecko) Version/13.1.2 Safari/605.1.15",legacy,legacy,legacy,0,uniform,1,1,left,67,67,67,67,0,0,0,67,67,0,0,0,67,67,67,0,0,67,67,0,29-08-21,29-08-21,11:45:48,Wed Sep 29 2021 11:45:48 GMT+0200 (CEST),The main experiment item,yes,0,0,/Users/ethan/Documents/GitHub/OpenSesame/Sternberg/experiment_files,0,0,0,no,mono,no,18,no,white,no,no,768,40,3.6.1,legacy,legacy,6 7 5 9,osweb,1.4.0,1,0,n,36,,0,left,right,,right,right,right,left,455,18812.0,,19662,15469,10975.0,455,2,legacy,878,1440,24,900,24,0,0,1440,1632908712246,4,1024,2,48000,-16,experiment,0,even,MacIntel,2,459396,367713.0,,456134.0,77,457170,438733.0,76,19769,105142.0,461416,458182,461879,77,461416,Sternberg_updated,66,37628,68,yes,1024,1
68,97,97,553,553,black,no,experiment,Mozilla,Netscape,"5.0 (Macintosh; Intel Mac OS X 10_13_6) AppleWebKit/605.1.15 (KHTML, like Gecko) Version/13.1.2 Safari/605.1.15",legacy,legacy,legacy,0,uniform,1,1,left,68,68,68,68,0,0,0,68,68,0,0,0,68,68,68,0,0,68,68,0,29-08-21,29-08-21,11:45:48,Wed Sep 29 2021 11:45:48 GMT+0200 (CEST),The main experiment item,yes,0,0,/Users/ethan/Documents/GitHub/OpenSesame/Sternberg/experiment_files,0,0,0,no,mono,no,18,no,white,no,no,768,40,3.6.1,legacy,legacy,8 2 1 4 5 9,osweb,1.4.0,1,0,n,36,,0,left,right,,right,right,right,left,515,18812.0,,19662,15469,10975.0,515,2,legacy,878,1440,24,900,24,0,0,1440,1632908712246,6,1024,2,48000,-16,experiment,0,even,MacIntel,7,465147,367713.0,,461884.0,77,462924,438733.0,76,19769,105142.0,467166,463932,467696,77,467165,Sternberg_updated,67,38143,69,yes,1024,1
69,97,97,552,552,black,no,experiment,Mozilla,Netscape,"5.0 (Macintosh; Intel Mac OS X 10_13_6) AppleWebKit/605.1.15 (KHTML, like Gecko) Version/13.1.2 Safari/605.1.15",legacy,legacy,legacy,0,uniform,1,1,right,69,69,69,69,0,0,0,69,69,0,0,0,69,69,69,0,0,69,69,0,29-08-21,29-08-21,11:45:48,Wed Sep 29 2021 11:45:48 GMT+0200 (CEST),The main experiment item,yes,0,0,/Users/ethan/Documents/GitHub/OpenSesame/Sternberg/experiment_files,0,0,0,no,mono,no,18,no,white,no,no,768,40,3.6.1,legacy,legacy,6 9 3 1,osweb,1.4.0,1,4,y,36,,0,right,right,,right,right,right,right,494,18812.0,,19662,15469,10975.0,494,2,legacy,878,1440,24,900,24,0,0,1440,1632908712246,4,1024,2,48000,-16,experiment,0,even,MacIntel,1,470964,367713.0,,467700.0,77,468738,438733.0,76,19769,105142.0,472982,469749,473480,77,472982,Sternberg_updated,68,38637,70,yes,1024,1
70,97,97,552,552,black,no,experiment,Mozilla,Netscape,"5.0 (Macintosh; Intel Mac OS X 10_13_6) AppleWebKit/605.1.15 (KHTML, like Gecko) Version/13.1.2 Safari/605.1.15",legacy,legacy,legacy,0,uniform,1,1,right,70,70,70,70,0,0,0,70,70,0,0,0,70,70,70,0,0,70,70,0,29-08-21,29-08-21,11:45:48,Wed Sep 29 2021 11:45:48 GMT+0200 (CEST),The main experiment item,yes,0,0,/Users/ethan/Documents/GitHub/OpenSesame/Sternberg/experiment_files,0,0,0,no,mono,no,18,no,white,no,no,768,40,3.6.1,legacy,legacy,3 9 6 2,osweb,1.4.0,1,4,y,36,,0,right,right,,right,right,right,right,574,18812.0,,19662,15469,10975.0,574,2,legacy,878,1440,24,900,24,0,0,1440,1632908712246,4,1024,2,48000,-16,experiment,0,even,MacIntel,2,476747,367713.0,,473484.0,77,474523,438733.0,76,19769,105142.0,478767,475533,479347,77,478766,Sternberg_updated,69,39211,71,yes,1024,1
71,97,97,551,551,black,no,experiment,Mozilla,Netscape,"5.0 (Macintosh; Intel Mac OS X 10_13_6) AppleWebKit/605.1.15 (KHTML, like Gecko) Version/13.1.2 Safari/605.1.15",legacy,legacy,legacy,0,uniform,1,1,left,71,71,71,71,0,0,0,71,71,0,0,0,71,71,71,0,0,71,71,0,29-08-21,29-08-21,11:45:48,Wed Sep 29 2021 11:45:48 GMT+0200 (CEST),The main experiment item,yes,0,0,/Users/ethan/Documents/GitHub/OpenSesame/Sternberg/experiment_files,0,0,0,no,mono,no,18,no,white,no,no,768,40,3.6.1,legacy,legacy,2 5 1 4,osweb,1.4.0,1,0,n,36,,0,left,right,,right,right,right,left,486,18812.0,,19662,15469,10975.0,486,2,legacy,878,1440,24,900,24,0,0,1440,1632908712246,4,1024,2,48000,-16,experiment,0,even,MacIntel,6,482614,367713.0,,479351.0,77,480390,438733.0,76,19769,105142.0,484633,481400,485131,77,484633,Sternberg_updated,70,39697,72,yes,1024,1
72,97,97,551,551,black,no,experiment,Mozilla,Netscape,"5.0 (Macintosh; Intel Mac OS X 10_13_6) AppleWebKit/605.1.15 (KHTML, like Gecko) Version/13.1.2 Safari/605.1.15",legacy,legacy,legacy,0,uniform,1,1,right,72,72,72,72,0,0,0,72,72,0,0,0,72,72,72,0,0,72,72,0,29-08-21,29-08-21,11:45:48,Wed Sep 29 2021 11:45:48 GMT+0200 (CEST),The main experiment item,yes,0,0,/Users/ethan/Documents/GitHub/OpenSesame/Sternberg/experiment_files,0,0,0,no,mono,no,18,no,white,no,no,768,40,3.6.1,legacy,legacy,4 3 2 5 8,osweb,1.4.0,1,2,y,36,,0,right,right,,right,right,right,right,559,18812.0,,19662,15469,10975.0,559,2,legacy,878,1440,24,900,24,0,0,1440,1632908712246,5,1024,2,48000,-16,experiment,0,even,MacIntel,3,488399,367713.0,,485135.0,77,486173,438733.0,76,19769,105142.0,490418,487185,490981,77,490418,Sternberg_updated,71,40256,73,yes,1024,1
73,97,97,552,552,black,no,experiment,Mozilla,Netscape,"5.0 (Macintosh; Intel Mac OS X 10_13_6) AppleWebKit/605.1.15 (KHTML, like Gecko) Version/13.1.2 Safari/605.1.15",legacy,legacy,legacy,0,uniform,1,1,right,73,73,73,73,0,0,0,73,73,0,0,0,73,73,73,0,0,73,73,0,29-08-21,29-08-21,11:45:48,Wed Sep 29 2021 11:45:48 GMT+0200 (CEST),The main experiment item,yes,0,0,/Users/ethan/Documents/GitHub/OpenSesame/Sternberg/experiment_files,0,0,0,no,mono,no,18,no,white,no,no,768,40,3.6.1,legacy,legacy,7 8 4 6 9 5,osweb,1.4.0,1,4,y,36,,0,right,right,,right,right,right,right,573,18812.0,,19662,15469,10975.0,573,2,legacy,878,1440,24,900,24,0,0,1440,1632908712246,6,1024,2,48000,-16,experiment,0,even,MacIntel,6,494249,367713.0,,490986.0,77,492026,438733.0,76,19769,105142.0,496268,493034,496848,77,496267,Sternberg_updated,72,40829,74,yes,1024,1
74,97,97,554,554,black,no,experiment,Mozilla,Netscape,"5.0 (Macintosh; Intel Mac OS X 10_13_6) AppleWebKit/605.1.15 (KHTML, like Gecko) Version/13.1.2 Safari/605.1.15",legacy,legacy,legacy,0,uniform,1,1,right,74,74,74,74,0,0,0,74,74,0,0,0,74,74,74,0,0,74,74,0,29-08-21,29-08-21,11:45:48,Wed Sep 29 2021 11:45:48 GMT+0200 (CEST),The main experiment item,yes,0,0,/Users/ethan/Documents/GitHub/OpenSesame/Sternberg/experiment_files,0,0,0,no,mono,no,18,no,white,no,no,768,40,3.6.1,legacy,legacy,2 8 5 1,osweb,1.4.0,1,4,y,36,,0,right,right,,right,right,right,right,690,18812.0,,19662,15469,10975.0,690,2,legacy,878,1440,24,900,24,0,0,1440,1632908712246,4,1024,2,48000,-16,experiment,0,even,MacIntel,1,500116,367713.0,,496852.0,77,497890,438733.0,76,19769,105142.0,502135,498901,502832,77,502135,Sternberg_updated,73,41519,75,yes,1024,1
75,97,97,554,554,black,no,experiment,Mozilla,Netscape,"5.0 (Macintosh; Intel Mac OS X 10_13_6) AppleWebKit/605.1.15 (KHTML, like Gecko) Version/13.1.2 Safari/605.1.15",legacy,legacy,legacy,0,uniform,1,1,right,75,75,75,75,0,0,0,75,75,0,0,0,75,75,75,0,0,75,75,0,29-08-21,29-08-21,11:45:48,Wed Sep 29 2021 11:45:48 GMT+0200 (CEST),The main experiment item,yes,0,0,/Users/ethan/Documents/GitHub/OpenSesame/Sternberg/experiment_files,0,0,0,no,mono,no,18,no,white,no,no,768,40,3.6.1,legacy,legacy,8 9 6 1,osweb,1.4.0,1,2,y,36,,0,right,right,,right,right,right,right,559,18812.0,,19662,15469,10975.0,559,2,legacy,878,1440,24,900,24,0,0,1440,1632908712246,4,1024,2,48000,-16,experiment,0,even,MacIntel,9,506099,367713.0,,502836.0,77,503875,438733.0,76,19769,105142.0,508118,504884,508682,77,508118,Sternberg_updated,74,42078,76,yes,1024,1
76,97,97,554,554,black,no,experiment,Mozilla,Netscape,"5.0 (Macintosh; Intel Mac OS X 10_13_6) AppleWebKit/605.1.15 (KHTML, like Gecko) Version/13.1.2 Safari/605.1.15",legacy,legacy,legacy,0,uniform,1,1,right,76,76,76,76,0,0,0,76,76,0,0,0,76,76,76,0,0,76,76,0,29-08-21,29-08-21,11:45:48,Wed Sep 29 2021 11:45:48 GMT+0200 (CEST),The main experiment item,yes,0,0,/Users/ethan/Documents/GitHub/OpenSesame/Sternberg/experiment_files,0,0,0,no,mono,no,18,no,white,no,no,768,40,3.6.1,legacy,legacy,5 7 3 6 2,osweb,1.4.0,1,5,y,36,,0,right,right,,right,right,right,right,586,18812.0,,19662,15469,10975.0,586,2,legacy,878,1440,24,900,24,0,0,1440,1632908712246,5,1024,2,48000,-16,experiment,0,even,MacIntel,2,511966,367713.0,,508686.0,77,509732,438733.0,76,19769,105142.0,513986,510752,514583,77,513985,Sternberg_updated,75,42664,77,yes,1024,1
77,97,97,552,552,black,no,experiment,Mozilla,Netscape,"5.0 (Macintosh; Intel Mac OS X 10_13_6) AppleWebKit/605.1.15 (KHTML, like Gecko) Version/13.1.2 Safari/605.1.15",legacy,legacy,legacy,0,uniform,1,1,right,77,77,77,77,0,0,0,77,77,0,0,0,77,77,77,0,0,77,77,0,29-08-21,29-08-21,11:45:48,Wed Sep 29 2021 11:45:48 GMT+0200 (CEST),The main experiment item,yes,0,0,/Users/ethan/Documents/GitHub/OpenSesame/Sternberg/experiment_files,0,0,0,no,mono,no,18,no,white,no,no,768,40,3.6.1,legacy,legacy,9 3 8 2 1 4,osweb,1.4.0,1,3,y,36,,0,right,right,,right,right,right,right,424,18812.0,,19662,15469,10975.0,424,2,legacy,878,1440,24,900,24,0,0,1440,1632908712246,6,1024,2,48000,-16,experiment,0,even,MacIntel,8,517850,367713.0,,514589.0,77,515626,438733.0,76,19769,105142.0,519869,516636,520300,77,519869,Sternberg_updated,76,43088,78,yes,1024,1
78,97,97,551,551,black,no,experiment,Mozilla,Netscape,"5.0 (Macintosh; Intel Mac OS X 10_13_6) AppleWebKit/605.1.15 (KHTML, like Gecko) Version/13.1.2 Safari/605.1.15",legacy,legacy,legacy,0,uniform,1,1,right,78,78,78,78,0,0,0,78,78,0,0,0,78,78,78,0,0,78,78,0,29-08-21,29-08-21,11:45:48,Wed Sep 29 2021 11:45:48 GMT+0200 (CEST),The main experiment item,yes,0,0,/Users/ethan/Documents/GitHub/OpenSesame/Sternberg/experiment_files,0,0,0,no,mono,no,18,no,white,no,no,768,40,3.6.1,legacy,legacy,5 2 6,osweb,1.4.0,1,2,y,36,,0,right,right,,right,right,right,right,403,18812.0,,19662,15469,10975.0,403,2,legacy,878,1440,24,900,24,0,0,1440,1632908712246,3,1024,2,48000,-16,experiment,0,even,MacIntel,2,523567,367713.0,,520304.0,77,521343,438733.0,76,19769,105142.0,525586,522353,526000,77,525586,Sternberg_updated,77,43491,79,yes,1024,1
79,98,98,552,552,black,no,experiment,Mozilla,Netscape,"5.0 (Macintosh; Intel Mac OS X 10_13_6) AppleWebKit/605.1.15 (KHTML, like Gecko) Version/13.1.2 Safari/605.1.15",legacy,legacy,legacy,0,uniform,1,1,left,79,79,79,79,0,0,0,79,79,0,0,0,79,79,79,0,0,79,79,0,29-08-21,29-08-21,11:45:48,Wed Sep 29 2021 11:45:48 GMT+0200 (CEST),The main experiment item,yes,0,0,/Users/ethan/Documents/GitHub/OpenSesame/Sternberg/experiment_files,0,0,0,no,mono,no,18,no,white,no,no,768,40,3.6.1,legacy,legacy,1 4 3 6 5,osweb,1.4.0,1,0,n,36,,0,left,right,,right,right,right,left,696,18812.0,,19662,15469,10975.0,696,2,legacy,878,1440,24,900,24,0,0,1440,1632908712246,5,1024,2,48000,-16,experiment,0,even,MacIntel,8,529268,367713.0,,526004.0,77,527044,438733.0,76,19769,105142.0,531287,528053,532001,77,531286,Sternberg_updated,78,44187,80,yes,1024,1
80,98,98,552,552,black,no,experiment,Mozilla,Netscape,"5.0 (Macintosh; Intel Mac OS X 10_13_6) AppleWebKit/605.1.15 (KHTML, like Gecko) Version/13.1.2 Safari/605.1.15",legacy,legacy,legacy,0,uniform,1,1,left,80,80,80,80,0,0,0,80,80,0,0,0,80,80,80,0,0,80,80,0,29-08-21,29-08-21,11:45:48,Wed Sep 29 2021 11:45:48 GMT+0200 (CEST),The main experiment item,yes,0,0,/Users/ethan/Documents/GitHub/OpenSesame/Sternberg/experiment_files,0,0,0,no,mono,no,18,no,white,no,no,768,40,3.6.1,legacy,legacy,7 1 5 6 3,osweb,1.4.0,1,0,n,36,,0,left,right,,right,right,right,left,537,18812.0,,19662,15469,10975.0,537,2,legacy,878,1440,24,900,24,0,0,1440,1632908712246,5,1024,2,48000,-16,experiment,0,even,MacIntel,8,535268,367713.0,,532005.0,77,533043,438733.0,76,19769,105142.0,537287,534054,537834,77,537287,Sternberg_updated,79,44724,81,yes,1024,1
81,98,98,551,551,black,no,experiment,Mozilla,Netscape,"5.0 (Macintosh; Intel Mac OS X 10_13_6) AppleWebKit/605.1.15 (KHTML, like Gecko) Version/13.1.2 Safari/605.1.15",legacy,legacy,legacy,0,uniform,1,1,left,81,81,81,81,0,0,0,81,81,0,0,0,81,81,81,0,0,81,81,0,29-08-21,29-08-21,11:45:48,Wed Sep 29 2021 11:45:48 GMT+0200 (CEST),The main experiment item,yes,0,0,/Users/ethan/Documents/GitHub/OpenSesame/Sternberg/experiment_files,0,0,0,no,mono,no,18,no,white,no,no,768,40,3.6.1,legacy,legacy,5 2,osweb,1.4.0,1,0,n,36,,0,left,right,,right,right,right,left,425,18812.0,,19662,15469,10975.0,425,2,legacy,878,1440,24,900,24,0,0,1440,1632908712246,2,1024,2,48000,-16,experiment,0,even,MacIntel,7,541102,367713.0,,537845.0,77,538882,438733.0,76,19769,105142.0,543121,539886,543551,77,543121,Sternberg_updated,80,45149,82,yes,1024,1
82,98,98,550,550,black,no,experiment,Mozilla,Netscape,"5.0 (Macintosh; Intel Mac OS X 10_13_6) AppleWebKit/605.1.15 (KHTML, like Gecko) Version/13.1.2 Safari/605.1.15",legacy,legacy,legacy,0,uniform,1,1,left,82,82,82,82,0,0,0,82,82,0,0,0,82,82,82,0,0,82,82,0,29-08-21,29-08-21,11:45:48,Wed Sep 29 2021 11:45:48 GMT+0200 (CEST),The main experiment item,yes,0,0,/Users/ethan/Documents/GitHub/OpenSesame/Sternberg/experiment_files,0,0,0,no,mono,no,18,no,white,no,no,768,40,3.6.1,legacy,legacy,7 1,osweb,1.4.0,1,0,n,36,,0,left,right,,right,right,right,left,538,18812.0,,19662,15469,10975.0,538,2,legacy,878,1440,24,900,24,0,0,1440,1632908712246,2,1024,2,48000,-16,experiment,0,even,MacIntel,8,546820,367713.0,,543557.0,77,544598,438733.0,76,19769,105142.0,548838,545608,549385,77,548838,Sternberg_updated,81,45687,83,yes,1024,1
83,98,98,552,552,black,no,experiment,Mozilla,Netscape,"5.0 (Macintosh; Intel Mac OS X 10_13_6) AppleWebKit/605.1.15 (KHTML, like Gecko) Version/13.1.2 Safari/605.1.15",legacy,legacy,legacy,0,uniform,1,1,left,83,83,83,83,0,0,0,83,83,0,0,0,83,83,83,0,0,83,83,0,29-08-21,29-08-21,11:45:48,Wed Sep 29 2021 11:45:48 GMT+0200 (CEST),The main experiment item,yes,0,0,/Users/ethan/Documents/GitHub/OpenSesame/Sternberg/experiment_files,0,0,0,no,mono,no,18,no,white,no,no,768,40,3.6.1,legacy,legacy,1 4 9 3,osweb,1.4.0,1,0,n,36,,0,left,right,,right,right,right,left,676,18812.0,,19662,15469,10975.0,676,2,legacy,878,1440,24,900,24,0,0,1440,1632908712246,4,1024,2,48000,-16,experiment,0,even,MacIntel,5,552653,367713.0,,549391.0,77,550432,438733.0,76,19769,105142.0,554672,551438,555352,77,554671,Sternberg_updated,82,46363,84,yes,1024,1
84,98,98,550,550,black,no,experiment,Mozilla,Netscape,"5.0 (Macintosh; Intel Mac OS X 10_13_6) AppleWebKit/605.1.15 (KHTML, like Gecko) Version/13.1.2 Safari/605.1.15",legacy,legacy,legacy,0,uniform,1,1,right,84,84,84,84,0,0,0,84,84,0,0,0,84,84,84,0,0,84,84,0,29-08-21,29-08-21,11:45:48,Wed Sep 29 2021 11:45:48 GMT+0200 (CEST),The main experiment item,yes,0,0,/Users/ethan/Documents/GitHub/OpenSesame/Sternberg/experiment_files,0,0,0,no,mono,no,18,no,white,no,no,768,40,3.6.1,legacy,legacy,6 2,osweb,1.4.0,1,1,y,36,,0,right,right,,right,right,right,right,374,18812.0,,19662,15469,10975.0,374,2,legacy,878,1440,24,900,24,0,0,1440,1632908712246,2,1024,2,48000,-16,experiment,0,even,MacIntel,6,558636,367713.0,,555357.0,77,556404,438733.0,76,19769,105142.0,560655,557422,561036,77,560655,Sternberg_updated,83,46737,85,yes,1024,1
85,98,98,551,551,black,no,experiment,Mozilla,Netscape,"5.0 (Macintosh; Intel Mac OS X 10_13_6) AppleWebKit/605.1.15 (KHTML, like Gecko) Version/13.1.2 Safari/605.1.15",legacy,legacy,legacy,0,uniform,1,1,right,85,85,85,85,0,0,0,85,85,0,0,0,85,85,85,0,0,85,85,0,29-08-21,29-08-21,11:45:48,Wed Sep 29 2021 11:45:48 GMT+0200 (CEST),The main experiment item,yes,0,0,/Users/ethan/Documents/GitHub/OpenSesame/Sternberg/experiment_files,0,0,0,no,mono,no,18,no,white,no,no,768,40,3.6.1,legacy,legacy,3 5 9 6 2 4,osweb,1.4.0,1,1,y,36,,0,right,right,,right,right,right,right,650,18812.0,,19662,15469,10975.0,650,2,legacy,878,1440,24,900,24,0,0,1440,1632908712246,6,1024,2,48000,-16,experiment,0,even,MacIntel,3,564304,367713.0,,561040.0,77,562080,438733.0,76,19769,105142.0,566322,563089,566986,77,566322,Sternberg_updated,84,47387,86,yes,1024,1
86,98,98,550,550,black,no,experiment,Mozilla,Netscape,"5.0 (Macintosh; Intel Mac OS X 10_13_6) AppleWebKit/605.1.15 (KHTML, like Gecko) Version/13.1.2 Safari/605.1.15",legacy,legacy,legacy,0,uniform,1,1,right,86,86,86,86,0,0,0,86,86,0,0,0,86,86,86,0,0,86,86,0,29-08-21,29-08-21,11:45:48,Wed Sep 29 2021 11:45:48 GMT+0200 (CEST),The main experiment item,yes,0,0,/Users/ethan/Documents/GitHub/OpenSesame/Sternberg/experiment_files,0,0,0,no,mono,no,18,no,white,no,no,768,40,3.6.1,legacy,legacy,7 2 3,osweb,1.4.0,1,3,y,36,,0,right,right,,right,right,right,right,475,18812.0,,19662,15469,10975.0,475,2,legacy,878,1440,24,900,24,0,0,1440,1632908712246,3,1024,2,48000,-16,experiment,0,even,MacIntel,3,570254,367713.0,,566990.0,77,568029,438733.0,76,19769,105142.0,572273,569041,572753,77,572273,Sternberg_updated,85,47862,87,yes,1024,1
87,98,98,551,551,black,no,experiment,Mozilla,Netscape,"5.0 (Macintosh; Intel Mac OS X 10_13_6) AppleWebKit/605.1.15 (KHTML, like Gecko) Version/13.1.2 Safari/605.1.15",legacy,legacy,legacy,0,uniform,1,1,left,87,87,87,87,0,0,0,87,87,0,0,0,87,87,87,0,0,87,87,0,29-08-21,29-08-21,11:45:48,Wed Sep 29 2021 11:45:48 GMT+0200 (CEST),The main experiment item,yes,0,0,/Users/ethan/Documents/GitHub/OpenSesame/Sternberg/experiment_files,0,0,0,no,mono,no,18,no,white,no,no,768,40,3.6.1,legacy,legacy,8 4 3 9,osweb,1.4.0,1,0,n,36,,0,left,right,,right,right,right,left,585,18812.0,,19662,15469,10975.0,585,2,legacy,878,1440,24,900,24,0,0,1440,1632908712246,4,1024,2,48000,-16,experiment,0,even,MacIntel,5,576021,367713.0,,572758.0,77,573799,438733.0,76,19769,105142.0,578040,574806,578637,77,578040,Sternberg_updated,86,48447,88,yes,1024,1
88,98,98,552,552,black,no,experiment,Mozilla,Netscape,"5.0 (Macintosh; Intel Mac OS X 10_13_6) AppleWebKit/605.1.15 (KHTML, like Gecko) Version/13.1.2 Safari/605.1.15",legacy,legacy,legacy,0,uniform,1,1,right,88,88,88,88,0,0,0,88,88,0,0,0,88,88,88,0,0,88,88,0,29-08-21,29-08-21,11:45:48,Wed Sep 29 2021 11:45:48 GMT+0200 (CEST),The main experiment item,yes,0,0,/Users/ethan/Documents/GitHub/OpenSesame/Sternberg/experiment_files,0,0,0,no,mono,no,18,no,white,no,no,768,40,3.6.1,legacy,legacy,8 5 4 7 3 1,osweb,1.4.0,1,2,y,36,,0,right,right,,right,right,right,right,659,18812.0,,19662,15469,10975.0,659,2,legacy,878,1440,24,900,24,0,0,1440,1632908712246,6,1024,2,48000,-16,experiment,0,even,MacIntel,5,581905,367713.0,,578641.0,77,579681,438733.0,76,19769,105142.0,583923,580690,584587,77,583923,Sternberg_updated,87,49106,89,yes,1024,1
89,98,98,551,551,black,no,experiment,Mozilla,Netscape,"5.0 (Macintosh; Intel Mac OS X 10_13_6) AppleWebKit/605.1.15 (KHTML, like Gecko) Version/13.1.2 Safari/605.1.15",legacy,legacy,legacy,0,uniform,1,1,left,89,89,89,89,0,0,0,89,89,0,0,0,89,89,89,0,0,89,89,0,29-08-21,29-08-21,11:45:48,Wed Sep 29 2021 11:45:48 GMT+0200 (CEST),The main experiment item,yes,0,0,/Users/ethan/Documents/GitHub/OpenSesame/Sternberg/experiment_files,0,0,0,no,mono,no,18,no,white,no,no,768,40,3.6.1,legacy,legacy,3 4 9 6 7 8,osweb,1.4.0,1,0,n,36,,0,left,right,,right,right,right,left,497,18812.0,,19662,15469,10975.0,497,2,legacy,878,1440,24,900,24,0,0,1440,1632908712246,6,1024,2,48000,-16,experiment,0,even,MacIntel,2,587854,367713.0,,584592.0,77,585630,438733.0,76,19769,105142.0,589874,586640,590371,77,589874,Sternberg_updated,88,49603,90,yes,1024,1
90,98,98,550,550,black,no,experiment,Mozilla,Netscape,"5.0 (Macintosh; Intel Mac OS X 10_13_6) AppleWebKit/605.1.15 (KHTML, like Gecko) Version/13.1.2 Safari/605.1.15",legacy,legacy,legacy,0,uniform,1,1,left,90,90,90,90,0,0,0,90,90,0,0,0,90,90,90,0,0,90,90,0,29-08-21,29-08-21,11:45:48,Wed Sep 29 2021 11:45:48 GMT+0200 (CEST),The main experiment item,yes,0,0,/Users/ethan/Documents/GitHub/OpenSesame/Sternberg/experiment_files,0,0,0,no,mono,no,18,no,white,no,no,768,40,3.6.1,legacy,legacy,2 3 8 5 6 7,osweb,1.4.0,1,0,n,36,,0,left,right,,right,right,right,left,487,18812.0,,19662,15469,10975.0,487,2,legacy,878,1440,24,900,24,0,0,1440,1632908712246,6,1024,2,48000,-16,experiment,0,even,MacIntel,1,593656,367713.0,,590375.0,77,591424,438733.0,76,19769,105142.0,595674,592441,596172,77,595674,Sternberg_updated,89,50090,91,yes,1024,1
91,98,98,551,551,black,no,experiment,Mozilla,Netscape,"5.0 (Macintosh; Intel Mac OS X 10_13_6) AppleWebKit/605.1.15 (KHTML, like Gecko) Version/13.1.2 Safari/605.1.15",legacy,legacy,legacy,0,uniform,1,1,left,91,91,91,91,0,0,0,91,91,0,0,0,91,91,91,0,0,91,91,0,29-08-21,29-08-21,11:45:48,Wed Sep 29 2021 11:45:48 GMT+0200 (CEST),The main experiment item,yes,0,0,/Users/ethan/Documents/GitHub/OpenSesame/Sternberg/experiment_files,0,0,0,no,mono,no,18,no,white,no,no,768,40,3.6.1,legacy,legacy,5 3 8 7 2 4,osweb,1.4.0,1,0,n,36,,0,left,right,,right,right,right,left,620,18812.0,,19662,15469,10975.0,620,2,legacy,878,1440,24,900,24,0,0,1440,1632908712246,6,1024,2,48000,-16,experiment,0,even,MacIntel,9,599439,367713.0,,596176.0,77,597214,438733.0,76,19769,105142.0,601458,598225,602089,77,601458,Sternberg_updated,90,50710,92,yes,1024,1
92,98,98,550,550,black,no,experiment,Mozilla,Netscape,"5.0 (Macintosh; Intel Mac OS X 10_13_6) AppleWebKit/605.1.15 (KHTML, like Gecko) Version/13.1.2 Safari/605.1.15",legacy,legacy,legacy,0,uniform,1,1,left,92,92,92,92,0,0,0,92,92,0,0,0,92,92,92,0,0,92,92,0,29-08-21,29-08-21,11:45:48,Wed Sep 29 2021 11:45:48 GMT+0200 (CEST),The main experiment item,yes,0,0,/Users/ethan/Documents/GitHub/OpenSesame/Sternberg/experiment_files,0,0,0,no,mono,no,18,no,white,no,no,768,40,3.6.1,legacy,legacy,2 8 9,osweb,1.4.0,1,0,n,36,,0,left,right,,right,right,right,left,436,18812.0,,19662,15469,10975.0,436,2,legacy,878,1440,24,900,24,0,0,1440,1632908712246,3,1024,2,48000,-16,experiment,0,even,MacIntel,6,605357,367713.0,,602093.0,77,603132,438733.0,76,19769,105142.0,607375,604148,607822,77,607375,Sternberg_updated,91,51146,93,yes,1024,1
93,98,98,551,551,black,no,experiment,Mozilla,Netscape,"5.0 (Macintosh; Intel Mac OS X 10_13_6) AppleWebKit/605.1.15 (KHTML, like Gecko) Version/13.1.2 Safari/605.1.15",legacy,legacy,legacy,0,uniform,1,1,left,93,93,93,93,0,0,0,93,93,0,0,0,93,93,93,0,0,93,93,0,29-08-21,29-08-21,11:45:48,Wed Sep 29 2021 11:45:48 GMT+0200 (CEST),The main experiment item,yes,0,0,/Users/ethan/Documents/GitHub/OpenSesame/Sternberg/experiment_files,0,0,0,no,mono,no,18,no,white,no,no,768,40,3.6.1,legacy,legacy,7 1 8 4 9 3,osweb,1.4.0,1,0,n,36,,0,left,right,,right,right,right,left,686,18812.0,,19662,15469,10975.0,686,2,legacy,878,1440,24,900,24,0,0,1440,1632908712246,6,1024,2,48000,-16,experiment,0,even,MacIntel,6,611090,367713.0,,607826.0,77,608870,438733.0,76,19769,105142.0,613109,609876,613806,77,613109,Sternberg_updated,92,51832,94,yes,1024,1
94,98,98,550,550,black,no,experiment,Mozilla,Netscape,"5.0 (Macintosh; Intel Mac OS X 10_13_6) AppleWebKit/605.1.15 (KHTML, like Gecko) Version/13.1.2 Safari/605.1.15",legacy,legacy,legacy,0,uniform,1,1,left,94,94,94,94,0,0,0,94,94,0,0,0,94,94,94,0,0,94,94,0,29-08-21,29-08-21,11:45:48,Wed Sep 29 2021 11:45:48 GMT+0200 (CEST),The main experiment item,yes,0,0,/Users/ethan/Documents/GitHub/OpenSesame/Sternberg/experiment_files,0,0,0,no,mono,no,18,no,white,no,no,768,40,3.6.1,legacy,legacy,1 4 9 2 5,osweb,1.4.0,1,0,n,36,,0,left,right,,right,right,right,left,430,18812.0,,19662,15469,10975.0,430,2,legacy,878,1440,24,900,24,0,0,1440,1632908712246,5,1024,2,48000,-16,experiment,0,even,MacIntel,7,617073,367713.0,,613810.0,77,614849,438733.0,76,19769,105142.0,619092,615859,619522,77,619092,Sternberg_updated,93,52262,95,yes,1024,1
95,98,98,550,550,black,no,experiment,Mozilla,Netscape,"5.0 (Macintosh; Intel Mac OS X 10_13_6) AppleWebKit/605.1.15 (KHTML, like Gecko) Version/13.1.2 Safari/605.1.15",legacy,legacy,legacy,0,uniform,1,1,left,95,95,95,95,0,0,0,95,95,0,0,0,95,95,95,0,0,95,95,0,29-08-21,29-08-21,11:45:48,Wed Sep 29 2021 11:45:48 GMT+0200 (CEST),The main experiment item,yes,0,0,/Users/ethan/Documents/GitHub/OpenSesame/Sternberg/experiment_files,0,0,0,no,mono,no,18,no,white,no,no,768,40,3.6.1,legacy,legacy,3 9 1,osweb,1.4.0,1,0,n,36,,0,left,right,,right,right,right,left,571,18812.0,,19662,15469,10975.0,571,2,legacy,878,1440,24,900,24,0,0,1440,1632908712246,3,1024,2,48000,-16,experiment,0,even,MacIntel,7,622791,367713.0,,619526.0,77,620566,438733.0,76,19769,105142.0,624810,621576,625390,77,624810,Sternberg_updated,94,52833,96,yes,1024,1
96,98,98,548,548,black,no,experiment,Mozilla,Netscape,"5.0 (Macintosh; Intel Mac OS X 10_13_6) AppleWebKit/605.1.15 (KHTML, like Gecko) Version/13.1.2 Safari/605.1.15",legacy,legacy,legacy,0,uniform,1,1,right,96,96,96,96,0,0,0,96,96,0,0,0,96,96,96,0,0,96,96,0,29-08-21,29-08-21,11:45:48,Wed Sep 29 2021 11:45:48 GMT+0200 (CEST),The main experiment item,yes,0,0,/Users/ethan/Documents/GitHub/OpenSesame/Sternberg/experiment_files,0,0,0,no,mono,no,18,no,white,no,no,768,40,3.6.1,legacy,legacy,6 5,osweb,1.4.0,1,2,y,36,,0,right,right,,right,right,right,right,347,18812.0,,19662,15469,10975.0,347,2,legacy,878,1440,24,900,24,0,0,1440,1632908712246,2,1024,2,48000,-16,experiment,0,even,MacIntel,5,628658,367713.0,,625395.0,77,626436,438733.0,76,19769,105142.0,630675,627444,631024,77,630675,Sternberg_updated,95,53180,97,yes,1024,1
97,98,98,547,547,black,no,experiment,Mozilla,Netscape,"5.0 (Macintosh; Intel Mac OS X 10_13_6) AppleWebKit/605.1.15 (KHTML, like Gecko) Version/13.1.2 Safari/605.1.15",legacy,legacy,legacy,0,uniform,1,1,left,97,97,97,97,0,0,0,97,97,0,0,0,97,97,97,0,0,97,97,0,29-08-21,29-08-21,11:45:48,Wed Sep 29 2021 11:45:48 GMT+0200 (CEST),The main experiment item,yes,0,0,/Users/ethan/Documents/GitHub/OpenSesame/Sternberg/experiment_files,0,0,0,no,mono,no,18,no,white,no,no,768,40,3.6.1,legacy,legacy,5,osweb,1.4.0,1,0,n,36,,0,left,right,right,right,right,right,left,395,18812.0,12390.0,19662,15469,10975.0,395,2,legacy,878,1440,24,900,24,0,0,1440,1632908712246,1,1024,2,48000,-16,experiment,0,even,MacIntel,8,646693,367713.0,632050.0,631029.0,77,644465,438733.0,76,19769,105142.0,648710,645478,649108,77,648710,Sternberg_updated,96,53575,98,yes,1024,1
98,98,98,545,545,black,no,experiment,Mozilla,Netscape,"5.0 (Macintosh; Intel Mac OS X 10_13_6) AppleWebKit/605.1.15 (KHTML, like Gecko) Version/13.1.2 Safari/605.1.15",legacy,legacy,legacy,0,uniform,1,1,left,98,98,98,98,0,0,0,98,98,0,0,0,98,98,98,0,0,98,98,0,29-08-21,29-08-21,11:45:48,Wed Sep 29 2021 11:45:48 GMT+0200 (CEST),The main experiment item,yes,0,0,/Users/ethan/Documents/GitHub/OpenSesame/Sternberg/experiment_files,0,0,0,no,mono,no,18,no,white,no,no,768,40,3.6.1,legacy,legacy,9,osweb,1.4.0,1,0,n,36,,0,left,right,right,right,right,right,left,367,18812.0,12390.0,19662,15469,10975.0,367,2,legacy,878,1440,24,900,24,0,0,1440,1632908712246,1,1024,2,48000,-16,experiment,0,even,MacIntel,6,652376,367713.0,632050.0,649112.0,77,650151,438733.0,76,19769,105142.0,654395,651161,654776,77,654395,Sternberg_updated,97,53942,99,yes,1024,1
99,98,98,545,545,black,no,experiment,Mozilla,Netscape,"5.0 (Macintosh; Intel Mac OS X 10_13_6) AppleWebKit/605.1.15 (KHTML, like Gecko) Version/13.1.2 Safari/605.1.15",legacy,legacy,legacy,0,uniform,1,1,left,99,99,99,99,0,0,0,99,99,0,0,0,99,99,99,0,0,99,99,0,29-08-21,29-08-21,11:45:48,Wed Sep 29 2021 11:45:48 GMT+0200 (CEST),The main experiment item,yes,0,0,/Users/ethan/Documents/GitHub/OpenSesame/Sternberg/experiment_files,0,0,0,no,mono,no,18,no,white,no,no,768,40,3.6.1,legacy,legacy,7 8 6 1,osweb,1.4.0,1,0,n,36,,0,left,right,right,right,right,right,left,579,18812.0,12390.0,19662,15469,10975.0,579,2,legacy,878,1440,24,900,24,0,0,1440,1632908712246,4,1024,2,48000,-16,experiment,0,even,MacIntel,3,658043,367713.0,632050.0,654779.0,77,655819,438733.0,76,19769,105142.0,660063,656830,660659,77,660063,Sternberg_updated,98,54521,100,yes,1024,1
100,97,97,549,549,black,no,experiment,Mozilla,Netscape,"5.0 (Macintosh; Intel Mac OS X 10_13_6) AppleWebKit/605.1.15 (KHTML, like Gecko) Version/13.1.2 Safari/605.1.15",legacy,legacy,legacy,0,uniform,0,0,right,100,100,100,100,0,0,0,100,100,0,0,0,100,100,100,0,0,100,100,0,29-08-21,29-08-21,11:45:48,Wed Sep 29 2021 11:45:48 GMT+0200 (CEST),The main experiment item,yes,0,0,/Users/ethan/Documents/GitHub/OpenSesame/Sternberg/experiment_files,0,0,0,no,mono,no,18,no,white,no,no,768,40,3.6.1,legacy,legacy,8 7 3,osweb,1.4.0,1,1,y,36,,0,left,right,right,right,right,right,left,918,18812.0,12390.0,19662,15469,10975.0,918,2,legacy,878,1440,24,900,24,0,0,1440,1632908712246,3,1024,2,48000,-16,experiment,0,even,MacIntel,8,663927,367713.0,632050.0,660666.0,77,661705,438733.0,76,19769,105142.0,665946,662712,666876,77,665946,Sternberg_updated,98,55439,101,yes,1024,1
101,97,97,549,549,black,no,experiment,Mozilla,Netscape,"5.0 (Macintosh; Intel Mac OS X 10_13_6) AppleWebKit/605.1.15 (KHTML, like Gecko) Version/13.1.2 Safari/605.1.15",legacy,legacy,legacy,0,uniform,1,1,left,101,101,101,101,0,0,0,101,101,0,0,0,101,101,101,0,0,101,101,0,29-08-21,29-08-21,11:45:48,Wed Sep 29 2021 11:45:48 GMT+0200 (CEST),The main experiment item,yes,0,0,/Users/ethan/Documents/GitHub/OpenSesame/Sternberg/experiment_files,0,0,0,no,mono,no,18,no,white,no,no,768,40,3.6.1,legacy,legacy,2 7 5,osweb,1.4.0,1,0,n,36,,0,left,right,right,right,right,right,left,606,18812.0,12390.0,19662,15469,10975.0,606,2,legacy,878,1440,24,900,24,0,0,1440,1632908712246,3,1024,2,48000,-16,experiment,0,even,MacIntel,8,670144,367713.0,632050.0,660666.0,77,667919,666881.0,76,19769,105142.0,672163,668929,672777,77,672163,Sternberg_updated,99,56045,102,yes,1024,1
102,97,97,549,549,black,no,experiment,Mozilla,Netscape,"5.0 (Macintosh; Intel Mac OS X 10_13_6) AppleWebKit/605.1.15 (KHTML, like Gecko) Version/13.1.2 Safari/605.1.15",legacy,legacy,legacy,0,uniform,1,1,right,102,102,102,102,0,0,0,102,102,0,0,0,102,102,102,0,0,102,102,0,29-08-21,29-08-21,11:45:48,Wed Sep 29 2021 11:45:48 GMT+0200 (CEST),The main experiment item,yes,0,0,/Users/ethan/Documents/GitHub/OpenSesame/Sternberg/experiment_files,0,0,0,no,mono,no,18,no,white,no,no,768,40,3.6.1,legacy,legacy,4 9 7 8 5 3,osweb,1.4.0,1,4,y,36,,0,right,right,right,right,right,right,right,496,18812.0,12390.0,19662,15469,10975.0,496,2,legacy,878,1440,24,900,24,0,0,1440,1632908712246,6,1024,2,48000,-16,experiment,0,even,MacIntel,8,676044,367713.0,632050.0,672781.0,77,673819,666881.0,76,19769,105142.0,678063,674830,678560,77,678063,Sternberg_updated,100,56541,103,yes,1024,1
103,96,96,548,548,black,no,experiment,Mozilla,Netscape,"5.0 (Macintosh; Intel Mac OS X 10_13_6) AppleWebKit/605.1.15 (KHTML, like Gecko) Version/13.1.2 Safari/605.1.15",legacy,legacy,legacy,0,uniform,0,0,right,103,103,103,103,0,0,0,103,103,0,0,0,103,103,103,0,0,103,103,0,29-08-21,29-08-21,11:45:48,Wed Sep 29 2021 11:45:48 GMT+0200 (CEST),The main experiment item,yes,0,0,/Users/ethan/Documents/GitHub/OpenSesame/Sternberg/experiment_files,0,0,0,no,mono,no,18,no,white,no,no,768,40,3.6.1,legacy,legacy,2 3 7 4,osweb,1.4.0,1,1,y,36,,0,left,right,right,right,right,right,left,456,18812.0,12390.0,19662,15469,10975.0,456,2,legacy,878,1440,24,900,24,0,0,1440,1632908712246,4,1024,2,48000,-16,experiment,0,even,MacIntel,2,681828,367713.0,632050.0,678564.0,77,679605,666881.0,76,19769,105142.0,683847,680614,684311,77,683847,Sternberg_updated,100,56997,104,yes,1024,1
104,96,96,547,547,black,no,experiment,Mozilla,Netscape,"5.0 (Macintosh; Intel Mac OS X 10_13_6) AppleWebKit/605.1.15 (KHTML, like Gecko) Version/13.1.2 Safari/605.1.15",legacy,legacy,legacy,0,uniform,1,1,right,104,104,104,104,0,0,0,104,104,0,0,0,104,104,104,0,0,104,104,0,29-08-21,29-08-21,11:45:48,Wed Sep 29 2021 11:45:48 GMT+0200 (CEST),The main experiment item,yes,0,0,/Users/ethan/Documents/GitHub/OpenSesame/Sternberg/experiment_files,0,0,0,no,mono,no,18,no,white,no,no,768,40,3.6.1,legacy,legacy,8 9 5 6 7,osweb,1.4.0,1,1,y,36,,0,right,right,right,right,right,right,right,449,18812.0,12390.0,19662,15469,10975.0,449,2,legacy,878,1440,24,900,24,0,0,1440,1632908712246,5,1024,2,48000,-16,experiment,0,even,MacIntel,8,687579,367713.0,632050.0,678564.0,77,685360,684316.0,76,19769,105142.0,689598,686364,690061,77,689597,Sternberg_updated,101,57446,105,yes,1024,1
105,96,96,547,547,black,no,experiment,Mozilla,Netscape,"5.0 (Macintosh; Intel Mac OS X 10_13_6) AppleWebKit/605.1.15 (KHTML, like Gecko) Version/13.1.2 Safari/605.1.15",legacy,legacy,legacy,0,uniform,1,1,right,105,105,105,105,0,0,0,105,105,0,0,0,105,105,105,0,0,105,105,0,29-08-21,29-08-21,11:45:48,Wed Sep 29 2021 11:45:48 GMT+0200 (CEST),The main experiment item,yes,0,0,/Users/ethan/Documents/GitHub/OpenSesame/Sternberg/experiment_files,0,0,0,no,mono,no,18,no,white,no,no,768,40,3.6.1,legacy,legacy,3 2 1 4 7,osweb,1.4.0,1,2,y,36,,0,right,right,right,right,right,right,right,570,18812.0,12390.0,19662,15469,10975.0,570,2,legacy,878,1440,24,900,24,0,0,1440,1632908712246,5,1024,2,48000,-16,experiment,0,even,MacIntel,2,693346,367713.0,632050.0,690066.0,77,691114,684316.0,76,19769,105142.0,695365,692131,695945,77,695365,Sternberg_updated,102,58016,106,yes,1024,1
106,96,96,547,547,black,no,experiment,Mozilla,Netscape,"5.0 (Macintosh; Intel Mac OS X 10_13_6) AppleWebKit/605.1.15 (KHTML, like Gecko) Version/13.1.2 Safari/605.1.15",legacy,legacy,legacy,0,uniform,1,1,left,106,106,106,106,0,0,0,106,106,0,0,0,106,106,106,0,0,106,106,0,29-08-21,29-08-21,11:45:48,Wed Sep 29 2021 11:45:48 GMT+0200 (CEST),The main experiment item,yes,0,0,/Users/ethan/Documents/GitHub/OpenSesame/Sternberg/experiment_files,0,0,0,no,mono,no,18,no,white,no,no,768,40,3.6.1,legacy,legacy,1 6 4 3 9 7,osweb,1.4.0,1,0,n,36,,0,left,right,right,right,right,right,left,547,18812.0,12390.0,19662,15469,10975.0,547,2,legacy,878,1440,24,900,24,0,0,1440,1632908712246,6,1024,2,48000,-16,experiment,0,even,MacIntel,8,699213,367713.0,632050.0,695952.0,77,696990,684316.0,76,19769,105142.0,701232,697998,701796,77,701232,Sternberg_updated,103,58563,107,yes,1024,1
107,96,96,547,547,black,no,experiment,Mozilla,Netscape,"5.0 (Macintosh; Intel Mac OS X 10_13_6) AppleWebKit/605.1.15 (KHTML, like Gecko) Version/13.1.2 Safari/605.1.15",legacy,legacy,legacy,0,uniform,1,1,left,107,107,107,107,0,0,0,107,107,0,0,0,107,107,107,0,0,107,107,0,29-08-21,29-08-21,11:45:48,Wed Sep 29 2021 11:45:48 GMT+0200 (CEST),The main experiment item,yes,0,0,/Users/ethan/Documents/GitHub/OpenSesame/Sternberg/experiment_files,0,0,0,no,mono,no,18,no,white,no,no,768,40,3.6.1,legacy,legacy,8 4 3 5,osweb,1.4.0,1,0,n,36,,0,left,right,right,right,right,right,left,483,18812.0,12390.0,19662,15469,10975.0,483,2,legacy,878,1440,24,900,24,0,0,1440,1632908712246,4,1024,2,48000,-16,experiment,0,even,MacIntel,6,705063,367713.0,632050.0,701800.0,77,702839,684316.0,76,19769,105142.0,707082,703849,707579,77,707082,Sternberg_updated,104,59046,108,yes,1024,1
108,95,95,548,548,black,no,experiment,Mozilla,Netscape,"5.0 (Macintosh; Intel Mac OS X 10_13_6) AppleWebKit/605.1.15 (KHTML, like Gecko) Version/13.1.2 Safari/605.1.15",legacy,legacy,legacy,0,uniform,0,0,left,108,108,108,108,0,0,0,108,108,0,0,0,108,108,108,0,0,108,108,0,29-08-21,29-08-21,11:45:48,Wed Sep 29 2021 11:45:48 GMT+0200 (CEST),The main experiment item,yes,0,0,/Users/ethan/Documents/GitHub/OpenSesame/Sternberg/experiment_files,0,0,0,no,mono,no,18,no,white,no,no,768,40,3.6.1,legacy,legacy,1 7 8 3 9,osweb,1.4.0,1,0,n,36,,0,right,right,right,right,right,right,right,672,18812.0,12390.0,19662,15469,10975.0,672,2,legacy,878,1440,24,900,24,0,0,1440,1632908712246,5,1024,2,48000,-16,experiment,0,even,MacIntel,2,710846,367713.0,632050.0,707584.0,77,708622,684316.0,76,19769,105142.0,712866,709632,713546,77,712866,Sternberg_updated,104,59718,109,yes,1024,1
109,95,95,548,548,black,no,experiment,Mozilla,Netscape,"5.0 (Macintosh; Intel Mac OS X 10_13_6) AppleWebKit/605.1.15 (KHTML, like Gecko) Version/13.1.2 Safari/605.1.15",legacy,legacy,legacy,0,uniform,1,1,left,109,109,109,109,0,0,0,109,109,0,0,0,109,109,109,0,0,109,109,0,29-08-21,29-08-21,11:45:48,Wed Sep 29 2021 11:45:48 GMT+0200 (CEST),The main experiment item,yes,0,0,/Users/ethan/Documents/GitHub/OpenSesame/Sternberg/experiment_files,0,0,0,no,mono,no,18,no,white,no,no,768,40,3.6.1,legacy,legacy,6 8,osweb,1.4.0,1,0,n,36,,0,left,right,right,right,right,right,left,560,18812.0,12390.0,19662,15469,10975.0,560,2,legacy,878,1440,24,900,24,0,0,1440,1632908712246,2,1024,2,48000,-16,experiment,0,even,MacIntel,9,716814,367713.0,632050.0,707584.0,77,714594,713553.0,76,19769,105142.0,718833,715600,719397,77,718833,Sternberg_updated,105,60278,110,yes,1024,1
110,95,95,550,550,black,no,experiment,Mozilla,Netscape,"5.0 (Macintosh; Intel Mac OS X 10_13_6) AppleWebKit/605.1.15 (KHTML, like Gecko) Version/13.1.2 Safari/605.1.15",legacy,legacy,legacy,0,uniform,1,1,right,110,110,110,110,0,0,0,110,110,0,0,0,110,110,110,0,0,110,110,0,29-08-21,29-08-21,11:45:48,Wed Sep 29 2021 11:45:48 GMT+0200 (CEST),The main experiment item,yes,0,0,/Users/ethan/Documents/GitHub/OpenSesame/Sternberg/experiment_files,0,0,0,no,mono,no,18,no,white,no,no,768,40,3.6.1,legacy,legacy,8 5 3 7 4 6,osweb,1.4.0,1,6,y,36,,0,right,right,right,right,right,right,right,731,18812.0,12390.0,19662,15469,10975.0,731,2,legacy,878,1440,24,900,24,0,0,1440,1632908712246,6,1024,2,48000,-16,experiment,0,even,MacIntel,6,722664,367713.0,632050.0,719402.0,77,720438,713553.0,76,19769,105142.0,724683,721450,725431,77,724683,Sternberg_updated,106,61009,111,yes,1024,1
111,96,96,550,550,black,no,experiment,Mozilla,Netscape,"5.0 (Macintosh; Intel Mac OS X 10_13_6) AppleWebKit/605.1.15 (KHTML, like Gecko) Version/13.1.2 Safari/605.1.15",legacy,legacy,legacy,0,uniform,1,1,right,111,111,111,111,0,0,0,111,111,0,0,0,111,111,111,0,0,111,111,0,29-08-21,29-08-21,11:45:48,Wed Sep 29 2021 11:45:48 GMT+0200 (CEST),The main experiment item,yes,0,0,/Users/ethan/Documents/GitHub/OpenSesame/Sternberg/experiment_files,0,0,0,no,mono,no,18,no,white,no,no,768,40,3.6.1,legacy,legacy,9 1 7 2,osweb,1.4.0,1,2,y,36,,0,right,right,right,right,right,right,right,562,18812.0,12390.0,19662,15469,10975.0,562,2,legacy,878,1440,24,900,24,0,0,1440,1632908712246,4,1024,2,48000,-16,experiment,0,even,MacIntel,1,728698,367713.0,632050.0,725435.0,77,726474,713553.0,76,19769,105142.0,730717,727484,731281,77,730717,Sternberg_updated,107,61571,112,yes,1024,1
112,96,96,551,551,black,no,experiment,Mozilla,Netscape,"5.0 (Macintosh; Intel Mac OS X 10_13_6) AppleWebKit/605.1.15 (KHTML, like Gecko) Version/13.1.2 Safari/605.1.15",legacy,legacy,legacy,0,uniform,1,1,left,112,112,112,112,0,0,0,112,112,0,0,0,112,112,112,0,0,112,112,0,29-08-21,29-08-21,11:45:48,Wed Sep 29 2021 11:45:48 GMT+0200 (CEST),The main experiment item,yes,0,0,/Users/ethan/Documents/GitHub/OpenSesame/Sternberg/experiment_files,0,0,0,no,mono,no,18,no,white,no,no,768,40,3.6.1,legacy,legacy,3 9 8 1 6 4,osweb,1.4.0,1,0,n,36,,0,left,right,right,right,right,right,left,738,18812.0,12390.0,19662,15469,10975.0,738,2,legacy,878,1440,24,900,24,0,0,1440,1632908712246,6,1024,2,48000,-16,experiment,0,even,MacIntel,7,734549,367713.0,632050.0,731285.0,77,732326,713553.0,76,19769,105142.0,736568,733339,737315,77,736568,Sternberg_updated,108,62309,113,yes,1024,1
113,96,96,552,552,black,no,experiment,Mozilla,Netscape,"5.0 (Macintosh; Intel Mac OS X 10_13_6) AppleWebKit/605.1.15 (KHTML, like Gecko) Version/13.1.2 Safari/605.1.15",legacy,legacy,legacy,0,uniform,1,1,left,113,113,113,113,0,0,0,113,113,0,0,0,113,113,113,0,0,113,113,0,29-08-21,29-08-21,11:45:48,Wed Sep 29 2021 11:45:48 GMT+0200 (CEST),The main experiment item,yes,0,0,/Users/ethan/Documents/GitHub/OpenSesame/Sternberg/experiment_files,0,0,0,no,mono,no,18,no,white,no,no,768,40,3.6.1,legacy,legacy,6 9 4 5 3 2,osweb,1.4.0,1,0,n,36,,0,left,right,right,right,right,right,left,643,18812.0,12390.0,19662,15469,10975.0,643,2,legacy,878,1440,24,900,24,0,0,1440,1632908712246,6,1024,2,48000,-16,experiment,0,even,MacIntel,8,740582,367713.0,632050.0,737319.0,77,738363,713553.0,76,19769,105142.0,742601,739368,743248,77,742601,Sternberg_updated,109,62952,114,yes,1024,1
114,96,96,552,552,black,no,experiment,Mozilla,Netscape,"5.0 (Macintosh; Intel Mac OS X 10_13_6) AppleWebKit/605.1.15 (KHTML, like Gecko) Version/13.1.2 Safari/605.1.15",legacy,legacy,legacy,0,uniform,1,1,right,114,114,114,114,0,0,0,114,114,0,0,0,114,114,114,0,0,114,114,0,29-08-21,29-08-21,11:45:48,Wed Sep 29 2021 11:45:48 GMT+0200 (CEST),The main experiment item,yes,0,0,/Users/ethan/Documents/GitHub/OpenSesame/Sternberg/experiment_files,0,0,0,no,mono,no,18,no,white,no,no,768,40,3.6.1,legacy,legacy,9 5 3 8 4,osweb,1.4.0,1,1,y,36,,0,right,right,right,right,right,right,right,545,18812.0,12390.0,19662,15469,10975.0,545,2,legacy,878,1440,24,900,24,0,0,1440,1632908712246,5,1024,2,48000,-16,experiment,0,even,MacIntel,9,746516,367713.0,632050.0,743253.0,77,744290,713553.0,76,19769,105142.0,748534,745302,749082,77,748534,Sternberg_updated,110,63497,115,yes,1024,1
115,96,96,553,553,black,no,experiment,Mozilla,Netscape,"5.0 (Macintosh; Intel Mac OS X 10_13_6) AppleWebKit/605.1.15 (KHTML, like Gecko) Version/13.1.2 Safari/605.1.15",legacy,legacy,legacy,0,uniform,1,1,left,115,115,115,115,0,0,0,115,115,0,0,0,115,115,115,0,0,115,115,0,29-08-21,29-08-21,11:45:48,Wed Sep 29 2021 11:45:48 GMT+0200 (CEST),The main experiment item,yes,0,0,/Users/ethan/Documents/GitHub/OpenSesame/Sternberg/experiment_files,0,0,0,no,mono,no,18,no,white,no,no,768,40,3.6.1,legacy,legacy,6 8 4,osweb,1.4.0,1,0,n,36,,0,left,right,right,right,right,right,left,597,18812.0,12390.0,19662,15469,10975.0,597,2,legacy,878,1440,24,900,24,0,0,1440,1632908712246,3,1024,2,48000,-16,experiment,0,even,MacIntel,1,752350,367713.0,632050.0,749086.0,77,750126,713553.0,76,19769,105142.0,754368,751135,754966,77,754368,Sternberg_updated,111,64094,116,yes,1024,1
116,95,95,557,557,black,no,experiment,Mozilla,Netscape,"5.0 (Macintosh; Intel Mac OS X 10_13_6) AppleWebKit/605.1.15 (KHTML, like Gecko) Version/13.1.2 Safari/605.1.15",legacy,legacy,legacy,0,uniform,0,0,left,116,116,116,116,0,0,0,116,116,0,0,0,116,116,116,0,0,116,116,0,29-08-21,29-08-21,11:45:48,Wed Sep 29 2021 11:45:48 GMT+0200 (CEST),The main experiment item,yes,0,0,/Users/ethan/Documents/GitHub/OpenSesame/Sternberg/experiment_files,0,0,0,no,mono,no,18,no,white,no,no,768,40,3.6.1,legacy,legacy,2 8 7 9 5 3,osweb,1.4.0,1,0,n,36,,0,right,right,right,right,right,right,right,1057,18812.0,12390.0,19662,15469,10975.0,1057,2,legacy,878,1440,24,900,24,0,0,1440,1632908712246,6,1024,2,48000,-16,experiment,0,even,MacIntel,6,758234,367713.0,632050.0,754970.0,77,756009,713553.0,76,19769,105142.0,760258,757024,761315,77,760258,Sternberg_updated,111,65151,117,yes,1024,1
117,95,95,557,557,black,no,experiment,Mozilla,Netscape,"5.0 (Macintosh; Intel Mac OS X 10_13_6) AppleWebKit/605.1.15 (KHTML, like Gecko) Version/13.1.2 Safari/605.1.15",legacy,legacy,legacy,0,uniform,1,1,left,117,117,117,117,0,0,0,117,117,0,0,0,117,117,117,0,0,117,117,0,29-08-21,29-08-21,11:45:48,Wed Sep 29 2021 11:45:48 GMT+0200 (CEST),The main experiment item,yes,0,0,/Users/ethan/Documents/GitHub/OpenSesame/Sternberg/experiment_files,0,0,0,no,mono,no,18,no,white,no,no,768,40,3.6.1,legacy,legacy,8 5 7 3 6,osweb,1.4.0,1,0,n,36,,0,left,right,right,right,right,right,left,605,18812.0,12390.0,19662,15469,10975.0,605,2,legacy,878,1440,24,900,24,0,0,1440,1632908712246,5,1024,2,48000,-16,experiment,0,even,MacIntel,9,764584,367713.0,632050.0,754970.0,77,762361,761322.0,76,19769,105142.0,766603,763369,767216,77,766603,Sternberg_updated,112,65756,118,yes,1024,1
118,95,95,558,558,black,no,experiment,Mozilla,Netscape,"5.0 (Macintosh; Intel Mac OS X 10_13_6) AppleWebKit/605.1.15 (KHTML, like Gecko) Version/13.1.2 Safari/605.1.15",legacy,legacy,legacy,0,uniform,1,1,right,118,118,118,118,0,0,0,118,118,0,0,0,118,118,118,0,0,118,118,0,29-08-21,29-08-21,11:45:48,Wed Sep 29 2021 11:45:48 GMT+0200 (CEST),The main experiment item,yes,0,0,/Users/ethan/Documents/GitHub/OpenSesame/Sternberg/experiment_files,0,0,0,no,mono,no,18,no,white,no,no,768,40,3.6.1,legacy,legacy,9 5 8 1,osweb,1.4.0,1,2,y,36,,0,right,right,right,right,right,right,right,639,18812.0,12390.0,19662,15469,10975.0,639,2,legacy,878,1440,24,900,24,0,0,1440,1632908712246,4,1024,2,48000,-16,experiment,0,even,MacIntel,5,770483,367713.0,632050.0,767222.0,77,768261,761322.0,76,19769,105142.0,772487,769270,773134,77,772486,Sternberg_updated,113,66395,119,yes,1024,1
