acc,accuracy,average_response_time,avg_rt,background,bidi,block,canvas_backend,clock_backend,color_backend,compensation,coordinates,correct,correct_response,count_ISI,count_break1,count_break_2,count_correct_feedback,count_credits,count_experiment,count_experimentLoop,count_fixation,count_incorrect_feedback,count_instructions1,count_instructions2,count_keyboard_response,count_memory_set,count_new_logger,count_osweb,count_practiceLoop,count_practiceSequence,count_probe,count_thankYou,datetime,description,disable_garbage_collection,experiment_path,font_bold,font_family,font_italic,font_size,font_underline,foreground,form_clicks,fullscreen,height,keyboard_backend,mouse_backend,numberSet,opensesame_codename,opensesame_version,posInSet,present,response,response_break1,response_break_2,response_instructions1,response_instructions2,response_keyboard_response,response_time,response_time_break1,response_time_break_2,response_time_instructions1,response_time_instructions2,response_time_keyboard_response,round_decimals,sampler_backend,sessionid,setSize,sound_buf_size,sound_channels,sound_freq,sound_sample_size,start,subject_nr,subject_parity,target,time_ISI,time_break1,time_break_2,time_correct_feedback,time_experimentLoop,time_fixation,time_incorrect_feedback,time_instructions1,time_instructions2,time_keyboard_response,time_memory_set,time_new_logger,time_practiceLoop,time_probe,title,total_correct,total_response_time,total_responses,uniform_coordinates,width
100,100,1855,1855,black,no,practice,legacy,legacy,legacy,0,uniform,1,right,0,0,0,0,0,0,0,0,0,0,0,0,0,0,0,0,0,0,0,Mon Sep 27 2021 15:23:10 GMT+0200 (Central European Summer Time),The main experiment item,yes,/Users/ethan/Documents/GitHub/OpenSesame/Sternberg/experiment_files,no,mono,no,18,no,white,no,no,768,legacy,legacy,6,osweb,1.3.8,1,y,right,,,right,,right,1855,,,31505,,1855,2,legacy,1632749078104,1,1024,2,48000,-16,experiment,1,odd,6,33761,,,,29,31551,,29,,35770,32557,37635,29,35770,Sternberg,1,1855,1,yes,1024
100,100,1415,1415,black,no,practice,legacy,legacy,legacy,0,uniform,1,right,1,1,1,1,0,0,0,1,1,0,0,1,1,1,0,0,1,1,0,Mon Sep 27 2021 15:23:10 GMT+0200 (Central European Summer Time),The main experiment item,yes,/Users/ethan/Documents/GitHub/OpenSesame/Sternberg/experiment_files,no,mono,no,18,no,white,no,no,768,legacy,legacy,1 7 9 8 5,osweb,1.3.8,4,y,right,,,right,,right,975,,,31505,,975,2,legacy,1632749078104,5,1024,2,48000,-16,experiment,1,odd,8,40863,,,37637,29,38652,,29,,42868,39661,43854,29,42868,Sternberg,2,2830,2,yes,1024
100,100,1294,1294,black,no,practice,legacy,legacy,legacy,0,uniform,1,right,2,2,2,2,0,0,0,2,2,0,0,2,2,2,0,0,2,2,0,Mon Sep 27 2021 15:23:10 GMT+0200 (Central European Summer Time),The main experiment item,yes,/Users/ethan/Documents/GitHub/OpenSesame/Sternberg/experiment_files,no,mono,no,18,no,white,no,no,768,legacy,legacy,4 3 1 7 9 8,osweb,1.3.8,1,y,right,,,right,,right,1051,,,31505,,1051,2,legacy,1632749078104,6,1024,2,48000,-16,experiment,1,odd,4,47084,,,43856,29,44871,,29,,49088,45879,50148,29,49088,Sternberg,3,3881,3,yes,1024
100,100,1239,1239,black,no,practice,legacy,legacy,legacy,0,uniform,1,left,3,3,3,3,0,0,0,3,3,0,0,3,3,3,0,0,3,3,0,Mon Sep 27 2021 15:23:10 GMT+0200 (Central European Summer Time),The main experiment item,yes,/Users/ethan/Documents/GitHub/OpenSesame/Sternberg/experiment_files,no,mono,no,18,no,white,no,no,768,legacy,legacy,4 1 5,osweb,1.3.8,0,n,left,,,right,,left,1075,,,31505,,1075,2,legacy,1632749078104,3,1024,2,48000,-16,experiment,1,odd,2,53367,,,50149,29,51162,,29,,55372,52164,56458,29,55372,Sternberg,4,4956,4,yes,1024
100,100,1199,1199,black,no,practice,legacy,legacy,legacy,0,uniform,1,right,4,4,4,4,0,0,0,4,4,0,0,4,4,4,0,0,4,4,0,Mon Sep 27 2021 15:23:10 GMT+0200 (Central European Summer Time),The main experiment item,yes,/Users/ethan/Documents/GitHub/OpenSesame/Sternberg/experiment_files,no,mono,no,18,no,white,no,no,768,legacy,legacy,1 5 2 9,osweb,1.3.8,2,y,right,,,right,,right,1040,,,31505,,1040,2,legacy,1632749078104,4,1024,2,48000,-16,experiment,1,odd,5,59687,,,56459,29,57473,,29,,61692,58484,62744,29,61692,Sternberg,5,5996,5,yes,1024
100,100,1165,1165,black,no,practice,legacy,legacy,legacy,0,uniform,1,left,5,5,5,5,0,0,0,5,5,0,0,5,5,5,0,0,5,5,0,Mon Sep 27 2021 15:23:10 GMT+0200 (Central European Summer Time),The main experiment item,yes,/Users/ethan/Documents/GitHub/OpenSesame/Sternberg/experiment_files,no,mono,no,18,no,white,no,no,768,legacy,legacy,2 1,osweb,1.3.8,0,n,left,,,right,,left,995,,,31505,,995,2,legacy,1632749078104,2,1024,2,48000,-16,experiment,1,odd,5,65975,,,62745,29,63761,,29,,67979,64771,68982,29,67978,Sternberg,6,6991,6,yes,1024
86,86,1192,1192,black,no,practice,legacy,legacy,legacy,0,uniform,0,right,6,6,6,6,0,0,0,6,6,0,0,6,6,6,0,0,6,6,0,Mon Sep 27 2021 15:23:10 GMT+0200 (Central European Summer Time),The main experiment item,yes,/Users/ethan/Documents/GitHub/OpenSesame/Sternberg/experiment_files,no,mono,no,18,no,white,no,no,768,legacy,legacy,2 9 4,osweb,1.3.8,3,y,left,,,right,,left,1355,,,31505,,1355,2,legacy,1632749078104,3,1024,2,48000,-16,experiment,1,odd,4,72211,,,68984,29,69997,,29,,74214,71007,75584,29,74214,Sternberg,6,8346,7,yes,1024
88,88,1134,1134,black,no,practice,legacy,legacy,legacy,0,uniform,1,right,7,7,7,7,0,0,0,7,7,0,0,7,7,7,0,0,7,7,0,Mon Sep 27 2021 15:23:10 GMT+0200 (Central European Summer Time),The main experiment item,yes,/Users/ethan/Documents/GitHub/OpenSesame/Sternberg/experiment_files,no,mono,no,18,no,white,no,no,768,legacy,legacy,4 8,osweb,1.3.8,1,y,right,,,right,,right,727,,,31505,,727,2,legacy,1632749078104,2,1024,2,48000,-16,experiment,1,odd,4,78813,,,68984,29,76598,75584,29,,80817,77610,81555,29,80817,Sternberg,7,9073,8,yes,1024
78,78,1199,1199,black,no,practice,legacy,legacy,legacy,0,uniform,0,left,8,8,8,8,0,0,0,8,8,0,0,8,8,8,0,0,8,8,0,Mon Sep 27 2021 15:23:10 GMT+0200 (Central European Summer Time),The main experiment item,yes,/Users/ethan/Documents/GitHub/OpenSesame/Sternberg/experiment_files,no,mono,no,18,no,white,no,no,768,legacy,legacy,9 6 7 4 5,osweb,1.3.8,0,n,right,,,right,,right,1718,,,31505,,1718,2,legacy,1632749078104,5,1024,2,48000,-16,experiment,1,odd,3,84783,,,81557,29,82567,75584,29,,86786,83579,88506,29,86786,Sternberg,7,10791,9,yes,1024
80,80,1240,1240,black,no,practice,legacy,legacy,legacy,0,uniform,1,left,9,9,9,9,0,0,0,9,9,0,0,9,9,9,0,0,9,9,0,Mon Sep 27 2021 15:23:10 GMT+0200 (Central European Summer Time),The main experiment item,yes,/Users/ethan/Documents/GitHub/OpenSesame/Sternberg/experiment_files,no,mono,no,18,no,white,no,no,768,legacy,legacy,5,osweb,1.3.8,0,n,left,,,right,,left,1609,,,31505,,1609,2,legacy,1632749078104,1,1024,2,48000,-16,experiment,1,odd,3,91736,,,81557,29,89521,88506,29,,93738,90531,95360,29,93738,Sternberg,8,12400,10,yes,1024
82,82,1234,1234,black,no,practice,legacy,legacy,legacy,0,uniform,1,left,10,10,10,10,0,0,0,10,10,0,0,10,10,10,0,0,10,10,0,Mon Sep 27 2021 15:23:10 GMT+0200 (Central European Summer Time),The main experiment item,yes,/Users/ethan/Documents/GitHub/OpenSesame/Sternberg/experiment_files,no,mono,no,18,no,white,no,no,768,legacy,legacy,3 1 9 4,osweb,1.3.8,0,n,left,,,right,,left,1170,,,31505,,1170,2,legacy,1632749078104,4,1024,2,48000,-16,experiment,1,odd,6,98587,,,95361,29,96372,88506,29,,100593,97384,101778,29,100593,Sternberg,9,13570,11,yes,1024
75,75,1298,1298,black,no,practice,legacy,legacy,legacy,0,uniform,0,left,11,11,11,11,0,0,0,11,11,0,0,11,11,11,0,0,11,11,0,Mon Sep 27 2021 15:23:10 GMT+0200 (Central European Summer Time),The main experiment item,yes,/Users/ethan/Documents/GitHub/OpenSesame/Sternberg/experiment_files,no,mono,no,18,no,white,no,no,768,legacy,legacy,5 7 8 4 1 2,osweb,1.3.8,0,n,None,,,right,,None,2005,,,31505,,2005,2,legacy,1632749078104,6,1024,2,48000,-16,experiment,1,odd,6,105008,,,101779,29,102794,88506,29,,107011,103803,109016,29,107011,Sternberg,9,15575,12,yes,1024
77,77,1289,1289,black,no,experiment,legacy,legacy,legacy,0,uniform,1,left,12,12,12,12,0,0,0,12,12,0,0,12,12,12,0,0,12,12,0,Mon Sep 27 2021 15:23:10 GMT+0200 (Central European Summer Time),The main experiment item,yes,/Users/ethan/Documents/GitHub/OpenSesame/Sternberg/experiment_files,no,mono,no,18,no,white,no,no,768,legacy,legacy,3 4 2,osweb,1.3.8,0,n,left,,,right,space,left,1182,,,31505,53694,1182,2,legacy,1632749078104,3,1024,2,48000,-16,experiment,1,odd,5,165954,,,101779,29,163749,109017,29,110029,167963,164750,169149,29,167963,Sternberg,10,16757,13,yes,1024
79,79,1295,1295,black,no,experiment,legacy,legacy,legacy,0,uniform,1,left,13,13,13,13,0,0,0,13,13,0,0,13,13,13,0,0,13,13,0,Mon Sep 27 2021 15:23:10 GMT+0200 (Central European Summer Time),The main experiment item,yes,/Users/ethan/Documents/GitHub/OpenSesame/Sternberg/experiment_files,no,mono,no,18,no,white,no,no,768,legacy,legacy,6 9 5,osweb,1.3.8,0,n,left,,,right,space,left,1373,,,31505,53694,1373,2,legacy,1632749078104,3,1024,2,48000,-16,experiment,1,odd,8,172387,,,169150,29,170169,109017,29,110029,174390,171182,175777,29,174390,Sternberg,11,18130,14,yes,1024
80,80,1339,1339,black,no,experiment,legacy,legacy,legacy,0,uniform,1,right,14,14,14,14,0,0,0,14,14,0,0,14,14,14,0,0,14,14,0,Mon Sep 27 2021 15:23:10 GMT+0200 (Central European Summer Time),The main experiment item,yes,/Users/ethan/Documents/GitHub/OpenSesame/Sternberg/experiment_files,no,mono,no,18,no,white,no,no,768,legacy,legacy,8 9 6 1,osweb,1.3.8,2,y,right,,,right,space,right,1958,,,31505,53694,1958,2,legacy,1632749078104,4,1024,2,48000,-16,experiment,1,odd,9,179007,,,175777,29,176790,109017,29,110029,181011,177803,182981,29,181010,Sternberg,12,20088,15,yes,1024
81,81,1306,1306,black,no,experiment,legacy,legacy,legacy,0,uniform,1,left,15,15,15,15,0,0,0,15,15,0,0,15,15,15,0,0,15,15,0,Mon Sep 27 2021 15:23:10 GMT+0200 (Central European Summer Time),The main experiment item,yes,/Users/ethan/Documents/GitHub/OpenSesame/Sternberg/experiment_files,no,mono,no,18,no,white,no,no,768,legacy,legacy,6 8,osweb,1.3.8,0,n,left,,,right,space,left,801,,,31505,53694,801,2,legacy,1632749078104,2,1024,2,48000,-16,experiment,1,odd,9,186209,,,182981,29,183994,109017,29,110029,188214,185007,189017,29,188214,Sternberg,13,20889,16,yes,1024
76,76,1310,1310,black,no,experiment,legacy,legacy,legacy,0,uniform,0,left,16,16,16,16,0,0,0,16,16,0,0,16,16,16,0,0,16,16,0,Mon Sep 27 2021 15:23:10 GMT+0200 (Central European Summer Time),The main experiment item,yes,/Users/ethan/Documents/GitHub/OpenSesame/Sternberg/experiment_files,no,mono,no,18,no,white,no,no,768,legacy,legacy,1 5 3 2 8,osweb,1.3.8,0,n,right,,,right,space,right,1384,,,31505,53694,1384,2,legacy,1632749078104,5,1024,2,48000,-16,experiment,1,odd,4,192245,,,189017,29,190031,109017,29,110029,194249,191042,195636,29,194249,Sternberg,13,22273,17,yes,1024
78,78,1319,1319,black,no,experiment,legacy,legacy,legacy,0,uniform,1,left,17,17,17,17,0,0,0,17,17,0,0,17,17,17,0,0,17,17,0,Mon Sep 27 2021 15:23:10 GMT+0200 (Central European Summer Time),The main experiment item,yes,/Users/ethan/Documents/GitHub/OpenSesame/Sternberg/experiment_files,no,mono,no,18,no,white,no,no,768,legacy,legacy,9 8 2 7 4,osweb,1.3.8,0,n,left,,,right,space,left,1468,,,31505,53694,1468,2,legacy,1632749078104,5,1024,2,48000,-16,experiment,1,odd,5,198865,,,189017,29,196649,195638,29,110029,200869,197662,202337,29,200869,Sternberg,14,23741,18,yes,1024
79,79,1313,1313,black,no,experiment,legacy,legacy,legacy,0,uniform,1,left,18,18,18,18,0,0,0,18,18,0,0,18,18,18,0,0,18,18,0,Mon Sep 27 2021 15:23:10 GMT+0200 (Central European Summer Time),The main experiment item,yes,/Users/ethan/Documents/GitHub/OpenSesame/Sternberg/experiment_files,no,mono,no,18,no,white,no,no,768,legacy,legacy,8 4 3 9,osweb,1.3.8,0,n,left,,,right,space,left,1211,,,31505,53694,1211,2,legacy,1632749078104,4,1024,2,48000,-16,experiment,1,odd,5,205565,,,202338,29,203353,195638,29,110029,207570,204363,208790,29,207570,Sternberg,15,24952,19,yes,1024
80,80,1304,1304,black,no,experiment,legacy,legacy,legacy,0,uniform,1,left,19,19,19,19,0,0,0,19,19,0,0,19,19,19,0,0,19,19,0,Mon Sep 27 2021 15:23:10 GMT+0200 (Central European Summer Time),The main experiment item,yes,/Users/ethan/Documents/GitHub/OpenSesame/Sternberg/experiment_files,no,mono,no,18,no,white,no,no,768,legacy,legacy,7 1 8 4 9 3,osweb,1.3.8,0,n,left,,,right,space,left,1120,,,31505,53694,1120,2,legacy,1632749078104,6,1024,2,48000,-16,experiment,1,odd,6,212020,,,208791,29,209803,195638,29,110029,214024,210815,215160,29,214023,Sternberg,16,26072,20,yes,1024
81,81,1310,1310,black,no,experiment,legacy,legacy,legacy,0,uniform,1,left,20,20,20,20,0,0,0,20,20,0,0,20,20,20,0,0,20,20,0,Mon Sep 27 2021 15:23:10 GMT+0200 (Central European Summer Time),The main experiment item,yes,/Users/ethan/Documents/GitHub/OpenSesame/Sternberg/experiment_files,no,mono,no,18,no,white,no,no,768,legacy,legacy,2 6 4 3 9,osweb,1.3.8,0,n,left,,,right,space,left,1436,,,31505,53694,1436,2,legacy,1632749078104,5,1024,2,48000,-16,experiment,1,odd,1,218389,,,215160,29,216172,195638,29,110029,220391,217184,221828,29,220391,Sternberg,17,27508,21,yes,1024
82,82,1308,1308,black,no,experiment,legacy,legacy,legacy,0,uniform,1,left,21,21,21,21,0,0,0,21,21,0,0,21,21,21,0,0,21,21,0,Mon Sep 27 2021 15:23:10 GMT+0200 (Central European Summer Time),The main experiment item,yes,/Users/ethan/Documents/GitHub/OpenSesame/Sternberg/experiment_files,no,mono,no,18,no,white,no,no,768,legacy,legacy,2 5 1 4,osweb,1.3.8,0,n,left,,,right,space,left,1276,,,31505,53694,1276,2,legacy,1632749078104,4,1024,2,48000,-16,experiment,1,odd,6,225057,,,221829,29,222841,195638,29,110029,227061,223854,228347,29,227061,Sternberg,18,28784,22,yes,1024
83,83,1316,1316,black,no,experiment,legacy,legacy,legacy,0,uniform,1,left,22,22,22,22,0,0,0,22,22,0,0,22,22,22,0,0,22,22,0,Mon Sep 27 2021 15:23:10 GMT+0200 (Central European Summer Time),The main experiment item,yes,/Users/ethan/Documents/GitHub/OpenSesame/Sternberg/experiment_files,no,mono,no,18,no,white,no,no,768,legacy,legacy,1 4 9 2 5,osweb,1.3.8,0,n,left,,,right,space,left,1483,,,31505,53694,1483,2,legacy,1632749078104,5,1024,2,48000,-16,experiment,1,odd,7,231574,,,228348,29,229362,195638,29,110029,233589,230370,235077,29,233589,Sternberg,19,30267,23,yes,1024
83,83,1296,1296,black,no,experiment,legacy,legacy,legacy,0,uniform,1,left,23,23,23,23,0,0,0,23,23,0,0,23,23,23,0,0,23,23,0,Mon Sep 27 2021 15:23:10 GMT+0200 (Central European Summer Time),The main experiment item,yes,/Users/ethan/Documents/GitHub/OpenSesame/Sternberg/experiment_files,no,mono,no,18,no,white,no,no,768,legacy,legacy,9,osweb,1.3.8,0,n,left,,,right,space,left,836,,,31505,53694,836,2,legacy,1632749078104,1,1024,2,48000,-16,experiment,1,odd,6,238305,,,235077,29,236090,195638,29,110029,240308,237101,241145,29,240308,Sternberg,20,31103,24,yes,1024
84,84,1279,1279,black,no,experiment,legacy,legacy,legacy,0,uniform,1,left,24,24,24,24,0,0,0,24,24,0,0,24,24,24,0,0,24,24,0,Mon Sep 27 2021 15:23:10 GMT+0200 (Central European Summer Time),The main experiment item,yes,/Users/ethan/Documents/GitHub/OpenSesame/Sternberg/experiment_files,no,mono,no,18,no,white,no,no,768,legacy,legacy,3 9 8 1 6 4,osweb,1.3.8,0,n,left,,,right,space,left,875,,,31505,53694,875,2,legacy,1632749078104,6,1024,2,48000,-16,experiment,1,odd,7,244374,,,241146,29,242157,195638,29,110029,246378,243170,247265,29,246378,Sternberg,21,31978,25,yes,1024
85,85,1279,1279,black,no,experiment,legacy,legacy,legacy,0,uniform,1,left,25,25,25,25,0,0,0,25,25,0,0,25,25,25,0,0,25,25,0,Mon Sep 27 2021 15:23:10 GMT+0200 (Central European Summer Time),The main experiment item,yes,/Users/ethan/Documents/GitHub/OpenSesame/Sternberg/experiment_files,no,mono,no,18,no,white,no,no,768,legacy,legacy,3 4 9 6 7 8,osweb,1.3.8,0,n,left,,,right,space,left,1288,,,31505,53694,1288,2,legacy,1632749078104,6,1024,2,48000,-16,experiment,1,odd,2,250492,,,247266,29,248277,195638,29,110029,252496,249289,253799,29,252496,Sternberg,22,33266,26,yes,1024
85,85,1282,1282,black,no,experiment,legacy,legacy,legacy,0,uniform,1,right,26,26,26,26,0,0,0,26,26,0,0,26,26,26,0,0,26,26,0,Mon Sep 27 2021 15:23:10 GMT+0200 (Central European Summer Time),The main experiment item,yes,/Users/ethan/Documents/GitHub/OpenSesame/Sternberg/experiment_files,no,mono,no,18,no,white,no,no,768,legacy,legacy,8 7 3,osweb,1.3.8,1,y,right,,,right,space,right,1348,,,31505,53694,1348,2,legacy,1632749078104,3,1024,2,48000,-16,experiment,1,odd,8,257029,,,253800,29,254815,195638,29,110029,259033,255825,260386,29,259033,Sternberg,23,34614,27,yes,1024
86,86,1273,1273,black,no,experiment,legacy,legacy,legacy,0,uniform,1,right,27,27,27,27,0,0,0,27,27,0,0,27,27,27,0,0,27,27,0,Mon Sep 27 2021 15:23:10 GMT+0200 (Central European Summer Time),The main experiment item,yes,/Users/ethan/Documents/GitHub/OpenSesame/Sternberg/experiment_files,no,mono,no,18,no,white,no,no,768,legacy,legacy,9 3 1 2 5,osweb,1.3.8,4,y,right,,,right,space,right,1030,,,31505,53694,1030,2,legacy,1632749078104,5,1024,2,48000,-16,experiment,1,odd,2,263614,,,260387,29,261401,195638,29,110029,265618,262411,266656,29,265618,Sternberg,24,35644,28,yes,1024
86,86,1261,1261,black,no,experiment,legacy,legacy,legacy,0,uniform,1,right,28,28,28,28,0,0,0,28,28,0,0,28,28,28,0,0,28,28,0,Mon Sep 27 2021 15:23:10 GMT+0200 (Central European Summer Time),The main experiment item,yes,/Users/ethan/Documents/GitHub/OpenSesame/Sternberg/experiment_files,no,mono,no,18,no,white,no,no,768,legacy,legacy,8 9 5 7 1 6,osweb,1.3.8,4,y,right,,,right,space,right,917,,,31505,53694,917,2,legacy,1632749078104,6,1024,2,48000,-16,experiment,1,odd,7,269884,,,266657,29,267668,195638,29,110029,271888,268680,272808,29,271888,Sternberg,25,36561,29,yes,1024
87,87,1245,1245,black,no,experiment,legacy,legacy,legacy,0,uniform,1,right,29,29,29,29,0,0,0,29,29,0,0,29,29,29,0,0,29,29,0,Mon Sep 27 2021 15:23:10 GMT+0200 (Central European Summer Time),The main experiment item,yes,/Users/ethan/Documents/GitHub/OpenSesame/Sternberg/experiment_files,no,mono,no,18,no,white,no,no,768,legacy,legacy,3 5 4 7,osweb,1.3.8,1,y,right,,,right,space,right,774,,,31505,53694,774,2,legacy,1632749078104,4,1024,2,48000,-16,experiment,1,odd,3,276037,,,272809,29,273819,195638,29,110029,278041,274833,278827,29,278041,Sternberg,26,37335,30,yes,1024
87,87,1248,1248,black,no,experiment,legacy,legacy,legacy,0,uniform,1,left,30,30,30,30,0,0,0,30,30,0,0,30,30,30,0,0,30,30,0,Mon Sep 27 2021 15:23:10 GMT+0200 (Central European Summer Time),The main experiment item,yes,/Users/ethan/Documents/GitHub/OpenSesame/Sternberg/experiment_files,no,mono,no,18,no,white,no,no,768,legacy,legacy,2 3 8 5 6 7,osweb,1.3.8,0,n,left,,,right,space,left,1352,,,31505,53694,1352,2,legacy,1632749078104,6,1024,2,48000,-16,experiment,1,odd,1,282056,,,278828,29,279839,195638,29,110029,284061,280853,285430,29,284061,Sternberg,27,38687,31,yes,1024
88,88,1244,1244,black,no,experiment,legacy,legacy,legacy,0,uniform,1,right,31,31,31,31,0,0,0,31,31,0,0,31,31,31,0,0,31,31,0,Mon Sep 27 2021 15:23:10 GMT+0200 (Central European Summer Time),The main experiment item,yes,/Users/ethan/Documents/GitHub/OpenSesame/Sternberg/experiment_files,no,mono,no,18,no,white,no,no,768,legacy,legacy,2 8 5 1,osweb,1.3.8,4,y,right,,,right,space,right,1131,,,31505,53694,1131,2,legacy,1632749078104,4,1024,2,48000,-16,experiment,1,odd,1,288660,,,285431,29,286443,195638,29,110029,290672,287456,291808,29,290672,Sternberg,28,39818,32,yes,1024
85,85,1244,1244,black,no,experiment,legacy,legacy,legacy,0,uniform,0,left,32,32,32,32,0,0,0,32,32,0,0,32,32,32,0,0,32,32,0,Mon Sep 27 2021 15:23:10 GMT+0200 (Central European Summer Time),The main experiment item,yes,/Users/ethan/Documents/GitHub/OpenSesame/Sternberg/experiment_files,no,mono,no,18,no,white,no,no,768,legacy,legacy,6 9 7 3 8 2,osweb,1.3.8,0,n,right,,,right,space,right,1238,,,31505,53694,1238,2,legacy,1632749078104,6,1024,2,48000,-16,experiment,1,odd,5,295046,,,291809,29,292832,195638,29,110029,297050,293842,298302,29,297050,Sternberg,28,41056,33,yes,1024
85,85,1234,1234,black,no,experiment,legacy,legacy,legacy,0,uniform,1,right,33,33,33,33,0,0,0,33,33,0,0,33,33,33,0,0,33,33,0,Mon Sep 27 2021 15:23:10 GMT+0200 (Central European Summer Time),The main experiment item,yes,/Users/ethan/Documents/GitHub/OpenSesame/Sternberg/experiment_files,no,mono,no,18,no,white,no,no,768,legacy,legacy,6 7 9 3 1 2,osweb,1.3.8,1,y,right,,,right,space,right,911,,,31505,53694,911,2,legacy,1632749078104,6,1024,2,48000,-16,experiment,1,odd,6,301532,,,291809,29,299314,298303,29,110029,303536,300329,304456,29,303536,Sternberg,29,41967,34,yes,1024
86,86,1227,1227,black,no,experiment,legacy,legacy,legacy,0,uniform,1,right,34,34,34,34,0,0,0,34,34,0,0,34,34,34,0,0,34,34,0,Mon Sep 27 2021 15:23:10 GMT+0200 (Central European Summer Time),The main experiment item,yes,/Users/ethan/Documents/GitHub/OpenSesame/Sternberg/experiment_files,no,mono,no,18,no,white,no,no,768,legacy,legacy,6 1 2,osweb,1.3.8,3,y,right,,,right,space,right,976,,,31505,53694,976,2,legacy,1632749078104,3,1024,2,48000,-16,experiment,1,odd,2,307686,,,304456,29,305471,298303,29,110029,309690,306482,310676,29,309690,Sternberg,30,42943,35,yes,1024
86,86,1210,1210,black,no,experiment,legacy,legacy,legacy,0,uniform,1,right,35,35,35,35,0,0,0,35,35,0,0,35,35,35,0,0,35,35,0,Mon Sep 27 2021 15:23:10 GMT+0200 (Central European Summer Time),The main experiment item,yes,/Users/ethan/Documents/GitHub/OpenSesame/Sternberg/experiment_files,no,mono,no,18,no,white,no,no,768,legacy,legacy,8 3,osweb,1.3.8,2,y,right,,,right,space,right,631,,,31505,53694,631,2,legacy,1632749078104,2,1024,2,48000,-16,experiment,1,odd,3,313906,,,310677,29,311690,298303,29,110029,315910,312702,316547,29,315910,Sternberg,31,43574,36,yes,1024
86,86,1204,1204,black,no,experiment,legacy,legacy,legacy,0,uniform,1,left,36,36,36,36,0,0,0,36,36,0,0,36,36,36,0,0,36,36,0,Mon Sep 27 2021 15:23:10 GMT+0200 (Central European Summer Time),The main experiment item,yes,/Users/ethan/Documents/GitHub/OpenSesame/Sternberg/experiment_files,no,mono,no,18,no,white,no,no,768,legacy,legacy,6 3 1 7 9 8,osweb,1.3.8,0,n,left,,,right,space,left,983,,,31505,53694,983,2,legacy,1632749078104,6,1024,2,48000,-16,experiment,1,odd,4,319775,,,316548,29,317559,298303,29,110029,321778,318571,322765,29,321778,Sternberg,32,44557,37,yes,1024
87,87,1197,1197,black,no,experiment,legacy,legacy,legacy,0,uniform,1,right,37,37,37,37,0,0,0,37,37,0,0,37,37,37,0,0,37,37,0,Mon Sep 27 2021 15:23:10 GMT+0200 (Central European Summer Time),The main experiment item,yes,/Users/ethan/Documents/GitHub/OpenSesame/Sternberg/experiment_files,no,mono,no,18,no,white,no,no,768,legacy,legacy,5 2 6,osweb,1.3.8,2,y,right,,,right,space,right,939,,,31505,53694,939,2,legacy,1632749078104,3,1024,2,48000,-16,experiment,1,odd,2,325992,,,322765,29,323778,298303,29,110029,327997,324789,328951,29,327997,Sternberg,33,45496,38,yes,1024
87,87,1194,1194,black,no,experiment,legacy,legacy,legacy,0,uniform,1,left,38,38,38,38,0,0,0,38,38,0,0,38,38,38,0,0,38,38,0,Mon Sep 27 2021 15:23:10 GMT+0200 (Central European Summer Time),The main experiment item,yes,/Users/ethan/Documents/GitHub/OpenSesame/Sternberg/experiment_files,no,mono,no,18,no,white,no,no,768,legacy,legacy,8 2 1 4 5 9,osweb,1.3.8,0,n,left,,,right,space,left,1062,,,31505,53694,1062,2,legacy,1632749078104,6,1024,2,48000,-16,experiment,1,odd,7,332177,,,328951,29,329960,298303,29,110029,334181,330973,335252,29,334181,Sternberg,34,46558,39,yes,1024
88,88,1187,1187,black,no,experiment,legacy,legacy,legacy,0,uniform,1,right,39,39,39,39,0,0,0,39,39,0,0,39,39,39,0,0,39,39,0,Mon Sep 27 2021 15:23:10 GMT+0200 (Central European Summer Time),The main experiment item,yes,/Users/ethan/Documents/GitHub/OpenSesame/Sternberg/experiment_files,no,mono,no,18,no,white,no,no,768,legacy,legacy,5 2 9 6 1 7,osweb,1.3.8,3,y,right,,,right,space,right,916,,,31505,53694,916,2,legacy,1632749078104,6,1024,2,48000,-16,experiment,1,odd,9,338480,,,335253,29,336263,298303,29,110029,340484,337277,341404,29,340483,Sternberg,35,47474,40,yes,1024
88,88,1178,1178,black,no,experiment,legacy,legacy,legacy,0,uniform,1,right,40,40,40,40,0,0,0,40,40,0,0,40,40,40,0,0,40,40,0,Mon Sep 27 2021 15:23:10 GMT+0200 (Central European Summer Time),The main experiment item,yes,/Users/ethan/Documents/GitHub/OpenSesame/Sternberg/experiment_files,no,mono,no,18,no,white,no,no,768,legacy,legacy,6 7 8 5,osweb,1.3.8,3,y,right,,,right,space,right,831,,,31505,53694,831,2,legacy,1632749078104,4,1024,2,48000,-16,experiment,1,odd,8,344632,,,341406,29,342417,298303,29,110029,346637,343428,347473,29,346636,Sternberg,36,48305,41,yes,1024
88,88,1168,1168,black,no,experiment,legacy,legacy,legacy,0,uniform,1,right,41,41,41,41,0,0,0,41,41,0,0,41,41,41,0,0,41,41,0,Mon Sep 27 2021 15:23:10 GMT+0200 (Central European Summer Time),The main experiment item,yes,/Users/ethan/Documents/GitHub/OpenSesame/Sternberg/experiment_files,no,mono,no,18,no,white,no,no,768,legacy,legacy,8 1 6,osweb,1.3.8,3,y,right,,,right,space,right,769,,,31505,53694,769,2,legacy,1632749078104,3,1024,2,48000,-16,experiment,1,odd,6,350693,,,347473,29,348485,298303,29,110029,352698,349489,353467,29,352698,Sternberg,37,49074,42,yes,1024
88,88,1159,1159,black,no,experiment,legacy,legacy,legacy,0,uniform,1,right,42,42,42,42,0,0,0,42,42,0,0,42,42,42,0,0,42,42,0,Mon Sep 27 2021 15:23:10 GMT+0200 (Central European Summer Time),The main experiment item,yes,/Users/ethan/Documents/GitHub/OpenSesame/Sternberg/experiment_files,no,mono,no,18,no,white,no,no,768,legacy,legacy,4,osweb,1.3.8,1,y,right,,,right,space,right,776,,,31505,53694,776,2,legacy,1632749078104,1,1024,2,48000,-16,experiment,1,odd,4,356696,,,353468,29,354480,298303,29,110029,358701,355493,359487,29,358701,Sternberg,38,49850,43,yes,1024
89,89,1162,1162,black,no,experiment,legacy,legacy,legacy,0,uniform,1,left,43,43,43,43,0,0,0,43,43,0,0,43,43,43,0,0,43,43,0,Mon Sep 27 2021 15:23:10 GMT+0200 (Central European Summer Time),The main experiment item,yes,/Users/ethan/Documents/GitHub/OpenSesame/Sternberg/experiment_files,no,mono,no,18,no,white,no,no,768,legacy,legacy,8 4 3 5,osweb,1.3.8,0,n,left,,,right,space,left,1294,,,31505,53694,1294,2,legacy,1632749078104,4,1024,2,48000,-16,experiment,1,odd,6,362715,,,359488,29,360500,298303,29,110029,364718,361511,366023,29,364718,Sternberg,39,51144,44,yes,1024
89,89,1168,1168,black,no,experiment,legacy,legacy,legacy,0,uniform,1,left,44,44,44,44,0,0,0,44,44,0,0,44,44,44,0,0,44,44,0,Mon Sep 27 2021 15:23:10 GMT+0200 (Central European Summer Time),The main experiment item,yes,/Users/ethan/Documents/GitHub/OpenSesame/Sternberg/experiment_files,no,mono,no,18,no,white,no,no,768,legacy,legacy,4 1,osweb,1.3.8,0,n,left,,,right,space,left,1430,,,31505,53694,1430,2,legacy,1632749078104,2,1024,2,48000,-16,experiment,1,odd,6,369251,,,366024,29,367035,298303,29,110029,371256,368049,372692,29,371256,Sternberg,40,52574,45,yes,1024
87,87,1186,1186,black,no,experiment,legacy,legacy,legacy,0,uniform,0,right,45,45,45,45,0,0,0,45,45,0,0,45,45,45,0,0,45,45,0,Mon Sep 27 2021 15:23:10 GMT+0200 (Central European Summer Time),The main experiment item,yes,/Users/ethan/Documents/GitHub/OpenSesame/Sternberg/experiment_files,no,mono,no,18,no,white,no,no,768,legacy,legacy,3 5 7 1,osweb,1.3.8,3,y,None,,,right,space,None,2004,,,31505,53694,2004,2,legacy,1632749078104,4,1024,2,48000,-16,experiment,1,odd,7,375921,,,372692,29,373704,298303,29,110029,377924,374717,379928,29,377924,Sternberg,40,54578,46,yes,1024
87,87,1199,1199,black,no,experiment,legacy,legacy,legacy,0,uniform,1,left,46,46,46,46,0,0,0,46,46,0,0,46,46,46,0,0,46,46,0,Mon Sep 27 2021 15:23:10 GMT+0200 (Central European Summer Time),The main experiment item,yes,/Users/ethan/Documents/GitHub/OpenSesame/Sternberg/experiment_files,no,mono,no,18,no,white,no,no,768,legacy,legacy,1,osweb,1.3.8,0,n,left,,,right,space,left,1783,,,31505,53694,1783,2,legacy,1632749078104,1,1024,2,48000,-16,experiment,1,odd,7,383156,,,372692,29,380941,379928,29,110029,385160,381952,386948,29,385160,Sternberg,41,56361,47,yes,1024
85,85,1203,1203,black,no,experiment,legacy,legacy,legacy,0,uniform,0,right,47,47,47,47,0,0,0,47,47,0,0,47,47,47,0,0,47,47,0,Mon Sep 27 2021 15:23:10 GMT+0200 (Central European Summer Time),The main experiment item,yes,/Users/ethan/Documents/GitHub/OpenSesame/Sternberg/experiment_files,no,mono,no,18,no,white,no,no,768,legacy,legacy,6 8 9 3 4 9,osweb,1.3.8,5,y,left,,,right,space,left,1372,,,31505,53694,1372,2,legacy,1632749078104,6,1024,2,48000,-16,experiment,1,odd,4,390175,,,386948,29,387959,379928,29,110029,392178,388971,393565,29,392178,Sternberg,41,57733,48,yes,1024
86,86,1201,1201,black,no,experiment,legacy,legacy,legacy,0,uniform,1,left,48,48,48,48,0,0,0,48,48,0,0,48,48,48,0,0,48,48,0,Mon Sep 27 2021 15:23:10 GMT+0200 (Central European Summer Time),The main experiment item,yes,/Users/ethan/Documents/GitHub/OpenSesame/Sternberg/experiment_files,no,mono,no,18,no,white,no,no,768,legacy,legacy,4 2 7 6 1 3,osweb,1.3.8,0,n,left,,,right,space,left,1102,,,31505,53694,1102,2,legacy,1632749078104,6,1024,2,48000,-16,experiment,1,odd,8,396795,,,386948,29,394579,393566,29,110029,398797,395591,399901,29,398797,Sternberg,42,58835,49,yes,1024
86,86,1195,1195,black,no,experiment,legacy,legacy,legacy,0,uniform,1,left,49,49,49,49,0,0,0,49,49,0,0,49,49,49,0,0,49,49,0,Mon Sep 27 2021 15:23:10 GMT+0200 (Central European Summer Time),The main experiment item,yes,/Users/ethan/Documents/GitHub/OpenSesame/Sternberg/experiment_files,no,mono,no,18,no,white,no,no,768,legacy,legacy,1 4 3 6 5,osweb,1.3.8,0,n,left,,,right,space,left,911,,,31505,53694,911,2,legacy,1632749078104,5,1024,2,48000,-16,experiment,1,odd,8,403129,,,399902,29,400913,393566,29,110029,405134,401925,406054,29,405134,Sternberg,43,59746,50,yes,1024
86,86,1188,1188,black,no,experiment,legacy,legacy,legacy,0,uniform,1,right,50,50,50,50,0,0,0,50,50,0,0,50,50,50,0,0,50,50,0,Mon Sep 27 2021 15:23:10 GMT+0200 (Central European Summer Time),The main experiment item,yes,/Users/ethan/Documents/GitHub/OpenSesame/Sternberg/experiment_files,no,mono,no,18,no,white,no,no,768,legacy,legacy,4 3 2 5 8,osweb,1.3.8,2,y,right,,,right,space,right,856,,,31505,53694,856,2,legacy,1632749078104,5,1024,2,48000,-16,experiment,1,odd,3,409281,,,406055,29,407065,393566,29,110029,411288,408077,412151,29,411288,Sternberg,44,60602,51,yes,1024
87,87,1185,1185,black,no,experiment,legacy,legacy,legacy,0,uniform,1,right,51,51,51,51,0,0,0,51,51,0,0,51,51,51,0,0,51,51,0,Mon Sep 27 2021 15:23:10 GMT+0200 (Central European Summer Time),The main experiment item,yes,/Users/ethan/Documents/GitHub/OpenSesame/Sternberg/experiment_files,no,mono,no,18,no,white,no,no,768,legacy,legacy,8 5 4 7 3 1,osweb,1.3.8,2,y,right,,,right,space,right,1023,,,31505,53694,1023,2,legacy,1632749078104,6,1024,2,48000,-16,experiment,1,odd,5,415379,,,412152,29,413163,393566,29,110029,417384,414176,418419,29,417384,Sternberg,45,61625,52,yes,1024
87,87,1181,1181,black,no,experiment,legacy,legacy,legacy,0,uniform,1,right,52,52,52,52,0,0,0,52,52,0,0,52,52,52,0,0,52,52,0,Mon Sep 27 2021 15:23:10 GMT+0200 (Central European Summer Time),The main experiment item,yes,/Users/ethan/Documents/GitHub/OpenSesame/Sternberg/experiment_files,no,mono,no,18,no,white,no,no,768,legacy,legacy,9 3 8 2 1 4,osweb,1.3.8,3,y,right,,,right,space,right,986,,,31505,53694,986,2,legacy,1632749078104,6,1024,2,48000,-16,experiment,1,odd,8,421649,,,418419,29,419433,393566,29,110029,423653,420446,424656,29,423652,Sternberg,46,62611,53,yes,1024
87,87,1175,1175,black,no,experiment,legacy,legacy,legacy,0,uniform,1,left,53,53,53,53,0,0,0,53,53,0,0,53,53,53,0,0,53,53,0,Mon Sep 27 2021 15:23:10 GMT+0200 (Central European Summer Time),The main experiment item,yes,/Users/ethan/Documents/GitHub/OpenSesame/Sternberg/experiment_files,no,mono,no,18,no,white,no,no,768,legacy,legacy,2 8 6 3 1,osweb,1.3.8,0,n,left,,,right,space,left,858,,,31505,53694,858,2,legacy,1632749078104,5,1024,2,48000,-16,experiment,1,odd,7,427883,,,424657,29,425667,393566,29,110029,429888,426680,430757,29,429888,Sternberg,47,63469,54,yes,1024
87,87,1170,1170,black,no,experiment,legacy,legacy,legacy,0,uniform,1,left,54,54,54,54,0,0,0,54,54,0,0,54,54,54,0,0,54,54,0,Mon Sep 27 2021 15:23:10 GMT+0200 (Central European Summer Time),The main experiment item,yes,/Users/ethan/Documents/GitHub/OpenSesame/Sternberg/experiment_files,no,mono,no,18,no,white,no,no,768,legacy,legacy,6 2 9 3 8 4,osweb,1.3.8,0,n,left,,,right,space,left,890,,,31505,53694,890,2,legacy,1632749078104,6,1024,2,48000,-16,experiment,1,odd,1,433987,,,430758,29,431770,393566,29,110029,435991,432784,436894,29,435991,Sternberg,48,64359,55,yes,1024
88,88,1162,1162,black,no,experiment,legacy,legacy,legacy,0,uniform,1,left,55,55,55,55,0,0,0,55,55,0,0,55,55,55,0,0,55,55,0,Mon Sep 27 2021 15:23:10 GMT+0200 (Central European Summer Time),The main experiment item,yes,/Users/ethan/Documents/GitHub/OpenSesame/Sternberg/experiment_files,no,mono,no,18,no,white,no,no,768,legacy,legacy,4 2 6 9,osweb,1.3.8,0,n,left,left,,right,space,left,732,15155,,31505,53694,732,2,legacy,1632749078104,4,1024,2,48000,-16,experiment,1,odd,7,455287,437899,,436894,29,453070,393566,29,110029,457291,454083,458028,29,457291,Sternberg,49,65091,56,yes,1024
88,88,1154,1154,black,no,experiment,legacy,legacy,legacy,0,uniform,1,left,56,56,56,56,0,0,0,56,56,0,0,56,56,56,0,0,56,56,0,Mon Sep 27 2021 15:23:10 GMT+0200 (Central European Summer Time),The main experiment item,yes,/Users/ethan/Documents/GitHub/OpenSesame/Sternberg/experiment_files,no,mono,no,18,no,white,no,no,768,legacy,legacy,6 8 4,osweb,1.3.8,0,n,left,left,,right,space,left,697,15155,,31505,53694,697,2,legacy,1632749078104,3,1024,2,48000,-16,experiment,1,odd,1,461255,437899,,458029,29,459039,393566,29,110029,463260,460051,463962,29,463259,Sternberg,50,65788,57,yes,1024
86,86,1159,1159,black,no,experiment,legacy,legacy,legacy,0,uniform,0,right,57,57,57,57,0,0,0,57,57,0,0,57,57,57,0,0,57,57,0,Mon Sep 27 2021 15:23:10 GMT+0200 (Central European Summer Time),The main experiment item,yes,/Users/ethan/Documents/GitHub/OpenSesame/Sternberg/experiment_files,no,mono,no,18,no,white,no,no,768,legacy,legacy,3 2 1 4 7,osweb,1.3.8,2,y,left,left,,right,space,left,1420,15155,,31505,53694,1420,2,legacy,1632749078104,5,1024,2,48000,-16,experiment,1,odd,2,467191,437899,,463963,29,464975,393566,29,110029,469194,465987,470621,29,469194,Sternberg,50,67208,58,yes,1024
86,86,1155,1155,black,no,experiment,legacy,legacy,legacy,0,uniform,1,left,58,58,58,58,0,0,0,58,58,0,0,58,58,58,0,0,58,58,0,Mon Sep 27 2021 15:23:10 GMT+0200 (Central European Summer Time),The main experiment item,yes,/Users/ethan/Documents/GitHub/OpenSesame/Sternberg/experiment_files,no,mono,no,18,no,white,no,no,768,legacy,legacy,5,osweb,1.3.8,0,n,left,left,,right,space,left,918,15155,,31505,53694,918,2,legacy,1632749078104,1,1024,2,48000,-16,experiment,1,odd,8,473851,437899,,463963,29,471633,470621,29,110029,475856,472648,476775,29,475856,Sternberg,51,68126,59,yes,1024
87,87,1151,1151,black,no,experiment,legacy,legacy,legacy,0,uniform,1,right,59,59,59,59,0,0,0,59,59,0,0,59,59,59,0,0,59,59,0,Mon Sep 27 2021 15:23:10 GMT+0200 (Central European Summer Time),The main experiment item,yes,/Users/ethan/Documents/GitHub/OpenSesame/Sternberg/experiment_files,no,mono,no,18,no,white,no,no,768,legacy,legacy,7 2 3,osweb,1.3.8,3,y,right,left,,right,space,right,905,15155,,31505,53694,905,2,legacy,1632749078104,3,1024,2,48000,-16,experiment,1,odd,3,480004,437899,,476775,29,477789,470621,29,110029,482007,478800,482927,29,482007,Sternberg,52,69031,60,yes,1024
87,87,1146,1146,black,no,experiment,legacy,legacy,legacy,0,uniform,1,right,60,60,60,60,0,0,0,60,60,0,0,60,60,60,0,0,60,60,0,Mon Sep 27 2021 15:23:10 GMT+0200 (Central European Summer Time),The main experiment item,yes,/Users/ethan/Documents/GitHub/OpenSesame/Sternberg/experiment_files,no,mono,no,18,no,white,no,no,768,legacy,legacy,7 6,osweb,1.3.8,2,y,right,left,,right,space,right,889,15155,,31505,53694,889,2,legacy,1632749078104,2,1024,2,48000,-16,experiment,1,odd,6,486155,437899,,482928,29,483940,470621,29,110029,488159,484952,489061,29,488159,Sternberg,53,69920,61,yes,1024
87,87,1151,1151,black,no,experiment,legacy,legacy,legacy,0,uniform,1,left,61,61,61,61,0,0,0,61,61,0,0,61,61,61,0,0,61,61,0,Mon Sep 27 2021 15:23:10 GMT+0200 (Central European Summer Time),The main experiment item,yes,/Users/ethan/Documents/GitHub/OpenSesame/Sternberg/experiment_files,no,mono,no,18,no,white,no,no,768,legacy,legacy,7 8 6 1,osweb,1.3.8,0,n,left,left,,right,space,left,1424,15155,,31505,53694,1424,2,legacy,1632749078104,4,1024,2,48000,-16,experiment,1,odd,3,492291,437899,,489062,29,490074,470621,29,110029,494294,491087,495731,29,494294,Sternberg,54,71344,62,yes,1024
87,87,1148,1148,black,no,experiment,legacy,legacy,legacy,0,uniform,1,right,62,62,62,62,0,0,0,62,62,0,0,62,62,62,0,0,62,62,0,Mon Sep 27 2021 15:23:10 GMT+0200 (Central European Summer Time),The main experiment item,yes,/Users/ethan/Documents/GitHub/OpenSesame/Sternberg/experiment_files,no,mono,no,18,no,white,no,no,768,legacy,legacy,2 3 7 4,osweb,1.3.8,1,y,right,left,,right,space,right,973,15155,,31505,53694,973,2,legacy,1632749078104,4,1024,2,48000,-16,experiment,1,odd,2,498960,437899,,495732,29,496746,470621,29,110029,500963,497757,501949,29,500963,Sternberg,55,72317,63,yes,1024
88,88,1149,1149,black,no,experiment,legacy,legacy,legacy,0,uniform,1,right,63,63,63,63,0,0,0,63,63,0,0,63,63,63,0,0,63,63,0,Mon Sep 27 2021 15:23:10 GMT+0200 (Central European Summer Time),The main experiment item,yes,/Users/ethan/Documents/GitHub/OpenSesame/Sternberg/experiment_files,no,mono,no,18,no,white,no,no,768,legacy,legacy,9 1 6 7 8,osweb,1.3.8,1,y,right,left,,right,space,right,1188,15155,,31505,53694,1188,2,legacy,1632749078104,5,1024,2,48000,-16,experiment,1,odd,9,505178,437899,,501950,29,502963,470621,29,110029,507182,503975,508385,29,507182,Sternberg,56,73505,64,yes,1024
88,88,1139,1139,black,no,experiment,legacy,legacy,legacy,0,uniform,1,right,64,64,64,64,0,0,0,64,64,0,0,64,64,64,0,0,64,64,0,Mon Sep 27 2021 15:23:10 GMT+0200 (Central European Summer Time),The main experiment item,yes,/Users/ethan/Documents/GitHub/OpenSesame/Sternberg/experiment_files,no,mono,no,18,no,white,no,no,768,legacy,legacy,3 4,osweb,1.3.8,1,y,right,left,,right,space,right,544,15155,,31505,53694,544,2,legacy,1632749078104,2,1024,2,48000,-16,experiment,1,odd,3,511613,437899,,508386,29,509401,470621,29,110029,513619,510410,514172,29,513619,Sternberg,57,74049,65,yes,1024
86,86,1140,1140,black,no,experiment,legacy,legacy,legacy,0,uniform,0,left,65,65,65,65,0,0,0,65,65,0,0,65,65,65,0,0,65,65,0,Mon Sep 27 2021 15:23:10 GMT+0200 (Central European Summer Time),The main experiment item,yes,/Users/ethan/Documents/GitHub/OpenSesame/Sternberg/experiment_files,no,mono,no,18,no,white,no,no,768,legacy,legacy,8 5 4 2 9 6,osweb,1.3.8,0,n,right,left,,right,space,right,1207,15155,,31505,53694,1207,2,legacy,1632749078104,6,1024,2,48000,-16,experiment,1,odd,3,517400,437899,,514173,29,515184,470621,29,110029,519403,516195,520625,29,519403,Sternberg,57,75256,66,yes,1024
87,87,1139,1139,black,no,experiment,legacy,legacy,legacy,0,uniform,1,right,66,66,66,66,0,0,0,66,66,0,0,66,66,66,0,0,66,66,0,Mon Sep 27 2021 15:23:10 GMT+0200 (Central European Summer Time),The main experiment item,yes,/Users/ethan/Documents/GitHub/OpenSesame/Sternberg/experiment_files,no,mono,no,18,no,white,no,no,768,legacy,legacy,7 8 6 3 1,osweb,1.3.8,5,y,right,left,,right,space,right,1032,15155,,31505,53694,1032,2,legacy,1632749078104,5,1024,2,48000,-16,experiment,1,odd,1,523852,437899,,514173,29,521639,520626,29,110029,525857,522649,526893,29,525857,Sternberg,58,76288,67,yes,1024
87,87,1133,1133,black,no,experiment,legacy,legacy,legacy,0,uniform,1,right,67,67,67,67,0,0,0,67,67,0,0,67,67,67,0,0,67,67,0,Mon Sep 27 2021 15:23:10 GMT+0200 (Central European Summer Time),The main experiment item,yes,/Users/ethan/Documents/GitHub/OpenSesame/Sternberg/experiment_files,no,mono,no,18,no,white,no,no,768,legacy,legacy,2 3,osweb,1.3.8,1,y,right,left,,right,space,right,752,15155,,31505,53694,752,2,legacy,1632749078104,2,1024,2,48000,-16,experiment,1,odd,2,530130,437899,,526894,29,527906,520626,29,110029,532139,528918,532894,29,532139,Sternberg,59,77040,68,yes,1024
87,87,1129,1129,black,no,experiment,legacy,legacy,legacy,0,uniform,1,right,68,68,68,68,0,0,0,68,68,0,0,68,68,68,0,0,68,68,0,Mon Sep 27 2021 15:23:10 GMT+0200 (Central European Summer Time),The main experiment item,yes,/Users/ethan/Documents/GitHub/OpenSesame/Sternberg/experiment_files,no,mono,no,18,no,white,no,no,768,legacy,legacy,3 5 9 6 2 4,osweb,1.3.8,1,y,right,left,,right,space,right,867,15155,,31505,53694,867,2,legacy,1632749078104,6,1024,2,48000,-16,experiment,1,odd,3,536122,437899,,532895,29,533906,520626,29,110029,538125,534918,538995,29,538125,Sternberg,60,77907,69,yes,1024
87,87,1125,1125,black,no,experiment,legacy,legacy,legacy,0,uniform,1,right,69,69,69,69,0,0,0,69,69,0,0,69,69,69,0,0,69,69,0,Mon Sep 27 2021 15:23:10 GMT+0200 (Central European Summer Time),The main experiment item,yes,/Users/ethan/Documents/GitHub/OpenSesame/Sternberg/experiment_files,no,mono,no,18,no,white,no,no,768,legacy,legacy,3 4 9 6 2 9,osweb,1.3.8,5,y,right,left,,right,space,right,838,15155,,31505,53694,838,2,legacy,1632749078104,6,1024,2,48000,-16,experiment,1,odd,2,542225,437899,,538995,29,540007,520626,29,110029,544229,541019,545082,29,544229,Sternberg,61,78745,70,yes,1024
87,87,1120,1120,black,no,experiment,legacy,legacy,legacy,0,uniform,1,right,70,70,70,70,0,0,0,70,70,0,0,70,70,70,0,0,70,70,0,Mon Sep 27 2021 15:23:10 GMT+0200 (Central European Summer Time),The main experiment item,yes,/Users/ethan/Documents/GitHub/OpenSesame/Sternberg/experiment_files,no,mono,no,18,no,white,no,no,768,legacy,legacy,3 9 6 2,osweb,1.3.8,4,y,right,left,,right,space,right,803,15155,,31505,53694,803,2,legacy,1632749078104,4,1024,2,48000,-16,experiment,1,odd,2,548309,437899,,545083,29,546093,520626,29,110029,550314,547106,551134,29,550314,Sternberg,62,79548,71,yes,1024
88,88,1117,1117,black,no,experiment,legacy,legacy,legacy,0,uniform,1,left,71,71,71,71,0,0,0,71,71,0,0,71,71,71,0,0,71,71,0,Mon Sep 27 2021 15:23:10 GMT+0200 (Central European Summer Time),The main experiment item,yes,/Users/ethan/Documents/GitHub/OpenSesame/Sternberg/experiment_files,no,mono,no,18,no,white,no,no,768,legacy,legacy,5 7 3,osweb,1.3.8,0,n,left,left,,right,space,left,908,15155,,31505,53694,908,2,legacy,1632749078104,3,1024,2,48000,-16,experiment,1,odd,9,554366,437899,,551135,29,552148,520626,29,110029,556371,553162,557291,29,556371,Sternberg,63,80456,72,yes,1024
88,88,1123,1123,black,no,experiment,legacy,legacy,legacy,0,uniform,1,left,72,72,72,72,0,0,0,72,72,0,0,72,72,72,0,0,72,72,0,Mon Sep 27 2021 15:23:10 GMT+0200 (Central European Summer Time),The main experiment item,yes,/Users/ethan/Documents/GitHub/OpenSesame/Sternberg/experiment_files,no,mono,no,18,no,white,no,no,768,legacy,legacy,1 7 8 3 9,osweb,1.3.8,0,n,left,left,,right,space,left,1509,15155,,31505,53694,1509,2,legacy,1632749078104,5,1024,2,48000,-16,experiment,1,odd,2,560518,437899,,557291,29,558301,520626,29,110029,562522,559314,564042,29,562522,Sternberg,64,81965,73,yes,1024
88,88,1120,1120,black,no,experiment,legacy,legacy,legacy,0,uniform,1,right,73,73,73,73,0,0,0,73,73,0,0,73,73,73,0,0,73,73,0,Mon Sep 27 2021 15:23:10 GMT+0200 (Central European Summer Time),The main experiment item,yes,/Users/ethan/Documents/GitHub/OpenSesame/Sternberg/experiment_files,no,mono,no,18,no,white,no,no,768,legacy,legacy,6 5,osweb,1.3.8,2,y,right,left,,right,space,right,905,15155,,31505,53694,905,2,legacy,1632749078104,2,1024,2,48000,-16,experiment,1,odd,5,567272,437899,,564043,29,565056,520626,29,110029,569277,566068,570197,29,569277,Sternberg,65,82870,74,yes,1024
88,88,1117,1117,black,no,experiment,legacy,legacy,legacy,0,uniform,1,left,74,74,74,74,0,0,0,74,74,0,0,74,74,74,0,0,74,74,0,Mon Sep 27 2021 15:23:10 GMT+0200 (Central European Summer Time),The main experiment item,yes,/Users/ethan/Documents/GitHub/OpenSesame/Sternberg/experiment_files,no,mono,no,18,no,white,no,no,768,legacy,legacy,5 9 2 3,osweb,1.3.8,0,n,left,left,,right,space,left,881,15155,,31505,53694,881,2,legacy,1632749078104,4,1024,2,48000,-16,experiment,1,odd,8,573424,437899,,570197,29,571209,520626,29,110029,575430,572222,576316,29,575430,Sternberg,66,83751,75,yes,1024
88,88,1113,1113,black,no,experiment,legacy,legacy,legacy,0,uniform,1,right,75,75,75,75,0,0,0,75,75,0,0,75,75,75,0,0,75,75,0,Mon Sep 27 2021 15:23:10 GMT+0200 (Central European Summer Time),The main experiment item,yes,/Users/ethan/Documents/GitHub/OpenSesame/Sternberg/experiment_files,no,mono,no,18,no,white,no,no,768,legacy,legacy,7 4 2 6 3 5,osweb,1.3.8,6,y,right,left,,right,space,right,854,15155,,31505,53694,854,2,legacy,1632749078104,6,1024,2,48000,-16,experiment,1,odd,5,579545,437899,,576316,29,577327,520626,29,110029,581549,578341,582410,29,581549,Sternberg,67,84605,76,yes,1024
88,88,1108,1108,black,no,experiment,legacy,legacy,legacy,0,uniform,1,right,76,76,76,76,0,0,0,76,76,0,0,76,76,76,0,0,76,76,0,Mon Sep 27 2021 15:23:10 GMT+0200 (Central European Summer Time),The main experiment item,yes,/Users/ethan/Documents/GitHub/OpenSesame/Sternberg/experiment_files,no,mono,no,18,no,white,no,no,768,legacy,legacy,6 2,osweb,1.3.8,1,y,right,left,,right,space,right,708,15155,,31505,53694,708,2,legacy,1632749078104,2,1024,2,48000,-16,experiment,1,odd,6,585641,437899,,582411,29,583422,520626,29,110029,587645,584434,588364,29,587644,Sternberg,68,85313,77,yes,1024
88,88,1108,1108,black,no,experiment,legacy,legacy,legacy,0,uniform,1,right,77,77,77,77,0,0,0,77,77,0,0,77,77,77,0,0,77,77,0,Mon Sep 27 2021 15:23:10 GMT+0200 (Central European Summer Time),The main experiment item,yes,/Users/ethan/Documents/GitHub/OpenSesame/Sternberg/experiment_files,no,mono,no,18,no,white,no,no,768,legacy,legacy,7 1 3,osweb,1.3.8,2,y,right,left,,right,space,right,1073,15155,,31505,53694,1073,2,legacy,1632749078104,3,1024,2,48000,-16,experiment,1,odd,1,591601,437899,,588365,29,589382,520626,29,110029,593609,590397,594697,29,593609,Sternberg,69,86386,78,yes,1024
89,89,1105,1105,black,no,experiment,legacy,legacy,legacy,0,uniform,1,right,78,78,78,78,0,0,0,78,78,0,0,78,78,78,0,0,78,78,0,Mon Sep 27 2021 15:23:10 GMT+0200 (Central European Summer Time),The main experiment item,yes,/Users/ethan/Documents/GitHub/OpenSesame/Sternberg/experiment_files,no,mono,no,18,no,white,no,no,768,legacy,legacy,6 9 3 1,osweb,1.3.8,4,y,right,left,,right,space,right,932,15155,,31505,53694,932,2,legacy,1632749078104,4,1024,2,48000,-16,experiment,1,odd,1,597932,437899,,594698,29,595715,520626,29,110029,599936,596728,600871,29,599936,Sternberg,70,87318,79,yes,1024
89,89,1100,1100,black,no,experiment,legacy,legacy,legacy,0,uniform,1,right,79,79,79,79,0,0,0,79,79,0,0,79,79,79,0,0,79,79,0,Mon Sep 27 2021 15:23:10 GMT+0200 (Central European Summer Time),The main experiment item,yes,/Users/ethan/Documents/GitHub/OpenSesame/Sternberg/experiment_files,no,mono,no,18,no,white,no,no,768,legacy,legacy,8,osweb,1.3.8,1,y,right,left,,right,space,right,651,15155,,31505,53694,651,2,legacy,1632749078104,1,1024,2,48000,-16,experiment,1,odd,8,604101,437899,,600873,29,601884,520626,29,110029,606105,602897,606758,29,606105,Sternberg,71,87969,80,yes,1024
89,89,1097,1097,black,no,experiment,legacy,legacy,legacy,0,uniform,1,left,80,80,80,80,0,0,0,80,80,0,0,80,80,80,0,0,80,80,0,Mon Sep 27 2021 15:23:10 GMT+0200 (Central European Summer Time),The main experiment item,yes,/Users/ethan/Documents/GitHub/OpenSesame/Sternberg/experiment_files,no,mono,no,18,no,white,no,no,768,legacy,legacy,2 7 5,osweb,1.3.8,0,n,left,left,,right,space,left,857,15155,,31505,53694,857,2,legacy,1632749078104,3,1024,2,48000,-16,experiment,1,odd,8,609988,437899,,606758,29,607770,520626,29,110029,611992,608783,612862,29,611991,Sternberg,72,88826,81,yes,1024
89,89,1093,1093,black,no,experiment,legacy,legacy,legacy,0,uniform,1,right,81,81,81,81,0,0,0,81,81,0,0,81,81,81,0,0,81,81,0,Mon Sep 27 2021 15:23:10 GMT+0200 (Central European Summer Time),The main experiment item,yes,/Users/ethan/Documents/GitHub/OpenSesame/Sternberg/experiment_files,no,mono,no,18,no,white,no,no,768,legacy,legacy,4 7 6 8 2 3,osweb,1.3.8,6,y,right,left,,right,space,right,830,15155,,31505,53694,830,2,legacy,1632749078104,6,1024,2,48000,-16,experiment,1,odd,3,616093,437899,,612863,29,613876,520626,29,110029,618097,614888,618934,29,618097,Sternberg,73,89656,82,yes,1024
89,89,1092,1092,black,no,experiment,legacy,legacy,legacy,0,uniform,1,left,82,82,82,82,0,0,0,82,82,0,0,82,82,82,0,0,82,82,0,Mon Sep 27 2021 15:23:10 GMT+0200 (Central European Summer Time),The main experiment item,yes,/Users/ethan/Documents/GitHub/OpenSesame/Sternberg/experiment_files,no,mono,no,18,no,white,no,no,768,legacy,legacy,4 8 1 2,osweb,1.3.8,0,n,left,left,,right,space,left,1006,15155,,31505,53694,1006,2,legacy,1632749078104,4,1024,2,48000,-16,experiment,1,odd,7,622164,437899,,618935,29,619948,520626,29,110029,624168,620960,625188,29,624168,Sternberg,74,90662,83,yes,1024
89,89,1090,1090,black,no,experiment,legacy,legacy,legacy,0,uniform,1,left,83,83,83,83,0,0,0,83,83,0,0,83,83,83,0,0,83,83,0,Mon Sep 27 2021 15:23:10 GMT+0200 (Central European Summer Time),The main experiment item,yes,/Users/ethan/Documents/GitHub/OpenSesame/Sternberg/experiment_files,no,mono,no,18,no,white,no,no,768,legacy,legacy,6 9 4 5 3 2,osweb,1.3.8,0,n,left,left,,right,space,left,928,15155,,31505,53694,928,2,legacy,1632749078104,6,1024,2,48000,-16,experiment,1,odd,8,628419,437899,,625189,29,626200,520626,29,110029,630422,627215,631359,29,630422,Sternberg,75,91590,84,yes,1024
89,89,1087,1087,black,no,experiment,legacy,legacy,legacy,0,uniform,1,left,84,84,84,84,0,0,0,84,84,0,0,84,84,84,0,0,84,84,0,Mon Sep 27 2021 15:23:10 GMT+0200 (Central European Summer Time),The main experiment item,yes,/Users/ethan/Documents/GitHub/OpenSesame/Sternberg/experiment_files,no,mono,no,18,no,white,no,no,768,legacy,legacy,2 8 7 9 5 3,osweb,1.3.8,0,n,left,left,,right,space,left,792,15155,,31505,53694,792,2,legacy,1632749078104,6,1024,2,48000,-16,experiment,1,odd,6,634588,437899,,631360,29,632371,520626,29,110029,636592,633384,637396,29,636592,Sternberg,76,92382,85,yes,1024
90,90,1083,1083,black,no,experiment,legacy,legacy,legacy,0,uniform,1,left,85,85,85,85,0,0,0,85,85,0,0,85,85,85,0,0,85,85,0,Mon Sep 27 2021 15:23:10 GMT+0200 (Central European Summer Time),The main experiment item,yes,/Users/ethan/Documents/GitHub/OpenSesame/Sternberg/experiment_files,no,mono,no,18,no,white,no,no,768,legacy,legacy,3 9 1,osweb,1.3.8,0,n,left,left,,right,space,left,747,15155,,31505,53694,747,2,legacy,1632749078104,3,1024,2,48000,-16,experiment,1,odd,7,640625,437899,,637397,29,638408,520626,29,110029,642629,639422,643383,29,642629,Sternberg,77,93129,86,yes,1024
90,90,1080,1080,black,no,experiment,legacy,legacy,legacy,0,uniform,1,left,86,86,86,86,0,0,0,86,86,0,0,86,86,86,0,0,86,86,0,Mon Sep 27 2021 15:23:10 GMT+0200 (Central European Summer Time),The main experiment item,yes,/Users/ethan/Documents/GitHub/OpenSesame/Sternberg/experiment_files,no,mono,no,18,no,white,no,no,768,legacy,legacy,2 8 9 4 1,osweb,1.3.8,0,n,left,left,,right,space,left,841,15155,,31505,53694,841,2,legacy,1632749078104,5,1024,2,48000,-16,experiment,1,odd,5,646611,437899,,643384,29,644393,520626,29,110029,648616,645408,649459,29,648616,Sternberg,78,93970,87,yes,1024
90,90,1077,1077,black,no,experiment,legacy,legacy,legacy,0,uniform,1,left,87,87,87,87,0,0,0,87,87,0,0,87,87,87,0,0,87,87,0,Mon Sep 27 2021 15:23:10 GMT+0200 (Central European Summer Time),The main experiment item,yes,/Users/ethan/Documents/GitHub/OpenSesame/Sternberg/experiment_files,no,mono,no,18,no,white,no,no,768,legacy,legacy,1 8 7,osweb,1.3.8,0,n,left,left,,right,space,left,841,15155,,31505,53694,841,2,legacy,1632749078104,3,1024,2,48000,-16,experiment,1,odd,4,652698,437899,,649460,29,650475,520626,29,110029,654702,651486,655555,29,654701,Sternberg,79,94811,88,yes,1024
90,90,1077,1077,black,no,experiment,legacy,legacy,legacy,0,uniform,1,left,88,88,88,88,0,0,0,88,88,0,0,88,88,88,0,0,88,88,0,Mon Sep 27 2021 15:23:10 GMT+0200 (Central European Summer Time),The main experiment item,yes,/Users/ethan/Documents/GitHub/OpenSesame/Sternberg/experiment_files,no,mono,no,18,no,white,no,no,768,legacy,legacy,9 5 3 2 8 6,osweb,1.3.8,0,n,left,left,,right,space,left,1014,15155,,31505,53694,1014,2,legacy,1632749078104,6,1024,2,48000,-16,experiment,1,odd,7,658782,437899,,655555,29,656567,520626,29,110029,660787,657580,661806,29,660786,Sternberg,80,95825,89,yes,1024
90,90,1074,1074,black,no,experiment,legacy,legacy,legacy,0,uniform,1,left,89,89,89,89,0,0,0,89,89,0,0,89,89,89,0,0,89,89,0,Mon Sep 27 2021 15:23:10 GMT+0200 (Central European Summer Time),The main experiment item,yes,/Users/ethan/Documents/GitHub/OpenSesame/Sternberg/experiment_files,no,mono,no,18,no,white,no,no,768,legacy,legacy,7 6 4 8 1 2,osweb,1.3.8,0,n,left,left,,right,space,left,794,15155,,31505,53694,794,2,legacy,1632749078104,6,1024,2,48000,-16,experiment,1,odd,9,665034,437899,,661807,29,662819,520626,29,110029,667037,663831,667842,29,667037,Sternberg,81,96619,90,yes,1024
90,90,1072,1072,black,no,experiment,legacy,legacy,legacy,0,uniform,1,left,90,90,90,90,0,0,0,90,90,0,0,90,90,90,0,0,90,90,0,Mon Sep 27 2021 15:23:10 GMT+0200 (Central European Summer Time),The main experiment item,yes,/Users/ethan/Documents/GitHub/OpenSesame/Sternberg/experiment_files,no,mono,no,18,no,white,no,no,768,legacy,legacy,9 7 4 5 8,osweb,1.3.8,0,n,left,left,,right,space,left,901,15155,,31505,53694,901,2,legacy,1632749078104,5,1024,2,48000,-16,experiment,1,odd,6,671070,437899,,667843,29,668853,520626,29,110029,673073,669867,673977,29,673073,Sternberg,82,97520,91,yes,1024
90,90,1070,1070,black,no,experiment,legacy,legacy,legacy,0,uniform,1,right,91,91,91,91,0,0,0,91,91,0,0,91,91,91,0,0,91,91,0,Mon Sep 27 2021 15:23:10 GMT+0200 (Central European Summer Time),The main experiment item,yes,/Users/ethan/Documents/GitHub/OpenSesame/Sternberg/experiment_files,no,mono,no,18,no,white,no,no,768,legacy,legacy,9 6 2 4 1,osweb,1.3.8,4,y,right,left,,right,space,right,900,15155,,31505,53694,900,2,legacy,1632749078104,5,1024,2,48000,-16,experiment,1,odd,4,677205,437899,,673978,29,674989,520626,29,110029,679209,676002,680113,29,679209,Sternberg,83,98420,92,yes,1024
90,90,1071,1071,black,no,experiment,legacy,legacy,legacy,0,uniform,1,left,92,92,92,92,0,0,0,92,92,0,0,92,92,92,0,0,92,92,0,Mon Sep 27 2021 15:23:10 GMT+0200 (Central European Summer Time),The main experiment item,yes,/Users/ethan/Documents/GitHub/OpenSesame/Sternberg/experiment_files,no,mono,no,18,no,white,no,no,768,legacy,legacy,5 3 2 6 9 8,osweb,1.3.8,0,n,left,left,,right,space,left,1216,15155,,31505,53694,1216,2,legacy,1632749078104,6,1024,2,48000,-16,experiment,1,odd,4,683340,437899,,680114,29,681124,520626,29,110029,685345,682137,686564,29,685345,Sternberg,84,99636,93,yes,1024
90,90,1068,1068,black,no,experiment,legacy,legacy,legacy,0,uniform,1,left,93,93,93,93,0,0,0,93,93,0,0,93,93,93,0,0,93,93,0,Mon Sep 27 2021 15:23:10 GMT+0200 (Central European Summer Time),The main experiment item,yes,/Users/ethan/Documents/GitHub/OpenSesame/Sternberg/experiment_files,no,mono,no,18,no,white,no,no,768,legacy,legacy,7 1,osweb,1.3.8,0,n,left,left,,right,space,left,785,15155,,31505,53694,785,2,legacy,1632749078104,2,1024,2,48000,-16,experiment,1,odd,8,689793,437899,,686564,29,687576,520626,29,110029,691796,688588,692582,29,691796,Sternberg,85,100421,94,yes,1024
91,91,1070,1070,black,no,experiment,legacy,legacy,legacy,0,uniform,1,right,94,94,94,94,0,0,0,94,94,0,0,94,94,94,0,0,94,94,0,Mon Sep 27 2021 15:23:10 GMT+0200 (Central European Summer Time),The main experiment item,yes,/Users/ethan/Documents/GitHub/OpenSesame/Sternberg/experiment_files,no,mono,no,18,no,white,no,no,768,legacy,legacy,7 1 8 5 6 2,osweb,1.3.8,2,y,right,left,,right,space,right,1201,15155,,31505,53694,1201,2,legacy,1632749078104,6,1024,2,48000,-16,experiment,1,odd,1,695812,437899,,692583,29,693595,520626,29,110029,697815,694608,699019,29,697815,Sternberg,86,101622,95,yes,1024
91,91,1070,1070,black,no,experiment,legacy,legacy,legacy,0,uniform,1,right,95,95,95,95,0,0,0,95,95,0,0,95,95,95,0,0,95,95,0,Mon Sep 27 2021 15:23:10 GMT+0200 (Central European Summer Time),The main experiment item,yes,/Users/ethan/Documents/GitHub/OpenSesame/Sternberg/experiment_files,no,mono,no,18,no,white,no,no,768,legacy,legacy,2 4 6 9,osweb,1.3.8,3,y,right,left,,right,space,right,1067,15155,,31505,53694,1067,2,legacy,1632749078104,4,1024,2,48000,-16,experiment,1,odd,6,702247,437899,,699019,29,700030,520626,29,110029,704250,701043,705321,29,704250,Sternberg,87,102689,96,yes,1024
91,91,1066,1066,black,no,experiment,legacy,legacy,legacy,0,uniform,1,left,96,96,96,96,0,0,0,96,96,0,0,96,96,96,0,0,96,96,0,Mon Sep 27 2021 15:23:10 GMT+0200 (Central European Summer Time),The main experiment item,yes,/Users/ethan/Documents/GitHub/OpenSesame/Sternberg/experiment_files,no,mono,no,18,no,white,no,no,768,legacy,legacy,5 2,osweb,1.3.8,0,n,left,left,,right,space,left,726,15155,,31505,53694,726,2,legacy,1632749078104,2,1024,2,48000,-16,experiment,1,odd,7,708548,437899,,705322,29,706333,520626,29,110029,710562,707346,711299,29,710562,Sternberg,88,103415,97,yes,1024
91,91,1066,1066,black,no,experiment,legacy,legacy,legacy,0,uniform,1,left,97,97,97,97,0,0,0,97,97,0,0,97,97,97,0,0,97,97,0,Mon Sep 27 2021 15:23:10 GMT+0200 (Central European Summer Time),The main experiment item,yes,/Users/ethan/Documents/GitHub/OpenSesame/Sternberg/experiment_files,no,mono,no,18,no,white,no,no,768,legacy,legacy,6 7 5 9,osweb,1.3.8,0,n,left,left,left,right,space,left,1018,15155,15858,31505,53694,1018,2,legacy,1632749078104,4,1024,2,48000,-16,experiment,1,odd,2,730392,437899,712305,711299,29,728176,520626,29,110029,732398,729189,733434,29,732397,Sternberg,89,104433,98,yes,1024
91,91,1065,1065,black,no,experiment,legacy,legacy,legacy,0,uniform,1,right,98,98,98,98,0,0,0,98,98,0,0,98,98,98,0,0,98,98,0,Mon Sep 27 2021 15:23:10 GMT+0200 (Central European Summer Time),The main experiment item,yes,/Users/ethan/Documents/GitHub/OpenSesame/Sternberg/experiment_files,no,mono,no,18,no,white,no,no,768,legacy,legacy,5 7 8 2 3 8,osweb,1.3.8,5,y,right,left,left,right,space,right,1046,15155,15858,31505,53694,1046,2,legacy,1632749078104,6,1024,2,48000,-16,experiment,1,odd,3,736664,437899,712305,733434,29,734447,520626,29,110029,738668,735461,739721,29,738668,Sternberg,90,105479,99,yes,1024
91,91,1062,1062,black,no,experiment,legacy,legacy,legacy,0,uniform,1,right,99,99,99,99,0,0,0,99,99,0,0,99,99,99,0,0,99,99,0,Mon Sep 27 2021 15:23:10 GMT+0200 (Central European Summer Time),The main experiment item,yes,/Users/ethan/Documents/GitHub/OpenSesame/Sternberg/experiment_files,no,mono,no,18,no,white,no,no,768,legacy,legacy,7 8 4 6 9 5,osweb,1.3.8,4,y,right,left,left,right,space,right,689,15155,15858,31505,53694,689,2,legacy,1632749078104,6,1024,2,48000,-16,experiment,1,odd,6,742948,437899,712305,739722,29,740734,520626,29,110029,744953,741746,745657,29,744953,Sternberg,91,106168,100,yes,1024
91,91,1060,1060,black,no,experiment,legacy,legacy,legacy,0,uniform,1,left,100,100,100,100,0,0,0,100,100,0,0,100,100,100,0,0,100,100,0,Mon Sep 27 2021 15:23:10 GMT+0200 (Central European Summer Time),The main experiment item,yes,/Users/ethan/Documents/GitHub/OpenSesame/Sternberg/experiment_files,no,mono,no,18,no,white,no,no,768,legacy,legacy,1 7 5 2 9,osweb,1.3.8,0,n,left,left,left,right,space,left,866,15155,15858,31505,53694,866,2,legacy,1632749078104,5,1024,2,48000,-16,experiment,1,odd,3,748887,437899,712305,745658,29,746669,520626,29,110029,750889,747683,751759,29,750889,Sternberg,92,107034,101,yes,1024
91,91,1059,1059,black,no,experiment,legacy,legacy,legacy,0,uniform,1,right,101,101,101,101,0,0,0,101,101,0,0,101,101,101,0,0,101,101,0,Mon Sep 27 2021 15:23:10 GMT+0200 (Central European Summer Time),The main experiment item,yes,/Users/ethan/Documents/GitHub/OpenSesame/Sternberg/experiment_files,no,mono,no,18,no,white,no,no,768,legacy,legacy,4 9 7 8 5 3,osweb,1.3.8,4,y,right,left,left,right,space,right,989,15155,15858,31505,53694,989,2,legacy,1632749078104,6,1024,2,48000,-16,experiment,1,odd,8,754987,437899,712305,751760,29,752771,520626,29,110029,756991,753784,757994,29,756991,Sternberg,93,108023,102,yes,1024
91,91,1056,1056,black,no,experiment,legacy,legacy,legacy,0,uniform,1,right,102,102,102,102,0,0,0,102,102,0,0,102,102,102,0,0,102,102,0,Mon Sep 27 2021 15:23:10 GMT+0200 (Central European Summer Time),The main experiment item,yes,/Users/ethan/Documents/GitHub/OpenSesame/Sternberg/experiment_files,no,mono,no,18,no,white,no,no,768,legacy,legacy,4 1 8 7 5,osweb,1.3.8,3,y,right,left,left,right,space,right,763,15155,15858,31505,53694,763,2,legacy,1632749078104,5,1024,2,48000,-16,experiment,1,odd,8,761225,437899,712305,757995,29,759008,520626,29,110029,763229,760021,764000,29,763229,Sternberg,94,108786,103,yes,1024
91,91,1055,1055,black,no,experiment,legacy,legacy,legacy,0,uniform,1,right,103,103,103,103,0,0,0,103,103,0,0,103,103,103,0,0,103,103,0,Mon Sep 27 2021 15:23:10 GMT+0200 (Central European Summer Time),The main experiment item,yes,/Users/ethan/Documents/GitHub/OpenSesame/Sternberg/experiment_files,no,mono,no,18,no,white,no,no,768,legacy,legacy,4 6 2 5 1,osweb,1.3.8,5,y,right,left,left,right,space,right,920,15155,15858,31505,53694,920,2,legacy,1632749078104,5,1024,2,48000,-16,experiment,1,odd,1,767227,437899,712305,764001,29,765010,520626,29,110029,769231,766024,770168,29,769231,Sternberg,95,109706,104,yes,1024
90,90,1055,1055,black,no,experiment,legacy,legacy,legacy,0,uniform,0,left,104,104,104,104,0,0,0,104,104,0,0,104,104,104,0,0,104,104,0,Mon Sep 27 2021 15:23:10 GMT+0200 (Central European Summer Time),The main experiment item,yes,/Users/ethan/Documents/GitHub/OpenSesame/Sternberg/experiment_files,no,mono,no,18,no,white,no,no,768,legacy,legacy,7 4 2 8 1 9,osweb,1.3.8,0,n,right,left,left,right,space,right,1029,15155,15858,31505,53694,1029,2,legacy,1632749078104,6,1024,2,48000,-16,experiment,1,odd,5,773398,437899,712305,770169,29,771182,520626,29,110029,775402,772194,776438,29,775402,Sternberg,95,110735,105,yes,1024
91,91,1053,1053,black,no,experiment,legacy,legacy,legacy,0,uniform,1,right,105,105,105,105,0,0,0,105,105,0,0,105,105,105,0,0,105,105,0,Mon Sep 27 2021 15:23:10 GMT+0200 (Central European Summer Time),The main experiment item,yes,/Users/ethan/Documents/GitHub/OpenSesame/Sternberg/experiment_files,no,mono,no,18,no,white,no,no,768,legacy,legacy,8 5 3 7 4 6,osweb,1.3.8,6,y,right,left,left,right,space,right,929,15155,15858,31505,53694,929,2,legacy,1632749078104,6,1024,2,48000,-16,experiment,1,odd,6,779668,437899,712305,770169,29,777450,776438,29,110029,781671,778464,782608,29,781671,Sternberg,96,111664,106,yes,1024
91,91,1057,1057,black,no,experiment,legacy,legacy,legacy,0,uniform,1,left,106,106,106,106,0,0,0,106,106,0,0,106,106,106,0,0,106,106,0,Mon Sep 27 2021 15:23:10 GMT+0200 (Central European Summer Time),The main experiment item,yes,/Users/ethan/Documents/GitHub/OpenSesame/Sternberg/experiment_files,no,mono,no,18,no,white,no,no,768,legacy,legacy,1 3 2 6 9,osweb,1.3.8,0,n,left,left,left,right,space,left,1392,15155,15858,31505,53694,1392,2,legacy,1632749078104,5,1024,2,48000,-16,experiment,1,odd,5,785836,437899,712305,782609,29,783623,776438,29,110029,787841,784631,789243,29,787841,Sternberg,97,113056,107,yes,1024
90,90,1058,1058,black,no,experiment,legacy,legacy,legacy,0,uniform,0,right,107,107,107,107,0,0,0,107,107,0,0,107,107,107,0,0,107,107,0,Mon Sep 27 2021 15:23:10 GMT+0200 (Central European Summer Time),The main experiment item,yes,/Users/ethan/Documents/GitHub/OpenSesame/Sternberg/experiment_files,no,mono,no,18,no,white,no,no,768,legacy,legacy,6 9 7 4 5 1,osweb,1.3.8,2,y,left,left,left,right,space,left,1162,15155,15858,31505,53694,1162,2,legacy,1632749078104,6,1024,2,48000,-16,experiment,1,odd,9,792473,437899,712305,789244,29,790258,776438,29,110029,794478,791270,795648,29,794478,Sternberg,97,114218,108,yes,1024
90,90,1056,1056,black,no,experiment,legacy,legacy,legacy,0,uniform,1,right,108,108,108,108,0,0,0,108,108,0,0,108,108,108,0,0,108,108,0,Mon Sep 27 2021 15:23:10 GMT+0200 (Central European Summer Time),The main experiment item,yes,/Users/ethan/Documents/GitHub/OpenSesame/Sternberg/experiment_files,no,mono,no,18,no,white,no,no,768,legacy,legacy,7,osweb,1.3.8,1,y,right,left,left,right,space,right,911,15155,15858,31505,53694,911,2,legacy,1632749078104,1,1024,2,48000,-16,experiment,1,odd,7,798876,437899,712305,789244,29,796658,795648,29,110029,800880,797673,801800,29,800880,Sternberg,98,115129,109,yes,1024
90,90,1057,1057,black,no,experiment,legacy,legacy,legacy,0,uniform,1,right,109,109,109,109,0,0,0,109,109,0,0,109,109,109,0,0,109,109,0,Mon Sep 27 2021 15:23:10 GMT+0200 (Central European Summer Time),The main experiment item,yes,/Users/ethan/Documents/GitHub/OpenSesame/Sternberg/experiment_files,no,mono,no,18,no,white,no,no,768,legacy,legacy,9 5 8 1,osweb,1.3.8,2,y,right,left,left,right,space,right,1093,15155,15858,31505,53694,1093,2,legacy,1632749078104,4,1024,2,48000,-16,experiment,1,odd,5,805029,437899,712305,801800,29,802811,795648,29,110029,807031,803824,808136,29,807031,Sternberg,99,116222,110,yes,1024
90,90,1055,1055,black,no,experiment,legacy,legacy,legacy,0,uniform,1,right,110,110,110,110,0,0,0,110,110,0,0,110,110,110,0,0,110,110,0,Mon Sep 27 2021 15:23:10 GMT+0200 (Central European Summer Time),The main experiment item,yes,/Users/ethan/Documents/GitHub/OpenSesame/Sternberg/experiment_files,no,mono,no,18,no,white,no,no,768,legacy,legacy,9 1 7 2,osweb,1.3.8,2,y,right,left,left,right,space,right,861,15155,15858,31505,53694,861,2,legacy,1632749078104,4,1024,2,48000,-16,experiment,1,odd,1,811372,437899,712305,808136,29,809155,795648,29,110029,813378,810168,814248,29,813378,Sternberg,100,117083,111,yes,1024
90,90,1053,1053,black,no,experiment,legacy,legacy,legacy,0,uniform,1,left,111,111,111,111,0,0,0,111,111,0,0,111,111,111,0,0,111,111,0,Mon Sep 27 2021 15:23:10 GMT+0200 (Central European Summer Time),The main experiment item,yes,/Users/ethan/Documents/GitHub/OpenSesame/Sternberg/experiment_files,no,mono,no,18,no,white,no,no,768,legacy,legacy,1 7 5 2,osweb,1.3.8,0,n,left,left,left,right,space,left,801,15155,15858,31505,53694,801,2,legacy,1632749078104,4,1024,2,48000,-16,experiment,1,odd,3,817477,437899,712305,814249,29,815259,795648,29,110029,819481,816271,820284,29,819481,Sternberg,101,117884,112,yes,1024
90,90,1050,1050,black,no,experiment,legacy,legacy,legacy,0,uniform,1,right,112,112,112,112,0,0,0,112,112,0,0,112,112,112,0,0,112,112,0,Mon Sep 27 2021 15:23:10 GMT+0200 (Central European Summer Time),The main experiment item,yes,/Users/ethan/Documents/GitHub/OpenSesame/Sternberg/experiment_files,no,mono,no,18,no,white,no,no,768,legacy,legacy,9 5 3 8 4,osweb,1.3.8,1,y,right,left,left,right,space,right,792,15155,15858,31505,53694,792,2,legacy,1632749078104,5,1024,2,48000,-16,experiment,1,odd,9,823501,437899,712305,820284,29,821296,795648,29,110029,825516,822299,826322,29,825516,Sternberg,102,118676,113,yes,1024
90,90,1048,1048,black,no,experiment,legacy,legacy,legacy,0,uniform,1,right,113,113,113,113,0,0,0,113,113,0,0,113,113,113,0,0,113,113,0,Mon Sep 27 2021 15:23:10 GMT+0200 (Central European Summer Time),The main experiment item,yes,/Users/ethan/Documents/GitHub/OpenSesame/Sternberg/experiment_files,no,mono,no,18,no,white,no,no,768,legacy,legacy,5 7 3 6 2,osweb,1.3.8,5,y,right,left,left,right,space,right,765,15155,15858,31505,53694,765,2,legacy,1632749078104,5,1024,2,48000,-16,experiment,1,odd,2,829559,437899,712305,826322,29,827335,795648,29,110029,831565,828346,832331,29,831565,Sternberg,103,119441,114,yes,1024
90,90,1046,1046,black,no,experiment,legacy,legacy,legacy,0,uniform,1,right,114,114,114,114,0,0,0,114,114,0,0,114,114,114,0,0,114,114,0,Mon Sep 27 2021 15:23:10 GMT+0200 (Central European Summer Time),The main experiment item,yes,/Users/ethan/Documents/GitHub/OpenSesame/Sternberg/experiment_files,no,mono,no,18,no,white,no,no,768,legacy,legacy,9 4 2,osweb,1.3.8,1,y,right,left,left,right,space,right,815,15155,15858,31505,53694,815,2,legacy,1632749078104,3,1024,2,48000,-16,experiment,1,odd,9,835569,437899,712305,832331,29,833344,795648,29,110029,837575,834356,838394,29,837575,Sternberg,104,120256,115,yes,1024
91,91,1043,1043,black,no,experiment,legacy,legacy,legacy,0,uniform,1,right,115,115,115,115,0,0,0,115,115,0,0,115,115,115,0,0,115,115,0,Mon Sep 27 2021 15:23:10 GMT+0200 (Central European Summer Time),The main experiment item,yes,/Users/ethan/Documents/GitHub/OpenSesame/Sternberg/experiment_files,no,mono,no,18,no,white,no,no,768,legacy,legacy,8 9 5 6 7,osweb,1.3.8,1,y,right,left,left,right,space,right,779,15155,15858,31505,53694,779,2,legacy,1632749078104,5,1024,2,48000,-16,experiment,1,odd,8,841622,437899,712305,838395,29,839406,795648,29,110029,843627,840419,844413,29,843627,Sternberg,105,121035,116,yes,1024
91,91,1043,1043,black,no,experiment,legacy,legacy,legacy,0,uniform,1,right,116,116,116,116,0,0,0,116,116,0,0,116,116,116,0,0,116,116,0,Mon Sep 27 2021 15:23:10 GMT+0200 (Central European Summer Time),The main experiment item,yes,/Users/ethan/Documents/GitHub/OpenSesame/Sternberg/experiment_files,no,mono,no,18,no,white,no,no,768,legacy,legacy,4 1 5,osweb,1.3.8,2,y,right,left,left,right,space,right,1032,15155,15858,31505,53694,1032,2,legacy,1632749078104,3,1024,2,48000,-16,experiment,1,odd,1,847643,437899,712305,844415,29,845425,795648,29,110029,849645,846437,850682,29,849645,Sternberg,106,122067,117,yes,1024
91,91,1046,1046,black,no,experiment,legacy,legacy,legacy,0,uniform,1,left,117,117,117,117,0,0,0,117,117,0,0,117,117,117,0,0,117,117,0,Mon Sep 27 2021 15:23:10 GMT+0200 (Central European Summer Time),The main experiment item,yes,/Users/ethan/Documents/GitHub/OpenSesame/Sternberg/experiment_files,no,mono,no,18,no,white,no,no,768,legacy,legacy,7 9 1 6,osweb,1.3.8,0,n,left,left,left,right,space,left,1342,15155,15858,31505,53694,1342,2,legacy,1632749078104,4,1024,2,48000,-16,experiment,1,odd,4,853910,437899,712305,850683,29,851694,795648,29,110029,855915,852707,857267,29,855915,Sternberg,107,123409,118,yes,1024
91,91,1046,1046,black,no,experiment,legacy,legacy,legacy,0,uniform,1,left,118,118,118,118,0,0,0,118,118,0,0,118,118,118,0,0,118,118,0,Mon Sep 27 2021 15:23:10 GMT+0200 (Central European Summer Time),The main experiment item,yes,/Users/ethan/Documents/GitHub/OpenSesame/Sternberg/experiment_files,no,mono,no,18,no,white,no,no,768,legacy,legacy,5 3 8 7 2 4,osweb,1.3.8,0,n,left,left,left,right,space,left,1044,15155,15858,31505,53694,1044,2,legacy,1632749078104,6,1024,2,48000,-16,experiment,1,odd,9,860497,437899,712305,857268,29,858280,795648,29,110029,862500,859292,863553,29,862500,Sternberg,108,124453,119,yes,1024
91,91,1043,1043,black,no,experiment,legacy,legacy,legacy,0,uniform,1,right,119,119,119,119,0,0,0,119,119,0,0,119,119,119,0,0,119,119,0,Mon Sep 27 2021 15:23:10 GMT+0200 (Central European Summer Time),The main experiment item,yes,/Users/ethan/Documents/GitHub/OpenSesame/Sternberg/experiment_files,no,mono,no,18,no,white,no,no,768,legacy,legacy,4 6 5 8,osweb,1.3.8,1,y,right,left,left,right,space,right,742,15155,15858,31505,53694,742,2,legacy,1632749078104,4,1024,2,48000,-16,experiment,1,odd,4,866783,437899,712305,863555,29,864565,795648,29,110029,868786,865579,869541,29,868786,Sternberg,109,125195,120,yes,1024
91,91,1041,1041,black,no,experiment,legacy,legacy,legacy,0,uniform,1,right,120,120,120,120,0,0,0,120,120,0,0,120,120,120,0,0,120,120,0,Mon Sep 27 2021 15:23:10 GMT+0200 (Central European Summer Time),The main experiment item,yes,/Users/ethan/Documents/GitHub/OpenSesame/Sternberg/experiment_files,no,mono,no,18,no,white,no,no,768,legacy,legacy,1 4 9 3 2 5,osweb,1.3.8,3,y,right,left,left,right,space,right,766,15155,15858,31505,53694,766,2,legacy,1632749078104,6,1024,2,48000,-16,experiment,1,odd,9,872770,437899,712305,869542,29,870553,795648,29,110029,874774,871567,875545,29,874774,Sternberg,110,125961,121,yes,1024
91,91,1042,1042,black,no,experiment,legacy,legacy,legacy,0,uniform,1,right,121,121,121,121,0,0,0,121,121,0,0,121,121,121,0,0,121,121,0,Mon Sep 27 2021 15:23:10 GMT+0200 (Central European Summer Time),The main experiment item,yes,/Users/ethan/Documents/GitHub/OpenSesame/Sternberg/experiment_files,no,mono,no,18,no,white,no,no,768,legacy,legacy,3 9 7 6 4,osweb,1.3.8,3,y,right,left,left,right,space,right,1130,15155,15858,31505,53694,1130,2,legacy,1632749078104,5,1024,2,48000,-16,experiment,1,odd,7,878773,437899,712305,875545,29,876556,795648,29,110029,880777,877569,881915,29,880777,Sternberg,111,127091,122,yes,1024
91,91,1042,1042,black,no,experiment,legacy,legacy,legacy,0,uniform,1,right,122,122,122,122,0,0,0,122,122,0,0,122,122,122,0,0,122,122,0,Mon Sep 27 2021 15:23:10 GMT+0200 (Central European Summer Time),The main experiment item,yes,/Users/ethan/Documents/GitHub/OpenSesame/Sternberg/experiment_files,no,mono,no,18,no,white,no,no,768,legacy,legacy,8 5 1 3 9,osweb,1.3.8,4,y,right,left,left,right,space,right,1042,15155,15858,31505,53694,1042,2,legacy,1632749078104,5,1024,2,48000,-16,experiment,1,odd,3,885142,437899,712305,881916,29,882926,795648,29,110029,887146,883939,888199,29,887146,Sternberg,112,128133,123,yes,1024
91,91,1040,1040,black,no,experiment,legacy,legacy,legacy,0,uniform,1,left,123,123,123,123,0,0,0,123,123,0,0,123,123,123,0,0,123,123,0,Mon Sep 27 2021 15:23:10 GMT+0200 (Central European Summer Time),The main experiment item,yes,/Users/ethan/Documents/GitHub/OpenSesame/Sternberg/experiment_files,no,mono,no,18,no,white,no,no,768,legacy,legacy,6 9 4 5 2,osweb,1.3.8,0,n,left,left,left,right,space,left,790,15155,15858,31505,53694,790,2,legacy,1632749078104,5,1024,2,48000,-16,experiment,1,odd,1,891429,437899,712305,888200,29,889213,795648,29,110029,893442,890225,894245,29,893442,Sternberg,113,128923,124,yes,1024
91,91,1037,1037,black,no,experiment,legacy,legacy,legacy,0,uniform,1,right,124,124,124,124,0,0,0,124,124,0,0,124,124,124,0,0,124,124,0,Mon Sep 27 2021 15:23:10 GMT+0200 (Central European Summer Time),The main experiment item,yes,/Users/ethan/Documents/GitHub/OpenSesame/Sternberg/experiment_files,no,mono,no,18,no,white,no,no,768,legacy,legacy,9 8 4,osweb,1.3.8,1,y,right,left,left,right,space,right,745,15155,15858,31505,53694,745,2,legacy,1632749078104,3,1024,2,48000,-16,experiment,1,odd,9,897473,437899,712305,894247,29,895258,795648,29,110029,899478,896270,900230,29,899478,Sternberg,114,129668,125,yes,1024
91,91,1037,1037,black,no,experiment,legacy,legacy,legacy,0,uniform,1,left,125,125,125,125,0,0,0,125,125,0,0,125,125,125,0,0,125,125,0,Mon Sep 27 2021 15:23:10 GMT+0200 (Central European Summer Time),The main experiment item,yes,/Users/ethan/Documents/GitHub/OpenSesame/Sternberg/experiment_files,no,mono,no,18,no,white,no,no,768,legacy,legacy,1 4 9 3,osweb,1.3.8,0,n,left,left,left,right,space,left,943,15155,15858,31505,53694,943,2,legacy,1632749078104,4,1024,2,48000,-16,experiment,1,odd,5,903459,437899,712305,900231,29,901251,795648,29,110029,905463,902255,906418,29,905463,Sternberg,115,130611,126,yes,1024
91,91,1036,1036,black,no,experiment,legacy,legacy,legacy,0,uniform,1,left,126,126,126,126,0,0,0,126,126,0,0,126,126,126,0,0,126,126,0,Mon Sep 27 2021 15:23:10 GMT+0200 (Central European Summer Time),The main experiment item,yes,/Users/ethan/Documents/GitHub/OpenSesame/Sternberg/experiment_files,no,mono,no,18,no,white,no,no,768,legacy,legacy,8 9,osweb,1.3.8,0,n,left,left,left,right,space,left,926,15155,15858,31505,53694,926,2,legacy,1632749078104,2,1024,2,48000,-16,experiment,1,odd,5,909645,437899,712305,906420,29,907428,795648,29,110029,911649,908440,912586,29,911649,Sternberg,116,131537,127,yes,1024
91,91,1033,1033,black,no,experiment,legacy,legacy,legacy,0,uniform,1,left,127,127,127,127,0,0,0,127,127,0,0,127,127,127,0,0,127,127,0,Mon Sep 27 2021 15:23:10 GMT+0200 (Central European Summer Time),The main experiment item,yes,/Users/ethan/Documents/GitHub/OpenSesame/Sternberg/experiment_files,no,mono,no,18,no,white,no,no,768,legacy,legacy,2 8 9,osweb,1.3.8,0,n,left,left,left,right,space,left,688,15155,15858,31505,53694,688,2,legacy,1632749078104,3,1024,2,48000,-16,experiment,1,odd,6,915814,437899,712305,912587,29,913598,795648,29,110029,917819,914612,918522,29,917819,Sternberg,117,132225,128,yes,1024
91,91,1031,1031,black,no,experiment,legacy,legacy,legacy,0,uniform,1,right,128,128,128,128,0,0,0,128,128,0,0,128,128,128,0,0,128,128,0,Mon Sep 27 2021 15:23:10 GMT+0200 (Central European Summer Time),The main experiment item,yes,/Users/ethan/Documents/GitHub/OpenSesame/Sternberg/experiment_files,no,mono,no,18,no,white,no,no,768,legacy,legacy,2 6 1 7 4,osweb,1.3.8,2,y,right,left,left,right,space,right,791,15155,15858,31505,53694,791,2,legacy,1632749078104,5,1024,2,48000,-16,experiment,1,odd,6,921753,437899,712305,918523,29,919535,795648,29,110029,923756,920548,924559,29,923755,Sternberg,118,133016,129,yes,1024
92,92,1030,1030,black,no,experiment,legacy,legacy,legacy,0,uniform,1,left,129,129,129,129,0,0,0,129,129,0,0,129,129,129,0,0,129,129,0,Mon Sep 27 2021 15:23:10 GMT+0200 (Central European Summer Time),The main experiment item,yes,/Users/ethan/Documents/GitHub/OpenSesame/Sternberg/experiment_files,no,mono,no,18,no,white,no,no,768,legacy,legacy,7 9,osweb,1.3.8,0,n,left,left,left,right,space,left,898,15155,15858,31505,53694,898,2,legacy,1632749078104,2,1024,2,48000,-16,experiment,1,odd,1,927787,437899,712305,924560,29,925571,795648,29,110029,929791,926584,930695,29,929791,Sternberg,119,133914,130,yes,1024
92,92,1028,1028,black,no,experiment,legacy,legacy,legacy,0,uniform,1,left,130,130,130,130,0,0,0,130,130,0,0,130,130,130,0,0,130,130,0,Mon Sep 27 2021 15:23:10 GMT+0200 (Central European Summer Time),The main experiment item,yes,/Users/ethan/Documents/GitHub/OpenSesame/Sternberg/experiment_files,no,mono,no,18,no,white,no,no,768,legacy,legacy,8 5 7 3 6,osweb,1.3.8,0,n,left,left,left,right,space,left,800,15155,15858,31505,53694,800,2,legacy,1632749078104,5,1024,2,48000,-16,experiment,1,odd,9,933921,437899,712305,930695,29,931707,795648,29,110029,935926,932718,936729,29,935926,Sternberg,120,134714,131,yes,1024
91,91,1028,1028,black,no,experiment,legacy,legacy,legacy,0,uniform,0,right,131,131,131,131,0,0,0,131,131,0,0,131,131,131,0,0,131,131,0,Mon Sep 27 2021 15:23:10 GMT+0200 (Central European Summer Time),The main experiment item,yes,/Users/ethan/Documents/GitHub/OpenSesame/Sternberg/experiment_files,no,mono,no,18,no,white,no,no,768,legacy,legacy,2 5 4 8 7,osweb,1.3.8,3,y,left,left,left,right,space,left,1030,15155,15858,31505,53694,1030,2,legacy,1632749078104,5,1024,2,48000,-16,experiment,1,odd,4,939957,437899,712305,936730,29,937741,795648,29,110029,941961,938755,942998,29,941961,Sternberg,120,135744,132,yes,1024
91,91,1027,1027,black,no,experiment,legacy,legacy,legacy,0,uniform,1,left,132,132,132,132,0,0,0,132,132,0,0,132,132,132,0,0,132,132,0,Mon Sep 27 2021 15:23:10 GMT+0200 (Central European Summer Time),The main experiment item,yes,/Users/ethan/Documents/GitHub/OpenSesame/Sternberg/experiment_files,no,mono,no,18,no,white,no,no,768,legacy,legacy,7 1 5 6 3,osweb,1.3.8,0,n,left,left,left,right,space,left,797,15155,15858,31505,53694,797,2,legacy,1632749078104,5,1024,2,48000,-16,experiment,1,odd,8,946227,437899,712305,936730,29,944010,943000,29,110029,948231,945022,949034,29,948231,Sternberg,121,136541,133,yes,1024
91,91,1025,1025,black,no,experiment,legacy,legacy,legacy,0,uniform,1,left,133,133,133,133,0,0,0,133,133,0,0,133,133,133,0,0,133,133,0,Mon Sep 27 2021 15:23:10 GMT+0200 (Central European Summer Time),The main experiment item,yes,/Users/ethan/Documents/GitHub/OpenSesame/Sternberg/experiment_files,no,mono,no,18,no,white,no,no,768,legacy,legacy,7 3 2 8,osweb,1.3.8,0,n,left,left,left,right,space,left,816,15155,15858,31505,53694,816,2,legacy,1632749078104,4,1024,2,48000,-16,experiment,1,odd,4,952292,437899,712305,949035,29,950064,943000,29,110029,954298,951083,955118,29,954298,Sternberg,122,137357,134,yes,1024
91,91,1023,1023,black,no,experiment,legacy,legacy,legacy,0,uniform,1,left,134,134,134,134,0,0,0,134,134,0,0,134,134,134,0,0,134,134,0,Mon Sep 27 2021 15:23:10 GMT+0200 (Central European Summer Time),The main experiment item,yes,/Users/ethan/Documents/GitHub/OpenSesame/Sternberg/experiment_files,no,mono,no,18,no,white,no,no,768,legacy,legacy,8 6 3 4 7,osweb,1.3.8,0,n,left,left,left,right,space,left,690,15155,15858,31505,53694,690,2,legacy,1632749078104,5,1024,2,48000,-16,experiment,1,odd,1,958346,437899,712305,955119,29,956132,943000,29,110029,960350,957142,961053,29,960350,Sternberg,123,138047,135,yes,1024
91,91,1022,1022,black,no,experiment,legacy,legacy,legacy,0,uniform,1,left,135,135,135,135,0,0,0,135,135,0,0,135,135,135,0,0,135,135,0,Mon Sep 27 2021 15:23:10 GMT+0200 (Central European Summer Time),The main experiment item,yes,/Users/ethan/Documents/GitHub/OpenSesame/Sternberg/experiment_files,no,mono,no,18,no,white,no,no,768,legacy,legacy,1 6 4,osweb,1.3.8,0,n,left,left,left,right,space,left,916,15155,15858,31505,53694,916,2,legacy,1632749078104,3,1024,2,48000,-16,experiment,1,odd,7,964281,437899,712305,961054,29,962067,943000,29,110029,966285,963078,967206,29,966285,Sternberg,124,138963,136,yes,1024
91,91,1019,1019,black,no,experiment,legacy,legacy,legacy,0,uniform,1,left,136,136,136,136,0,0,0,136,136,0,0,136,136,136,0,0,136,136,0,Mon Sep 27 2021 15:23:10 GMT+0200 (Central European Summer Time),The main experiment item,yes,/Users/ethan/Documents/GitHub/OpenSesame/Sternberg/experiment_files,no,mono,no,18,no,white,no,no,768,legacy,legacy,1 6 4 3 9 7,osweb,1.3.8,0,n,left,left,left,right,space,left,702,15155,15858,31505,53694,702,2,legacy,1632749078104,6,1024,2,48000,-16,experiment,1,odd,8,970434,437899,712305,967206,29,968217,943000,29,110029,972437,969229,973140,29,972436,Sternberg,125,139665,137,yes,1024
91,91,1018,1018,black,no,experiment,legacy,legacy,legacy,0,uniform,1,right,137,137,137,137,0,0,0,137,137,0,0,137,137,137,0,0,137,137,0,Mon Sep 27 2021 15:23:10 GMT+0200 (Central European Summer Time),The main experiment item,yes,/Users/ethan/Documents/GitHub/OpenSesame/Sternberg/experiment_files,no,mono,no,18,no,white,no,no,768,legacy,legacy,2 4 8 5 1 3,osweb,1.3.8,1,y,right,left,left,right,space,right,813,15155,15858,31505,53694,813,2,legacy,1632749078104,6,1024,2,48000,-16,experiment,1,odd,2,976368,437899,712305,973141,29,974152,943000,29,110029,978372,975165,979193,29,978371,Sternberg,126,140478,138,yes,1024
