,ID,sender,sender_type,sender_id,ended_on,duration,time_run,time_render,time_show,time_end,time_commit,timestamp,time_switch,response,response_action,prime,target,condition,soa_condition,congruence,correct_response,correctResponse,correct
40,2215,target,canvas.Screen,12_0_0_0_4,response,865.7909999970198,11908.10000000894,11904.343,11921.009,12786.79999999702,12794.20000000298,2023-09-14T12:27:32.766Z,12804.307,response_manmade,m,paint,PAINT,Con_Synth,short,congruent,m,m,True
46,2215,target,canvas.Screen,12_0_0_1_4,response,642.5509999999995,13406.20000000298,13404.283,13420.949,14063.5,14070.79999999702,2023-09-14T12:27:34.043Z,14087.589,response_natural,n,berry,OTTER,Inc_Nat_Nat,short,incongruent,n,n,True
52,2215,target,canvas.Screen,12_0_0_2_4,response,842.7020000029806,14690.20000000298,14687.832,14704.498,15547.20000000298,15551.29999999702,2023-09-14T12:27:35.523Z,15554.464,response_manmade,m,lime,GULLY,Inc_Nat_Nat,short,incongruent,n,n,False
58,2215,target,canvas.Screen,12_0_0_3_4,response,710.9940000089409,16150.60000000894,16150.0,16171.106,16882.10000000894,16886.70000000298,2023-09-14T12:27:36.859Z,16904.41,response_natural,n,fern,PETAL,Inc_Nat_Nat,short,incongruent,n,n,True
64,2215,target,canvas.Screen,12_0_0_4_4,response,598.581999997019,17522.40000000596,17521.052,17537.718,18136.29999999702,18143.70000000298,2023-09-14T12:27:38.115Z,18154.36,response_natural,n,tiger,TIGER,Con_Nat,short,congruent,n,n,True
70,2215,target,canvas.Screen,12_0_0_5_4,response,903.2979999970194,18745.40000000596,18745.10000000894,18771.002,19674.29999999702,19682.10000000894,2023-09-14T12:27:39.654Z,19687.632,response_natural,n,finch,SLOTH,Inc_Nat_Nat,short,incongruent,m,m,False
76,2215,target,canvas.Screen,12_0_0_6_4,response,614.0259999970185,20292.0,20287.608,20304.274,20918.29999999702,20925.29999999702,2023-09-14T12:27:40.897Z,20937.582,response_natural,n,frog,FROG,Con_Nat,short,congruent,n,n,True
82,2215,target,canvas.Screen,12_0_0_7_4,response,756.6760000059621,21539.79999999702,21537.558,21554.224,22310.90000000596,22318.40000000596,2023-09-14T12:27:42.290Z,22320.86,response_manmade,m,peach,SHED,Inc_Nat_Synth,short,incongruent,m,m,True
88,2215,target,canvas.Screen,12_0_0_8_4,response,712.5980000089403,22931.20000000298,22930.70000000298,22937.502,23650.10000000894,23657.10000000894,2023-09-14T12:27:43.629Z,23670.806,response_manmade,m,bike,BIKE,Con_Synth,short,congruent,m,m,True
94,2215,target,canvas.Screen,12_0_0_9_4,response,633.6239999999998,24290.40000000596,24287.71,24304.376,24938.0,24945.20000000298,2023-09-14T12:27:44.917Z,24954.35,response_natural,n,rail,SQUID,Inc_Synth_Nat,short,incongruent,n,n,True
100,2215,target,canvas.Screen,12_0_0_10_4,response,548.5740000059595,25549.0,25548.60000000894,25554.326,26102.90000000596,26108.10000000894,2023-09-14T12:27:46.080Z,26120.97,response_natural,n,melon,HOSE,Inc_Nat_Synth,short,incongruent,m,m,False
106,2215,target,canvas.Screen,12_0_0_11_4,response,629.5880000029792,26716.70000000298,26716.20000000298,26737.612,27367.20000000298,27374.10000000894,2023-09-14T12:27:47.346Z,27387.586,response_natural,n,ruler,PANSY,Inc_Synth_Nat,short,incongruent,n,n,True
112,2215,target,canvas.Screen,12_0_0_12_4,response,720.1380000029785,27985.29999999702,27985.0,27987.562,28707.70000000298,28714.70000000298,2023-09-14T12:27:48.686Z,28720.866,response_manmade,m,kiosk,SOFA,Inc_Synth_Synth,short,incongruent,m,m,True
118,2215,target,canvas.Screen,12_0_0_13_4,response,649.6259999970207,29340.29999999702,29337.508,29354.174,30003.79999999702,30011.10000000894,2023-09-14T12:27:49.983Z,30020.814,response_manmade,m,coat,COAT,Con_Synth,short,congruent,m,m,True
124,2215,target,canvas.Screen,12_0_0_14_4,response,813.9100000029794,30612.90000000596,30612.5,30620.79,31434.70000000298,31442.29999999702,2023-09-14T12:27:51.414Z,31454.09,response_manmade,m,wharf,RAZOR,Inc_Synth_Synth,short,incongruent,m,m,True
130,2215,target,canvas.Screen,12_0_0_15_4,response,571.9680000029803,32057.5,32054.066,32070.732,32642.70000000298,32650.10000000894,2023-09-14T12:27:52.622Z,32654.042,response_natural,n,harp,SNAIL,Inc_Synth_Nat,short,incongruent,n,n,True
136,2215,target,canvas.Screen,12_0_0_16_4,response,808.9820000000036,33244.90000000596,33244.60000000894,33254.018,34063.0,34070.29999999702,2023-09-14T12:27:54.042Z,34087.318,response_manmade,m,ladle,CAFÉ,Inc_Synth_Synth,short,incongruent,m,m,True
142,2215,target,canvas.Screen,12_0_0_17_4,response,586.3700000089375,34691.20000000298,34687.564,34704.23,35290.60000000894,35298.10000000894,2023-09-14T12:27:55.270Z,35304.206,response_natural,n,cable,CABLE,Con_Synth,short,congruent,m,m,False
148,2215,target,canvas.Screen,12_0_0_18_4,response,826.5520000059623,35912.10000000894,35911.79999999702,35920.848,36747.40000000596,36754.5,2023-09-14T12:27:56.726Z,36770.814,response_natural,n,cave,CAVE,Con_Nat,short,congruent,n,n,True
154,2215,target,canvas.Screen,12_0_0_19_4,response,925.1779999970167,37392.5,37387.456,37404.122,38329.29999999702,38333.60000000894,2023-09-14T12:27:58.305Z,38337.418,response_natural,n,arena,VINE,Inc_Synth_Nat,short,incongruent,n,n,True
160,2215,target,canvas.Screen,12_0_0_20_4,response,779.1400000029826,38947.0,38946.70000000298,38954.06,39733.20000000298,39738.5,2023-09-14T12:27:59.710Z,39754.028,response_manmade,m,water,MEDAL,Inc_Nat_Synth,short,incongruent,m,m,True
166,2215,target,canvas.Screen,12_0_0_21_4,response,846.7300000059622,40344.90000000596,40344.5,40370.67,41217.40000000596,41224.5,2023-09-14T12:28:01.196Z,41237.302,response_natural,n,sewer,CORAL,Inc_Synth_Nat,short,incongruent,n,n,True
172,2215,target,canvas.Screen,12_0_0_22_4,response,930.0219999970213,41828.5,41828.0,41837.278,42767.29999999702,42774.79999999702,2023-09-14T12:28:02.746Z,42787.24,response_manmade,m,toast,TOAST,Con_Synth,short,congruent,m,m,True
178,2215,target,canvas.Screen,12_0_0_23_4,response,807.5520000089382,43407.40000000596,43403.882,43420.548,44228.10000000894,44235.10000000894,2023-09-14T12:28:04.207Z,44237.182,response_manmade,m,cobra,TWIG,Inc_Nat_Nat,short,incongruent,n,n,False
184,2215,target,canvas.Screen,12_0_0_24_4,response,628.0100000089442,44841.10000000894,44837.424,44854.09,45482.10000000894,45488.90000000596,2023-09-14T12:28:05.460Z,45504.064,response_natural,n,grass,GRASS,Con_Nat,short,congruent,n,n,True
190,2215,target,canvas.Screen,12_0_0_25_4,response,743.8280000029772,46124.40000000596,46120.706,46137.372,46881.20000000298,46888.40000000596,2023-09-14T12:28:06.860Z,46904.008,response_natural,n,creek,CREEK,Con_Nat,short,congruent,n,n,True
196,2215,target,canvas.Screen,12_0_0_26_4,response,876.116000008944,47502.70000000298,47502.29999999702,47503.984,48380.10000000894,48387.40000000596,2023-09-14T12:28:08.359Z,48403.948,response_manmade,m,toad,GLOVE,Inc_Nat_Synth,short,incongruent,m,m,True
202,2215,target,canvas.Screen,12_0_0_27_4,response,945.5439999970185,49005.20000000298,49003.924,49037.256,49982.79999999702,49989.90000000596,2023-09-14T12:28:09.961Z,50003.884,response_natural,n,whale,WHALE,Con_Nat,short,congruent,n,n,True
208,2215,target,canvas.Screen,12_0_0_28_4,response,627.474000000002,50605.40000000596,50603.86,50620.526,51248.0,51255.10000000894,2023-09-14T12:28:11.227Z,51270.5,response_manmade,m,sash,CLOTH,Inc_Synth_Synth,short,incongruent,m,m,True
214,2215,target,canvas.Screen,12_0_0_29_4,response,729.0580000029804,51862.40000000596,51861.90000000596,51887.142,52616.20000000298,52623.29999999702,2023-09-14T12:28:12.595Z,52637.112,response_manmade,m,tank,TANK,Con_Synth,short,congruent,m,m,True
220,2215,target,canvas.Screen,12_0_0_30_4,response,702.2459999999992,53239.10000000894,53237.088,53253.754,53956.0,53963.60000000894,2023-09-14T12:28:13.935Z,53970.392,response_natural,n,gate,GATE,Con_Synth,short,congruent,m,m,False
226,2215,target,canvas.Screen,12_0_0_31_4,response,801.566000008941,54564.79999999702,54564.40000000596,54587.034,55388.60000000894,55394.20000000298,2023-09-14T12:28:15.366Z,55403.93,response_manmade,m,poppy,DINGO,Inc_Nat_Nat,short,incongruent,n,n,False
232,2215,target,canvas.Screen,12_0_0_32_4,response,614.8939999970171,56001.90000000596,56001.5,56003.906,56618.79999999702,56626.0,2023-09-14T12:28:16.597Z,56637.214,response_natural,n,bread,BREAD,Con_Synth,short,congruent,m,m,False
238,2215,target,canvas.Screen,12_0_0_33_4,response,856.94399999702,57240.5,57237.19,57253.856,58110.79999999702,58118.0,2023-09-14T12:28:18.089Z,58120.488,response_manmade,m,patio,SPOON,Inc_Synth_Synth,short,incongruent,m,m,True
244,2215,target,canvas.Screen,12_0_0_34_4,response,631.5360000000001,58714.29999999702,58713.79999999702,58720.464,59352.0,59359.20000000298,2023-09-14T12:28:19.331Z,59370.438,response_natural,n,deer,DEER,Con_Nat,short,congruent,n,n,True
250,2215,target,canvas.Screen,12_0_0_35_4,response,803.3200000059587,59973.90000000596,59970.414,59987.08,60790.40000000596,60797.20000000298,2023-09-14T12:28:20.769Z,60803.714,response_natural,n,puppy,PUPPY,Con_Nat,short,congruent,n,n,True
256,2215,target,canvas.Screen,12_0_0_36_4,response,897.0780000089435,61422.60000000894,61420.356,61437.022,62334.10000000894,62338.0,2023-09-14T12:28:22.309Z,62353.652,response_manmade,m,camel,BENCH,Inc_Nat_Synth,short,incongruent,m,m,True
262,2215,target,canvas.Screen,12_0_0_37_4,response,700.7400000029811,62973.70000000298,62970.294,62986.96,63687.70000000298,63695.0,2023-09-14T12:28:23.666Z,63703.598,response_manmade,m,goose,GOOSE,Con_Nat,short,congruent,n,n,False
268,2215,target,canvas.Screen,12_0_0_38_4,response,1301.2259999970192,64297.0,64296.60000000894,64303.574,65604.79999999702,65612.20000000298,2023-09-14T12:28:25.583Z,65636.854,response_manmade,m,rope,ROPE,Con_Synth,short,congruent,m,m,True
274,2215,target,canvas.Screen,12_0_0_39_4,response,734.9160000029806,66238.60000000894,66237.118,66253.784,66988.70000000298,66995.90000000596,2023-09-14T12:28:26.967Z,67003.754,response_manmade,m,corn,CORN,Con_Nat,short,congruent,n,n,False
280,2215,target,canvas.Screen,12_0_0_40_4,response,1333.1040000000066,67608.90000000596,67603.73,67620.396,68953.5,68960.5,2023-09-14T12:28:28.932Z,68987.008,response_manmade,m,crow,YACHT,Inc_Nat_Synth,short,incongruent,m,m,True
286,2215,target,canvas.Screen,12_0_0_41_4,response,771.9500000089465,69579.40000000596,69579.10000000894,69603.65,70375.60000000894,70382.60000000894,2023-09-14T12:28:30.354Z,70386.952,response_natural,n,rake,HUSKY,Inc_Synth_Nat,short,incongruent,n,n,True
292,2215,target,canvas.Screen,12_0_0_42_4,response,691.7059999970224,70990.40000000596,70986.928,71003.594,71695.29999999702,71702.79999999702,2023-09-14T12:28:31.674Z,71720.232,response_manmade,m,mice,TOOLS,Inc_Nat_Synth,short,incongruent,m,m,True
298,2215,target,canvas.Screen,12_0_0_43_4,response,604.2260000089445,72323.79999999702,72320.208,72336.874,72941.10000000894,72948.29999999702,2023-09-14T12:28:32.919Z,72953.516,response_natural,n,leaf,COIN,Inc_Nat_Synth,short,incongruent,m,m,False
304,2215,target,canvas.Screen,12_0_0_44_4,response,770.7420000059647,73554.5,73554.10000000894,73570.158,74340.90000000596,74348.20000000298,2023-09-14T12:28:34.319Z,74353.46,response_manmade,m,silo,PLAZA,Inc_Synth_Synth,short,incongruent,m,m,True
310,2215,target,canvas.Screen,12_0_0_45_4,response,674.1320000059641,74961.70000000298,74960.90000000596,74986.768,75660.90000000596,75668.5,2023-09-14T12:28:35.640Z,75670.074,response_manmade,m,drug,DRUG,Con_Synth,short,congruent,m,m,True
316,2215,target,canvas.Screen,12_0_0_46_4,response,860.2210000029736,76279.90000000596,76279.5,76286.979,77147.20000000298,77154.70000000298,2023-09-14T12:28:37.126Z,77170.277,response_natural,n,spear,MOTH,Inc_Synth_Nat,short,incongruent,n,n,True
322,2215,target,canvas.Screen,12_0_0_47_4,response,554.4149999999936,77790.10000000894,77786.919,77803.585,78358.0,78365.0,2023-09-14T12:28:38.336Z,78370.229,response_natural,n,spade,SHELF,Inc_Synth_Synth,short,incongruent,m,m,False
328,2215,target,canvas.Screen,12_0_0_48_4,response,714.4950000029785,78963.10000000894,78962.60000000894,78970.205,79684.70000000298,79691.90000000596,2023-09-14T12:28:39.663Z,79703.509,response_natural,n,seed,SEED,Con_Nat,short,congruent,n,n,True
334,2215,target,canvas.Screen,12_0_0_49_4,response,572.849000000002,80307.90000000596,80303.485,80320.151,80893.0,80900.20000000298,2023-09-14T12:28:40.871Z,80903.461,response_manmade,m,hawk,HAWK,Con_Nat,short,congruent,n,n,False
340,2215,target,canvas.Screen,12_0_0_50_4,response,1192.1630000089353,81495.70000000298,81495.20000000298,81503.437,82695.60000000894,82699.20000000298,2023-09-14T12:28:42.670Z,82703.389,response_natural,n,torch,CHIMP,Inc_Synth_Nat,short,incongruent,n,n,True
346,2215,target,canvas.Screen,12_0_0_51_4,response,674.9689999999973,83305.29999999702,83303.365,83320.031,83995.0,84001.70000000298,2023-09-14T12:28:43.973Z,84003.337,response_natural,n,soil,SOIL,Con_Nat,short,congruent,n,n,True
352,2215,target,canvas.Screen,12_0_0_52_4,response,612.5209999999934,84605.20000000298,84604.79999999702,84619.979,85232.5,85239.40000000596,2023-09-14T12:28:45.210Z,85253.287,response_natural,n,worm,WORM,Con_Nat,short,congruent,n,n,True
358,2215,target,canvas.Screen,12_0_0_53_4,response,1778.509000002974,85856.20000000298,85853.525,85870.191,87648.70000000298,87656.20000000298,2023-09-14T12:28:47.627Z,87670.119,response_manmade,m,belt,BELT,Con_Synth,short,congruent,m,m,True
364,2215,target,canvas.Screen,12_0_0_54_4,response,875.7390000000014,88274.29999999702,88270.095,88286.761,89162.5,89169.79999999702,2023-09-14T12:28:49.141Z,89186.725,response_manmade,m,mail,MAIL,Con_Synth,short,congruent,m,m,True
370,2215,target,canvas.Screen,12_0_0_55_4,response,736.0330000059621,89781.20000000298,89780.79999999702,89803.367,90539.40000000596,90546.60000000894,2023-09-14T12:28:50.517Z,90553.337,response_natural,n,grape,LLAMA,Inc_Nat_Nat,short,incongruent,n,n,True
376,2215,target,canvas.Screen,12_0_0_56_4,response,638.7550000059564,91170.29999999702,91169.90000000596,91186.645,91825.40000000596,91832.79999999702,2023-09-14T12:28:51.804Z,91853.285,response_manmade,m,tower,TOWER,Con_Synth,short,congruent,m,m,True
382,2215,target,canvas.Screen,12_0_0_57_4,response,527.7069999970263,92471.90000000596,92469.927,92486.593,93014.29999999702,93021.5,2023-09-14T12:28:52.992Z,93036.571,response_natural,n,daisy,DAISY,Con_Nat,short,congruent,n,n,True
388,2215,target,canvas.Screen,12_0_0_58_4,response,650.8530000059545,93629.0,93628.70000000298,93636.547,94287.40000000596,94294.60000000894,2023-09-14T12:28:54.265Z,94303.187,response_manmade,m,doll,DOLL,Con_Synth,short,congruent,m,m,True
394,2215,target,canvas.Screen,12_0_0_59_4,response,762.2710000089428,94895.10000000894,94894.70000000298,94919.829,95682.10000000894,95688.70000000298,2023-09-14T12:28:55.660Z,95703.131,response_manmade,m,sword,SWORD,Con_Synth,short,congruent,m,m,True
404,2215,target,canvas.Screen,12_1_0_0_5,response,638.1789999970206,114041.60000000894,114036.455,114053.121,114691.29999999702,114698.10000000894,2023-09-14T12:29:14.669Z,114703.095,response_natural,n,hare,HARE,Con_Nat,long,congruent,n,n,True
411,2215,target,canvas.Screen,12_1_0_1_5,response,703.2329999970243,115391.40000000596,115386.401,115403.067,116106.29999999702,116113.40000000596,2023-09-14T12:29:16.084Z,116119.705,response_manmade,m,eagle,WAGON,Inc_Nat_Synth,long,incongruent,m,m,True
418,2215,target,canvas.Screen,12_1_0_2_5,response,731.6570000000065,116823.29999999702,116819.677,116836.343,117568.0,117575.20000000298,2023-09-14T12:29:17.546Z,117586.313,response_manmade,m,linen,LINEN,Con_Synth,long,congruent,m,m,True
425,2215,target,canvas.Screen,12_1_0_3_5,response,620.7810000059544,118255.60000000894,118252.953,118269.619,118890.40000000596,118897.60000000894,2023-09-14T12:29:18.868Z,118902.927,response_natural,n,stick,STICK,Con_Nat,long,congruent,n,n,True
432,2215,target,canvas.Screen,12_1_0_4_5,response,697.4349999999977,119604.0,119602.899,119619.565,120317.0,120324.20000000298,2023-09-14T12:29:20.295Z,120336.203,response_natural,n,roof,PIANO,Inc_Synth_Synth,long,incongruent,m,m,False
439,2215,target,canvas.Screen,12_1_0_5_5,response,535.9589999970194,121038.0,121036.175,121052.841,121588.79999999702,121596.10000000894,2023-09-14T12:29:21.567Z,121602.819,response_natural,n,bowl,WOLF,Inc_Synth_Nat,long,incongruent,n,n,True
446,2215,target,canvas.Screen,12_1_0_6_5,response,573.4430000059656,122308.0,122302.791,122319.457,122892.90000000596,122900.29999999702,2023-09-14T12:29:22.871Z,122919.433,response_natural,n,lemon,DUCK,Inc_Nat_Nat,long,incongruent,m,m,False
453,2215,target,canvas.Screen,12_1_0_7_5,response,699.1329999970185,123605.70000000298,123603.001,123619.667,124318.79999999702,124325.5,2023-09-14T12:29:24.296Z,124336.305,response_natural,n,wasp,WASP,Con_Nat,long,congruent,n,n,True
460,2215,target,canvas.Screen,12_1_0_8_5,response,855.0229999970179,125024.60000000894,125019.611,125036.277,125891.29999999702,125898.29999999702,2023-09-14T12:29:25.869Z,125902.909,response_manmade,m,ferry,FERRY,Con_Synth,long,congruent,m,m,True
467,2215,target,canvas.Screen,12_1_0_9_5,response,844.5849999970233,126571.40000000596,126569.549,126586.215,127430.79999999702,127438.40000000596,2023-09-14T12:29:27.409Z,127452.847,response_manmade,m,cloud,MOTEL,Inc_Nat_Synth,long,incongruent,m,m,True
474,2215,target,canvas.Screen,12_1_0_10_5,response,1423.5470000029745,128123.29999999702,128119.487,128136.153,129559.70000000298,129566.90000000596,2023-09-14T12:29:29.537Z,129586.095,response_manmade,m,cake,TRASH,Inc_Synth_Synth,long,incongruent,m,m,True
481,2215,target,canvas.Screen,12_1_0_11_5,response,600.1990000089427,130256.10000000894,130252.735,130269.401,130869.60000000894,130877.10000000894,2023-09-14T12:29:30.848Z,130886.043,response_natural,n,plum,PLUM,Con_Nat,long,congruent,n,n,True
488,2215,target,canvas.Screen,12_1_0_12_5,response,914.4170000089507,131538.29999999702,131536.017,131552.683,132467.10000000894,132474.70000000298,2023-09-14T12:29:32.445Z,132485.979,response_manmade,m,swamp,DRILL,Inc_Nat_Synth,long,incongruent,m,m,True
495,2215,target,canvas.Screen,12_1_0_13_5,response,808.3489999970188,133174.5,133169.285,133185.951,133994.29999999702,134000.79999999702,2023-09-14T12:29:33.971Z,134002.585,response_manmade,m,olive,MOTOR,Inc_Nat_Synth,long,incongruent,m,m,True
502,2215,target,canvas.Screen,12_1_0_14_5,response,988.0970000089437,134656.0,134652.837,134669.503,135657.60000000894,135665.40000000596,2023-09-14T12:29:35.636Z,135669.463,response_natural,n,crab,CRAB,Con_Nat,long,congruent,n,n,True
509,2215,target,canvas.Screen,12_1_0_15_5,response,687.0650000000023,136355.20000000298,136352.769,136369.435,137056.5,137063.5,2023-09-14T12:29:37.034Z,137069.407,response_natural,n,fort,GOAT,Inc_Synth_Nat,long,incongruent,n,n,True
516,2215,target,canvas.Screen,12_1_0_16_5,response,619.4870000029914,137740.90000000596,137736.047,137752.713,138372.20000000298,138379.20000000298,2023-09-14T12:29:38.350Z,138386.021,response_manmade,m,broom,BROOM,Con_Synth,long,congruent,m,m,True
523,2215,target,canvas.Screen,12_1_0_17_5,response,648.0730000059702,139055.70000000298,139052.661,139069.327,139717.40000000596,139724.79999999702,2023-09-14T12:29:39.695Z,139735.967,response_manmade,m,canon,CANON,Con_Synth,long,congruent,m,m,True
530,2215,target,canvas.Screen,12_1_0_18_5,response,667.4270000029937,140406.0,140402.607,140419.273,141086.70000000298,141094.10000000894,2023-09-14T12:29:41.064Z,141102.579,response_natural,n,reef,REEF,Con_Nat,long,congruent,n,n,True
537,2215,target,canvas.Screen,12_1_0_19_5,response,586.6149999999907,141771.0,141769.219,141785.885,142372.5,142380.0,2023-09-14T12:29:42.350Z,142385.861,response_natural,n,fruit,BEAR,Inc_Nat_Nat,long,incongruent,m,m,False
544,2215,target,canvas.Screen,12_1_0_20_5,response,550.60100000893,143090.0,143085.833,143102.499,143653.10000000894,143660.5,2023-09-14T12:29:43.631Z,143669.143,response_natural,n,sink,LAMB,Inc_Synth_Nat,long,incongruent,n,n,True
551,2215,target,canvas.Screen,12_1_0_21_5,response,639.6880000059609,144338.79999999702,144336.046,144352.712,144992.40000000596,144999.70000000298,2023-09-14T12:29:44.970Z,145002.686,response_manmade,m,stair,STAIR,Con_Synth,long,congruent,m,m,True
558,2215,target,canvas.Screen,12_1_0_22_5,response,580.2420000059647,145690.0,145685.992,145702.658,146282.90000000596,146290.0,2023-09-14T12:29:46.260Z,146302.634,response_natural,n,barn,TUNA,Inc_Synth_Nat,long,incongruent,n,n,True
565,2215,target,canvas.Screen,12_1_0_23_5,response,587.2940000059607,146988.29999999702,146985.94,147002.606,147589.90000000596,147597.10000000894,2023-09-14T12:29:47.567Z,147602.582,response_manmade,m,jeans,JEANS,Con_Synth,long,congruent,m,m,True
572,2215,target,canvas.Screen,12_1_0_24_5,response,501.6460000029765,148289.70000000298,148285.888,148302.554,148804.20000000298,148811.40000000596,2023-09-14T12:29:48.782Z,148819.2,response_manmade,m,crate,CRATE,Con_Synth,long,congruent,m,m,True
579,2215,target,canvas.Screen,12_1_0_25_5,response,612.0280000029888,149505.40000000596,149502.506,149519.172,150131.20000000298,150138.60000000894,2023-09-14T12:29:50.109Z,150152.48,response_manmade,m,flask,FLASK,Con_Synth,long,congruent,m,m,True
586,2215,target,canvas.Screen,12_1_0_26_5,response,563.74800000299,150840.40000000596,150835.786,150852.452,151416.20000000298,151423.70000000298,2023-09-14T12:29:51.394Z,151435.762,response_natural,n,pear,PEAR,Con_Nat,long,congruent,n,n,True
593,2215,target,canvas.Screen,12_1_0_27_5,response,585.300000002986,152140.29999999702,152135.734,152152.4,152737.70000000298,152745.29999999702,2023-09-14T12:29:52.715Z,152752.376,response_natural,n,earth,EARTH,Con_Nat,long,congruent,n,n,True
600,2215,target,canvas.Screen,12_1_0_28_5,response,817.0180000029795,153420.40000000596,153419.016,153435.682,154252.70000000298,154260.20000000298,2023-09-14T12:29:54.230Z,154268.982,response_manmade,m,storm,LAND,Inc_Nat_Nat,long,incongruent,m,m,True
607,2215,target,canvas.Screen,12_1_0_29_5,response,685.0450000089477,154938.40000000596,154935.889,154952.555,155637.60000000894,155644.79999999702,2023-09-14T12:29:55.615Z,155652.527,response_manmade,m,shoe,COUCH,Inc_Synth_Synth,long,incongruent,m,m,True
614,2215,target,canvas.Screen,12_1_0_30_5,response,808.5009999999893,156341.5,156335.833,156352.499,157161.0,157168.20000000298,2023-09-14T12:29:57.138Z,157169.133,response_manmade,m,boar,BOAR,Con_Nat,long,congruent,n,n,False
621,2215,target,canvas.Screen,12_1_0_31_5,response,578.1610000089277,157840.40000000596,157835.773,157852.439,158430.60000000894,158437.70000000298,2023-09-14T12:29:58.408Z,158452.415,response_natural,n,pipe,LION,Inc_Synth_Nat,long,incongruent,n,n,True
628,2215,target,canvas.Screen,12_1_0_32_5,response,504.0130000059726,159140.0,159135.721,159152.387,159656.40000000596,159663.70000000298,2023-09-14T12:29:59.634Z,159669.033,response_natural,n,swan,SWAN,Con_Nat,long,congruent,n,n,True
635,2215,target,canvas.Screen,12_1_0_33_5,response,537.6609999999928,160338.20000000298,160335.673,160352.339,160890.0,160897.40000000596,2023-09-14T12:30:00.867Z,160902.317,response_manmade,m,wire,CABIN,Inc_Synth_Synth,long,incongruent,m,m,True
642,2215,target,canvas.Screen,12_1_0_34_5,response,666.01099999703,161590.60000000894,161585.623,161602.289,162268.29999999702,162275.5,2023-09-14T12:30:02.246Z,162285.595,response_manmade,m,arrow,ARROW,Con_Synth,long,congruent,m,m,True
649,2215,target,canvas.Screen,12_1_0_35_5,response,853.3989999970072,162955.5,162952.235,162968.901,163822.29999999702,163829.20000000298,2023-09-14T12:30:03.799Z,163835.533,response_natural,n,clam,CLAM,Con_Nat,long,congruent,n,n,True
656,2215,target,canvas.Screen,12_1_0_36_5,response,641.8330000089481,164522.90000000596,164519.101,164535.767,165177.60000000894,165184.79999999702,2023-09-14T12:30:05.155Z,165202.407,response_manmade,m,canoe,CANOE,Con_Synth,long,congruent,m,m,True
663,2215,target,canvas.Screen,12_1_0_37_5,response,809.7870000000112,165873.70000000298,165869.047,165885.713,166695.5,166702.79999999702,2023-09-14T12:30:06.673Z,166719.013,response_natural,n,ocean,TREE,Inc_Nat_Nat,long,incongruent,m,m,False
670,2215,target,canvas.Screen,12_1_0_38_5,response,638.3149999970337,167406.90000000596,167402.319,167418.985,168057.29999999702,168064.40000000596,2023-09-14T12:30:08.034Z,168068.959,response_manmade,m,scarf,SCARF,Con_Synth,long,congruent,m,m,True
677,2215,target,canvas.Screen,12_1_0_39_5,response,719.1690000089293,168754.5,168752.265,168768.931,169488.10000000894,169495.10000000894,2023-09-14T12:30:09.465Z,169502.235,response_natural,n,desk,CANDY,Inc_Synth_Synth,long,incongruent,m,m,False
684,2215,target,canvas.Screen,12_1_0_40_5,response,794.7930000000051,170188.5,170185.541,170202.207,170997.0,171004.10000000894,2023-09-14T12:30:10.974Z,171018.841,response_natural,n,stone,STONE,Con_Nat,long,congruent,n,n,True
691,2215,target,canvas.Screen,12_1_0_41_5,response,932.4530000089435,171690.0,171685.481,171702.147,172634.60000000894,172641.70000000298,2023-09-14T12:30:12.612Z,172652.109,response_manmade,m,deck,PLATE,Inc_Synth_Synth,long,incongruent,m,m,True
698,2215,target,canvas.Screen,12_1_0_42_5,response,704.7850000029721,173323.10000000894,173318.749,173335.415,174040.20000000298,174047.20000000298,2023-09-14T12:30:14.017Z,174052.053,response_natural,n,soap,PONY,Inc_Synth_Nat,long,incongruent,n,n,True
705,2215,target,canvas.Screen,12_1_0_43_5,response,534.5099999970116,174739.60000000894,174735.624,174752.29,175286.79999999702,175294.20000000298,2023-09-14T12:30:15.264Z,175302.268,response_natural,n,slug,SLUG,Con_Nat,long,congruent,n,n,True
712,2215,target,canvas.Screen,12_1_0_44_5,response,648.2259999970265,175974.10000000894,175968.908,175985.574,176633.79999999702,176640.90000000596,2023-09-14T12:30:16.611Z,176652.214,response_manmade,m,shell,DIRT,Inc_Nat_Nat,long,incongruent,m,m,True
719,2215,target,canvas.Screen,12_1_0_45_5,response,487.81400000001304,177340.20000000298,177335.52,177352.186,177840.0,177847.10000000894,2023-09-14T12:30:17.817Z,177852.166,response_manmade,m,flute,FLUTE,Con_Synth,long,congruent,m,m,True
726,2215,target,canvas.Screen,12_1_0_46_5,response,687.7620000059542,178540.0,178535.472,178552.138,179239.90000000596,179247.0,2023-09-14T12:30:19.217Z,179252.11,response_manmade,m,moose,PORCH,Inc_Nat_Synth,long,incongruent,m,m,True
733,2215,target,canvas.Screen,12_1_0_47_5,response,727.484000005963,179921.29999999702,179918.75,179935.416,180662.90000000596,180670.29999999702,2023-09-14T12:30:20.640Z,180685.386,response_manmade,m,shark,HILL,Inc_Nat_Nat,long,incongruent,m,m,True
740,2215,target,canvas.Screen,12_1_0_48_5,response,753.2080000059505,181356.5,181352.026,181368.692,182121.90000000596,182128.90000000596,2023-09-14T12:30:22.099Z,182135.328,response_manmade,m,tongs,TONGS,Con_Synth,long,congruent,m,m,True
747,2215,target,canvas.Screen,12_1_0_49_5,response,522.2660000059695,182805.90000000596,182801.968,182818.634,183340.90000000596,183347.90000000596,2023-09-14T12:30:23.318Z,183351.946,response_natural,n,mall,BUSH,Inc_Synth_Nat,long,incongruent,n,n,True
754,2215,target,canvas.Screen,12_1_0_50_5,response,529.6820000089356,184039.20000000298,184035.252,184051.918,184581.60000000894,184588.90000000596,2023-09-14T12:30:24.559Z,184601.896,response_natural,n,bunny,ROSE,Inc_Nat_Nat,long,incongruent,m,m,False
761,2215,target,canvas.Screen,12_1_0_51_5,response,657.3660000000091,185288.60000000894,185285.468,185302.134,185959.5,185966.70000000298,2023-09-14T12:30:25.936Z,185968.774,response_manmade,m,sheep,BULL,Inc_Nat_Nat,long,incongruent,m,m,True
768,2215,target,canvas.Screen,12_1_0_52_5,response,607.053999997006,186656.5,186652.08,186668.746,187275.79999999702,187283.0,2023-09-14T12:30:27.253Z,187285.388,response_manmade,m,apron,APRON,Con_Synth,long,congruent,m,m,True
775,2215,target,canvas.Screen,12_1_0_53_5,response,721.9060000089521,187956.60000000894,187952.028,187968.694,188690.60000000894,188697.70000000298,2023-09-14T12:30:28.667Z,188701.998,response_manmade,m,taxi,CHAIN,Inc_Synth_Synth,long,incongruent,m,m,True
782,2215,target,canvas.Screen,12_1_0_54_5,response,733.495999997016,189370.90000000596,189368.638,189385.304,190118.79999999702,190125.70000000298,2023-09-14T12:30:30.095Z,190135.274,response_manmade,m,stove,STOVE,Con_Synth,long,congruent,m,m,True
789,2215,target,canvas.Screen,12_1_0_55_5,response,471.9200000000128,190806.70000000298,190801.914,190818.58,191290.5,191297.29999999702,2023-09-14T12:30:31.267Z,191301.894,response_natural,n,peas,PEAS,Con_Nat,long,congruent,n,n,True
796,2215,target,canvas.Screen,12_1_0_56_5,response,602.2999999999884,191972.10000000894,191968.534,191985.2,192587.5,192594.90000000596,2023-09-14T12:30:32.565Z,192601.842,response_manmade,m,bell,WHEEL,Inc_Synth_Synth,long,incongruent,m,m,True
803,2215,target,canvas.Screen,12_1_0_57_5,response,538.5860000059474,193288.29999999702,193285.148,193301.814,193840.40000000596,193847.70000000298,2023-09-14T12:30:33.817Z,193851.792,response_manmade,m,wheat,BRICK,Inc_Nat_Synth,long,incongruent,m,m,True
810,2215,target,canvas.Screen,12_1_0_58_5,response,501.3360000089451,194540.0,194535.098,194551.764,195053.10000000894,195060.10000000894,2023-09-14T12:30:35.030Z,195068.41,response_natural,n,moss,MOSS,Con_Nat,long,congruent,n,n,True
817,2215,target,canvas.Screen,12_1_0_59_5,response,633.4100000059698,195740.0,195735.324,195751.99,196385.40000000596,196392.70000000298,2023-09-14T12:30:36.362Z,196401.964,response_manmade,m,flood,SKIRT,Inc_Nat_Synth,long,incongruent,m,m,True
41,2214,target,canvas.Screen,12_0_0_0_5,response,503.9190000029794,11435.70000000298,11432.115,11448.781,11952.70000000298,11955.90000000596,2023-09-14T12:27:06.389Z,11965.427,response_natural,n,flask,FLASK,Con_Synth,long,congruent,m,m,False
48,2214,target,canvas.Screen,12_0_0_1_5,response,615.2009999940401,12651.90000000596,12648.733,12665.399,13280.59999999404,13283.59999999404,2023-09-14T12:27:07.716Z,13298.707,response_manmade,m,wire,CABIN,Inc_Synth_Synth,long,incongruent,m,m,True
55,2214,target,canvas.Screen,12_0_0_2_5,response,452.3550000029809,14001.20000000298,13998.679,14015.345,14467.70000000298,14471.09999999404,2023-09-14T12:27:08.904Z,14481.993,response_natural,n,slug,SLUG,Con_Nat,long,congruent,n,n,True
62,2214,target,canvas.Screen,12_0_0_3_5,response,590.8849999970189,15190.5,15186.249,15202.915,15793.79999999702,15797.29999999702,2023-09-14T12:27:10.230Z,15802.891,response_manmade,m,scarf,SCARF,Con_Synth,long,congruent,m,m,True
69,2214,target,canvas.Screen,12_0_0_4_5,response,482.1710000029816,16507.59999999404,16502.863,16519.529,17001.70000000298,17005.70000000298,2023-09-14T12:27:11.438Z,17019.509,response_manmade,m,moss,MOSS,Con_Nat,long,congruent,n,n,False
76,2214,target,canvas.Screen,12_0_0_5_5,response,679.4529999940387,17721.0,17719.481,17736.147,18415.59999999404,18419.40000000596,2023-09-14T12:27:12.852Z,18436.119,response_natural,n,plum,PLUM,Con_Nat,long,congruent,n,n,True
83,2214,target,canvas.Screen,12_0_0_6_5,response,618.643000005959,19139.40000000596,19136.091,19152.757,19771.40000000596,19774.29999999702,2023-09-14T12:27:14.207Z,19786.065,response_natural,n,reef,REEF,Con_Nat,long,congruent,n,n,True
90,2214,target,canvas.Screen,12_0_0_7_5,response,522.7969999999987,20490.09999999404,20486.037,20502.703,21025.5,21029.40000000596,2023-09-14T12:27:15.462Z,21036.015,response_natural,n,bunny,ROSE,Inc_Nat_Nat,long,incongruent,m,m,False
97,2214,target,canvas.Screen,12_0_0_8_5,response,555.8470000000016,21739.59999999404,21735.987,21752.653,22308.5,22311.90000000596,2023-09-14T12:27:16.745Z,22319.297,response_manmade,m,crate,CRATE,Con_Synth,long,congruent,m,m,True
104,2214,target,canvas.Screen,12_0_0_9_5,response,460.36499999701846,23022.09999999404,23019.269,23035.935,23496.29999999702,23499.5,2023-09-14T12:27:17.932Z,23502.583,response_natural,n,fruit,BEAR,Inc_Nat_Nat,long,incongruent,m,m,False
111,2214,target,canvas.Screen,12_0_0_10_5,response,494.0789999970184,24206.29999999702,24202.555,24219.221,24713.29999999702,24716.90000000596,2023-09-14T12:27:19.150Z,24719.201,response_natural,n,barn,TUNA,Inc_Synth_Nat,long,incongruent,n,n,True
118,2214,target,canvas.Screen,12_0_0_11_5,response,882.8820000059604,25419.5,25417.852,25434.518,26317.40000000596,26320.70000000298,2023-09-14T12:27:20.754Z,26334.482,response_manmade,m,arrow,ARROW,Con_Synth,long,congruent,m,m,True
125,2214,target,canvas.Screen,12_0_0_12_5,response,660.1799999970208,27038.09999999404,27034.454,27051.12,27711.29999999702,27714.90000000596,2023-09-14T12:27:22.148Z,27717.76,response_manmade,m,canoe,CANOE,Con_Synth,long,congruent,m,m,True
132,2214,target,canvas.Screen,12_0_0_13_5,response,451.46800000298026,28403.40000000596,28401.066,28417.732,28869.20000000298,28872.59999999404,2023-09-14T12:27:23.306Z,28884.38,response_natural,n,lemon,DUCK,Inc_Nat_Nat,long,incongruent,m,m,False
139,2214,target,canvas.Screen,12_0_0_14_5,response,835.0819999940395,29587.40000000596,29584.352,29601.018,30436.09999999404,30439.59999999404,2023-09-14T12:27:24.873Z,30450.984,response_manmade,m,taxi,CHAIN,Inc_Synth_Synth,long,incongruent,m,m,True
146,2214,target,canvas.Screen,12_0_0_15_5,response,605.3780000000006,31152.70000000298,31150.956,31167.622,31773.0,31777.29999999702,2023-09-14T12:27:26.210Z,31784.264,response_natural,n,linen,LINEN,Con_Synth,long,congruent,m,m,False
153,2214,target,canvas.Screen,12_0_0_16_5,response,496.0980000000018,32488.70000000298,32484.236,32500.902,32997.0,33000.59999999404,2023-09-14T12:27:27.434Z,33017.548,response_manmade,m,jeans,JEANS,Con_Synth,long,congruent,m,m,True
160,2214,target,canvas.Screen,12_0_0_17_5,response,867.4800000000032,33705.79999999702,33700.854,33717.52,34585.0,34588.09999999404,2023-09-14T12:27:29.021Z,34600.818,response_natural,n,sheep,BULL,Inc_Nat_Nat,long,incongruent,m,m,False
167,2214,target,canvas.Screen,12_0_0_18_5,response,584.9799999970201,35306.90000000596,35305.154,35321.82,35906.79999999702,35909.90000000596,2023-09-14T12:27:30.343Z,35921.796,response_natural,n,peas,PEAS,Con_Nat,long,congruent,n,n,True
174,2214,target,canvas.Screen,12_0_0_19_5,response,536.2660000029791,36627.09999999404,36621.768,36638.434,37174.70000000298,37178.09999999404,2023-09-14T12:27:31.611Z,37188.412,response_natural,n,desk,CANDY,Inc_Synth_Synth,long,incongruent,m,m,False
181,2214,target,canvas.Screen,12_0_0_20_5,response,856.4499999999971,37890.70000000298,37888.384,37905.05,38761.5,38765.5,2023-09-14T12:27:33.199Z,38771.682,response_manmade,m,bell,WHEEL,Inc_Synth_Synth,long,incongruent,m,m,True
188,2214,target,canvas.Screen,12_0_0_21_5,response,479.3800000029805,39474.40000000596,39471.654,39488.32,39967.70000000298,39971.20000000298,2023-09-14T12:27:34.404Z,39988.3,response_natural,n,hare,HARE,Con_Nat,long,congruent,n,n,True
195,2214,target,canvas.Screen,12_0_0_22_5,response,989.6619999940376,40691.0,40688.272,40704.938,41694.59999999404,41698.0,2023-09-14T12:27:36.131Z,41704.898,response_manmade,m,flute,FLUTE,Con_Synth,long,congruent,m,m,True
202,2214,target,canvas.Screen,12_0_0_23_5,response,589.9639999999999,42408.29999999702,42404.87,42421.536,43011.5,43015.5,2023-09-14T12:27:37.449Z,43021.512,response_natural,n,stone,STONE,Con_Nat,long,congruent,n,n,True
209,2214,target,canvas.Screen,12_0_0_24_5,response,580.4499999940381,43722.90000000596,43721.484,43738.15,44318.59999999404,44322.09999999404,2023-09-14T12:27:38.755Z,44338.126,response_manmade,m,bowl,WOLF,Inc_Synth_Nat,long,incongruent,n,n,False
216,2214,target,canvas.Screen,12_0_0_25_5,response,826.5359999970169,45039.5,45038.098,45054.764,45881.29999999702,45884.90000000596,2023-09-14T12:27:40.318Z,45890.171,response_natural,n,clam,CLAM,Con_Nat,long,congruent,n,n,True
223,2214,target,canvas.Screen,12_0_0_26_5,response,646.4909999970187,46591.20000000298,46590.143,46606.809,47253.29999999702,47256.79999999702,2023-09-14T12:27:41.690Z,47273.449,response_manmade,m,ferry,FERRY,Con_Synth,long,congruent,m,m,True
230,2214,target,canvas.Screen,12_0_0_27_5,response,565.2129999970202,47976.29999999702,47973.421,47990.087,48555.29999999702,48559.20000000298,2023-09-14T12:27:42.993Z,48573.397,response_natural,n,shell,DIRT,Inc_Nat_Nat,long,incongruent,m,m,False
237,2214,target,canvas.Screen,12_0_0_28_5,response,502.06499999403604,49276.59999999404,49273.369,49290.035,49792.09999999404,49795.09999999404,2023-09-14T12:27:44.229Z,49806.681,response_natural,n,mall,BUSH,Inc_Synth_Nat,long,incongruent,n,n,True
244,2214,target,canvas.Screen,12_0_0_29_5,response,672.9809999970166,50509.5,50506.653,50523.319,51196.29999999702,51199.79999999702,2023-09-14T12:27:45.633Z,51206.625,response_manmade,m,olive,MOTOR,Inc_Nat_Synth,long,incongruent,m,m,True
251,2214,target,canvas.Screen,12_0_0_30_5,response,956.8369999940405,51908.09999999404,51906.597,51923.263,52880.09999999404,52883.09999999404,2023-09-14T12:27:47.316Z,52889.891,response_manmade,m,cloud,MOTEL,Inc_Nat_Synth,long,incongruent,m,m,True
258,2214,target,canvas.Screen,12_0_0_31_5,response,776.3710000059582,53592.29999999702,53589.863,53606.529,54382.90000000596,54386.70000000298,2023-09-14T12:27:48.820Z,54389.831,response_manmade,m,deck,PLATE,Inc_Synth_Synth,long,incongruent,m,m,True
265,2214,target,canvas.Screen,12_0_0_32_5,response,566.898000000001,55075.0,55073.137,55082.102,55649.0,55652.70000000298,2023-09-14T12:27:50.086Z,55665.412,response_manmade,m,swamp,DRILL,Inc_Nat_Synth,long,incongruent,m,m,True
272,2214,target,canvas.Screen,12_0_0_33_5,response,578.6500000029773,56368.0,56365.384,56382.05,56960.70000000298,56963.20000000298,2023-09-14T12:27:51.397Z,56965.36,response_natural,n,crab,CRAB,Con_Nat,long,congruent,n,n,True
279,2214,target,canvas.Screen,12_0_0_34_5,response,887.8019999970202,57668.5,57665.332,57681.998,58569.79999999702,58573.20000000298,2023-09-14T12:27:53.007Z,58581.962,response_manmade,m,stove,STOVE,Con_Synth,long,congruent,m,m,True
286,2214,target,canvas.Screen,12_0_0_35_5,response,727.1000000029817,59284.09999999404,59281.934,59298.6,60025.70000000298,60029.40000000596,2023-09-14T12:27:54.463Z,60048.57,response_natural,n,fort,GOAT,Inc_Synth_Nat,long,incongruent,n,n,True
293,2214,target,canvas.Screen,12_0_0_36_5,response,770.0579999940383,60733.29999999702,60731.876,60748.542,61518.59999999404,61522.40000000596,2023-09-14T12:27:55.956Z,61531.844,response_natural,n,pear,PEAR,Con_Nat,long,congruent,n,n,True
300,2214,target,canvas.Screen,12_0_0_37_5,response,762.5500000029788,62201.90000000596,62198.484,62215.15,62977.70000000298,62981.59999999404,2023-09-14T12:27:57.415Z,62998.452,response_manmade,m,shoe,COUCH,Inc_Synth_Synth,long,incongruent,m,m,True
307,2214,target,canvas.Screen,12_0_0_38_5,response,1063.076000000001,63683.40000000596,63681.758,63698.424,64761.5,64765.59999999404,2023-09-14T12:27:59.199Z,64781.714,response_natural,n,stair,STAIR,Con_Synth,long,congruent,m,m,False
314,2214,target,canvas.Screen,12_0_0_39_5,response,701.3089999970252,65542.79999999702,65540.325,65556.991,66258.29999999702,66262.20000000298,2023-09-14T12:28:00.696Z,66273.629,response_manmade,m,canon,CANON,Con_Synth,long,congruent,m,m,True
321,2214,target,canvas.Screen,12_0_0_40_5,response,646.3349999940401,67024.40000000596,67023.599,67040.265,67686.59999999404,67690.0,2023-09-14T12:28:02.124Z,67706.905,response_natural,n,pipe,LION,Inc_Synth_Nat,long,incongruent,n,n,True
328,2214,target,canvas.Screen,12_0_0_41_5,response,650.5589999940421,68458.40000000596,68456.875,68473.541,69124.09999999404,69127.79999999702,2023-09-14T12:28:03.561Z,69140.181,response_manmade,m,moose,PORCH,Inc_Nat_Synth,long,incongruent,m,m,True
335,2214,target,canvas.Screen,12_0_0_42_5,response,827.583000005965,69892.5,69890.151,69906.817,70734.40000000596,70737.5,2023-09-14T12:28:05.171Z,70740.117,response_manmade,m,roof,PIANO,Inc_Synth_Synth,long,incongruent,m,m,True
342,2214,target,canvas.Screen,12_0_0_43_5,response,828.4470000029833,71492.5,71490.087,71506.753,72335.20000000298,72338.5,2023-09-14T12:28:06.772Z,72356.719,response_manmade,m,soap,PONY,Inc_Synth_Nat,long,incongruent,n,n,False
349,2214,target,canvas.Screen,12_0_0_44_5,response,610.8450000029843,73111.0,73106.689,73123.355,73734.20000000298,73737.70000000298,2023-09-14T12:28:08.171Z,73756.663,response_manmade,m,broom,BROOM,Con_Synth,long,congruent,m,m,True
356,2214,target,canvas.Screen,12_0_0_45_5,response,494.6010000059614,74509.20000000298,74506.633,74523.299,75017.90000000596,75021.40000000596,2023-09-14T12:28:09.455Z,75023.279,response_manmade,m,tongs,TONGS,Con_Synth,long,congruent,m,m,True
363,2214,target,canvas.Screen,12_0_0_46_5,response,480.40000000596046,75773.09999999404,75771.834,75788.5,76268.90000000596,76271.90000000596,2023-09-14T12:28:10.706Z,76288.48,response_natural,n,stick,STICK,Con_Nat,long,congruent,n,n,True
370,2214,target,canvas.Screen,12_0_0_47_5,response,572.983999994045,77039.29999999702,77038.45,77055.116,77628.09999999404,77631.40000000596,2023-09-14T12:28:12.065Z,77638.426,response_manmade,m,eagle,WAGON,Inc_Nat_Synth,long,incongruent,m,m,True
377,2214,target,canvas.Screen,12_0_0_48_5,response,823.7379999970144,78391.5,78388.396,78405.062,79228.79999999702,79231.90000000596,2023-09-14T12:28:13.666Z,79238.362,response_manmade,m,cake,TRASH,Inc_Synth_Synth,long,incongruent,m,m,True
384,2214,target,canvas.Screen,12_0_0_49_5,response,539.0019999999931,79991.5,79988.332,80004.998,80544.0,80547.20000000298,2023-09-14T12:28:14.981Z,80554.976,response_natural,n,storm,LAND,Inc_Nat_Nat,long,incongruent,m,m,False
391,2214,target,canvas.Screen,12_0_0_50_5,response,618.9879999940458,81305.79999999702,81304.946,81321.612,81940.59999999404,81943.70000000298,2023-09-14T12:28:16.378Z,81954.92,response_manmade,m,apron,APRON,Con_Synth,long,congruent,m,m,True
398,2214,target,canvas.Screen,12_0_0_51_5,response,470.2439999970229,82708.59999999404,82704.89,82721.556,83191.79999999702,83195.29999999702,2023-09-14T12:28:17.629Z,83204.87,response_natural,n,wasp,WASP,Con_Nat,long,congruent,n,n,True
405,2214,target,canvas.Screen,12_0_0_52_5,response,682.1940000029863,83956.59999999404,83954.84,83971.506,84653.70000000298,84656.90000000596,2023-09-14T12:28:19.091Z,84671.478,response_natural,n,earth,EARTH,Con_Nat,long,congruent,n,n,True
412,2214,target,canvas.Screen,12_0_0_53_5,response,639.5860000029788,85423.0,85421.448,85438.114,86077.70000000298,86081.09999999404,2023-09-14T12:28:20.515Z,86091.705,response_natural,n,sink,LAMB,Inc_Synth_Nat,long,incongruent,n,n,True
419,2214,target,canvas.Screen,12_0_0_54_5,response,636.2589999940392,86843.29999999702,86841.675,86858.341,87494.59999999404,87498.20000000298,2023-09-14T12:28:21.932Z,87508.315,response_manmade,m,flood,SKIRT,Inc_Nat_Synth,long,incongruent,m,m,True
426,2214,target,canvas.Screen,12_0_0_55_5,response,641.3489999970188,88260.40000000596,88258.285,88274.951,88916.29999999702,88919.70000000298,2023-09-14T12:28:23.354Z,88924.925,response_manmade,m,wheat,BRICK,Inc_Nat_Synth,long,incongruent,m,m,True
433,2214,target,canvas.Screen,12_0_0_56_5,response,771.7389999970183,89676.59999999404,89674.895,89691.561,90463.29999999702,90467.40000000596,2023-09-14T12:28:24.901Z,90474.863,response_natural,n,boar,BOAR,Con_Nat,long,congruent,n,n,True
440,2214,target,canvas.Screen,12_0_0_57_5,response,559.0010000000038,91228.70000000298,91224.833,91241.499,91800.5,91803.70000000298,2023-09-14T12:28:26.238Z,91808.143,response_manmade,m,shark,HILL,Inc_Nat_Nat,long,incongruent,m,m,True
447,2214,target,canvas.Screen,12_0_0_58_5,response,914.4210000029852,92559.5,92558.113,92574.779,93489.20000000298,93492.0,2023-09-14T12:28:27.926Z,93508.075,response_natural,n,swan,SWAN,Con_Nat,long,congruent,n,n,True
454,2214,target,canvas.Screen,12_0_0_59_5,response,582.5889999970241,94260.5,94258.045,94274.711,94857.29999999702,94860.70000000298,2023-09-14T12:28:29.295Z,94874.687,response_manmade,m,ocean,TREE,Inc_Nat_Nat,long,incongruent,m,m,True
463,2214,target,canvas.Screen,12_1_0_0_4,response,559.1010000029783,111441.70000000298,111439.933,111456.599,112015.70000000298,112018.90000000596,2023-09-14T12:28:46.453Z,112023.243,response_natural,n,rail,SQUID,Inc_Synth_Nat,short,incongruent,n,n,True
469,2214,target,canvas.Screen,12_1_0_1_4,response,427.8510000059614,112692.20000000298,112689.883,112706.549,113134.40000000596,113137.5,2023-09-14T12:28:47.572Z,113139.865,response_natural,n,cobra,TWIG,Inc_Nat_Nat,short,incongruent,n,n,True
475,2214,target,canvas.Screen,12_1_0_2_4,response,523.3289999999979,113809.59999999404,113806.505,113823.171,114346.5,114349.70000000298,2023-09-14T12:28:48.784Z,114356.483,response_natural,n,goose,GOOSE,Con_Nat,short,congruent,n,n,True
481,2214,target,canvas.Screen,12_1_0_3_4,response,708.7109999999957,115025.40000000596,115023.123,115039.789,115748.5,115751.79999999702,2023-09-14T12:28:50.186Z,115756.427,response_manmade,m,ladle,CAFÉ,Inc_Synth_Synth,short,incongruent,m,m,True
487,2214,target,canvas.Screen,12_1_0_4_4,response,778.5669999970269,116425.5,116423.067,116439.733,117218.29999999702,117221.5,2023-09-14T12:28:51.656Z,117223.035,response_manmade,m,spade,SHELF,Inc_Synth_Synth,short,incongruent,m,m,True
493,2214,target,canvas.Screen,12_1_0_5_4,response,587.7589999940392,117892.09999999404,117889.675,117906.341,118494.09999999404,118497.40000000596,2023-09-14T12:28:52.932Z,118506.317,response_manmade,m,toad,GLOVE,Inc_Nat_Synth,short,incongruent,m,m,True
499,2214,target,canvas.Screen,12_1_0_6_4,response,725.6769999970129,119174.70000000298,119172.957,119189.623,119915.29999999702,119918.40000000596,2023-09-14T12:28:54.353Z,119922.927,response_natural,n,grass,GRASS,Con_Nat,short,congruent,n,n,True
505,2214,target,canvas.Screen,12_1_0_7_4,response,494.96700000298733,120593.5,120589.567,120606.233,121101.20000000298,121104.29999999702,2023-09-14T12:28:55.539Z,121106.213,response_manmade,m,mice,TOOLS,Inc_Nat_Synth,short,incongruent,m,m,True
511,2214,target,canvas.Screen,12_1_0_8_4,response,731.8910000029864,121788.0,121786.643,121803.309,122535.20000000298,122538.59999999404,2023-09-14T12:28:56.973Z,122553.279,response_natural,n,finch,SLOTH,Inc_Nat_Nat,short,incongruent,m,m,False
517,2214,target,canvas.Screen,12_1_0_9_4,response,663.2149999970134,123223.0,123219.919,123236.585,123899.79999999702,123903.20000000298,2023-09-14T12:28:58.338Z,123919.891,response_natural,n,paint,PAINT,Con_Synth,short,congruent,m,m,False
523,2214,target,canvas.Screen,12_1_0_10_4,response,499.70300000596035,124588.20000000298,124586.531,124603.197,125102.90000000596,125106.40000000596,2023-09-14T12:28:59.541Z,125119.843,response_natural,n,kiosk,SOFA,Inc_Synth_Synth,short,incongruent,m,m,False
529,2214,target,canvas.Screen,12_1_0_11_4,response,630.8509999999951,125787.79999999702,125786.483,125803.149,126434.0,126437.29999999702,2023-09-14T12:29:00.872Z,126453.123,response_manmade,m,water,MEDAL,Inc_Nat_Synth,short,incongruent,m,m,True
535,2214,target,canvas.Screen,12_1_0_12_4,response,867.2710000029765,127121.20000000298,127119.763,127136.429,128003.70000000298,128006.79999999702,2023-09-14T12:29:02.441Z,128019.727,response_manmade,m,crow,YACHT,Inc_Nat_Synth,short,incongruent,m,m,True
541,2214,target,canvas.Screen,12_1_0_13_4,response,788.6670000029844,128689.20000000298,128686.367,128703.033,129491.70000000298,129495.0,2023-09-14T12:29:03.930Z,129503.001,response_natural,n,torch,CHIMP,Inc_Synth_Nat,short,incongruent,n,n,True
547,2214,target,canvas.Screen,12_1_0_14_4,response,707.5930000059598,130171.90000000596,130169.641,130186.307,130893.90000000596,130897.20000000298,2023-09-14T12:29:05.332Z,130902.945,response_manmade,m,leaf,COIN,Inc_Nat_Synth,short,incongruent,m,m,True
553,2214,target,canvas.Screen,12_1_0_15_4,response,997.4149999940419,131579.79999999702,131578.519,131595.185,132592.59999999404,132596.29999999702,2023-09-14T12:29:07.031Z,132611.811,response_manmade,m,wharf,RAZOR,Inc_Synth_Synth,short,incongruent,m,m,True
559,2214,target,canvas.Screen,12_1_0_16_4,response,701.4829999940412,133280.79999999702,133278.451,133295.117,133996.59999999404,133999.90000000596,2023-09-14T12:29:08.435Z,134011.755,response_manmade,m,gate,GATE,Con_Synth,short,congruent,m,m,True
565,2214,target,canvas.Screen,12_1_0_17_4,response,709.439000000013,134681.0,134678.395,134695.061,135404.5,135408.0,2023-09-14T12:29:09.843Z,135411.699,response_natural,n,spear,MOTH,Inc_Synth_Nat,short,incongruent,n,n,True
571,2214,target,canvas.Screen,12_1_0_18_4,response,962.5949999940349,136081.0,136078.339,136095.005,137057.59999999404,137060.79999999702,2023-09-14T12:29:11.496Z,137061.633,response_natural,n,whale,WHALE,Con_Nat,short,congruent,n,n,True
577,2214,target,canvas.Screen,12_1_0_19_4,response,843.3609999970067,137731.5,137728.273,137744.939,138588.29999999702,138591.90000000596,2023-09-14T12:29:13.027Z,138594.905,response_manmade,m,camel,BENCH,Inc_Nat_Synth,short,incongruent,m,m,True
583,2214,target,canvas.Screen,12_1_0_20_4,response,774.1890000059502,139262.40000000596,139261.545,139278.211,140052.40000000596,140055.59999999404,2023-09-14T12:29:14.490Z,140061.513,response_manmade,m,rope,ROPE,Con_Synth,short,congruent,m,m,True
589,2214,target,canvas.Screen,12_1_0_21_4,response,694.4809999970312,140729.79999999702,140728.153,140744.819,141439.29999999702,141442.5,2023-09-14T12:29:15.877Z,141444.791,response_natural,n,toast,TOAST,Con_Synth,short,congruent,m,m,False
595,2214,target,canvas.Screen,12_1_0_22_4,response,765.5580000029877,142118.20000000298,142114.976,142131.642,142897.20000000298,142900.59999999404,2023-09-14T12:29:17.335Z,142914.944,response_manmade,m,mail,MAIL,Con_Synth,short,congruent,m,m,True
601,2214,target,canvas.Screen,12_1_0_23_4,response,756.75,143586.40000000596,143581.584,143598.25,144355.0,144358.29999999702,2023-09-14T12:29:18.793Z,144364.886,response_natural,n,rake,HUSKY,Inc_Synth_Nat,short,incongruent,n,n,True
607,2214,target,canvas.Screen,12_1_0_24_4,response,759.9079999940295,145032.90000000596,145031.526,145048.192,145808.09999999404,145811.29999999702,2023-09-14T12:29:20.246Z,145814.828,response_natural,n,ruler,PANSY,Inc_Synth_Nat,short,incongruent,n,n,True
613,2214,target,canvas.Screen,12_1_0_25_4,response,1086.9659999940486,146483.90000000596,146481.468,146498.134,147585.09999999404,147588.5,2023-09-14T12:29:22.023Z,147598.09,response_manmade,m,lime,GULLY,Inc_Nat_Nat,short,incongruent,n,n,False
619,2214,target,canvas.Screen,12_1_0_26_4,response,933.5040000059525,148268.90000000596,148264.73,148281.396,149214.90000000596,149218.20000000298,2023-09-14T12:29:23.653Z,149231.358,response_natural,n,creek,CREEK,Con_Nat,short,congruent,n,n,True
625,2214,target,canvas.Screen,12_1_0_27_4,response,615.2360000059707,149902.0,149897.998,149914.664,150529.90000000596,150533.59999999404,2023-09-14T12:29:24.968Z,150547.972,response_natural,n,hawk,HAWK,Con_Nat,short,congruent,n,n,True
631,2214,target,canvas.Screen,12_1_0_28_4,response,676.5219999970286,151216.59999999404,151214.612,151231.278,151907.79999999702,151911.0,2023-09-14T12:29:26.346Z,151914.584,response_manmade,m,coat,COAT,Con_Synth,short,congruent,m,m,True
637,2214,target,canvas.Screen,12_1_0_29_4,response,816.8059999940451,152587.29999999702,152584.128,152600.794,153417.59999999404,153421.0,2023-09-14T12:29:27.856Z,153434.094,response_natural,n,seed,SEED,Con_Nat,short,congruent,n,n,True
643,2214,target,canvas.Screen,12_1_0_30_4,response,574.300000002986,154101.90000000596,154100.734,154117.4,154691.70000000298,154694.90000000596,2023-09-14T12:29:29.130Z,154700.71,response_natural,n,daisy,DAISY,Con_Nat,short,congruent,n,n,True
649,2214,target,canvas.Screen,12_1_0_31_4,response,613.4839999999967,155369.0,155367.35,155384.016,155997.5,156000.59999999404,2023-09-14T12:29:30.436Z,156017.324,response_natural,n,arena,VINE,Inc_Synth_Nat,short,incongruent,n,n,True
655,2214,target,canvas.Screen,12_1_0_32_4,response,567.0700000029756,156685.79999999702,156683.964,156700.63,157267.70000000298,157271.29999999702,2023-09-14T12:29:31.706Z,157283.94,response_manmade,m,belt,BELT,Con_Synth,short,congruent,m,m,True
661,2214,target,canvas.Screen,12_1_0_33_4,response,627.2539999999863,157952.59999999404,157950.58,157967.246,158594.5,158597.79999999702,2023-09-14T12:29:33.033Z,158600.554,response_natural,n,frog,FROG,Con_Nat,short,congruent,n,n,True
667,2214,target,canvas.Screen,12_1_0_34_4,response,584.640000000014,159270.0,159267.194,159283.86,159868.5,159872.0,2023-09-14T12:29:34.307Z,159883.836,response_natural,n,grape,LLAMA,Inc_Nat_Nat,short,incongruent,n,n,True
673,2214,target,canvas.Screen,12_1_0_35_4,response,544.3580000000075,160554.20000000298,160550.476,160567.142,161111.5,161115.0,2023-09-14T12:29:35.550Z,161117.12,response_manmade,m,puppy,PUPPY,Con_Nat,short,congruent,n,n,False
679,2214,target,canvas.Screen,12_1_0_36_4,response,710.9740000059537,161787.09999999404,161783.76,161800.426,162511.40000000596,162515.20000000298,2023-09-14T12:29:36.950Z,162517.064,response_natural,n,soil,SOIL,Con_Nat,short,congruent,n,n,True
685,2214,target,canvas.Screen,12_1_0_37_4,response,1255.9570000029926,163197.79999999702,163196.577,163213.243,164469.20000000298,164472.79999999702,2023-09-14T12:29:38.908Z,164479.859,response_natural,n,worm,WORM,Con_Nat,short,congruent,n,n,True
691,2214,target,canvas.Screen,12_1_0_38_4,response,796.8349999999919,165150.90000000596,165146.499,165163.165,165960.0,165963.40000000596,2023-09-14T12:29:40.399Z,165979.799,response_natural,n,fern,PETAL,Inc_Nat_Nat,short,incongruent,n,n,True
697,2214,target,canvas.Screen,12_1_0_39_4,response,1013.9949999940291,166648.40000000596,166646.439,166663.105,167677.09999999404,167680.5,2023-09-14T12:29:42.116Z,167696.397,response_manmade,m,doll,DOLL,Con_Synth,short,congruent,m,m,True
703,2214,target,canvas.Screen,12_1_0_40_4,response,942.2969999999914,168365.70000000298,168363.037,168379.703,169322.0,169325.70000000298,2023-09-14T12:29:43.761Z,169329.665,response_manmade,m,bread,BREAD,Con_Synth,short,congruent,m,m,True
709,2214,target,canvas.Screen,12_1_0_41_4,response,912.0290000000095,169997.79999999702,169996.305,170012.971,170925.0,170928.40000000596,2023-09-14T12:29:45.364Z,170929.601,response_natural,n,berry,OTTER,Inc_Nat_Nat,short,incongruent,n,n,True
715,2214,target,canvas.Screen,12_1_0_42_4,response,1325.7930000029737,171599.29999999702,171596.241,171612.907,172938.70000000298,172941.59999999404,2023-09-14T12:29:47.377Z,172946.187,response_natural,n,cave,CAVE,Con_Nat,short,congruent,n,n,True
721,2214,target,canvas.Screen,12_1_0_43_4,response,789.1380000059726,173614.79999999702,173611.096,173627.762,174416.90000000596,174420.79999999702,2023-09-14T12:29:48.856Z,174427.73,response_manmade,m,peach,SHED,Inc_Nat_Synth,short,incongruent,m,m,True
727,2214,target,canvas.Screen,12_1_0_44_4,response,1109.5639999940468,175096.09999999404,175094.37,175111.036,176220.59999999404,176224.20000000298,2023-09-14T12:29:50.660Z,176227.658,response_manmade,m,drug,DRUG,Con_Synth,short,congruent,m,m,True
733,2214,target,canvas.Screen,12_1_0_45_4,response,698.5359999999928,176896.09999999404,176894.298,176910.964,177609.5,177613.29999999702,2023-09-14T12:29:52.049Z,177627.602,response_manmade,m,sash,CLOTH,Inc_Synth_Synth,short,incongruent,m,m,True
739,2214,target,canvas.Screen,12_1_0_46_4,response,649.6919999940437,178296.09999999404,178294.242,178310.908,178960.59999999404,178964.0,2023-09-14T12:29:53.399Z,178977.548,response_manmade,m,tank,TANK,Con_Synth,short,congruent,m,m,True
745,2214,target,canvas.Screen,12_1_0_47_4,response,554.6460000000079,179645.40000000596,179644.188,179660.854,180215.5,180219.20000000298,2023-09-14T12:29:54.655Z,180227.498,response_natural,n,deer,DEER,Con_Nat,short,congruent,n,n,True
751,2214,target,canvas.Screen,12_1_0_48_4,response,690.495999997016,180897.70000000298,180894.138,180910.804,181601.29999999702,181607.0,2023-09-14T12:29:56.042Z,181610.776,response_natural,n,sewer,CORAL,Inc_Synth_Nat,short,incongruent,n,n,True
757,2214,target,canvas.Screen,12_1_0_49_4,response,573.3180000059656,182280.0,182277.416,182294.082,182867.40000000596,182871.0,2023-09-14T12:29:57.306Z,182877.392,response_manmade,m,cable,CABLE,Con_Synth,short,congruent,m,m,True
763,2214,target,canvas.Screen,12_1_0_50_4,response,675.5210000029765,183552.09999999404,183550.013,183566.679,184242.20000000298,184245.59999999404,2023-09-14T12:29:58.681Z,184249.985,response_manmade,m,bike,BIKE,Con_Synth,short,congruent,m,m,True
769,2214,target,canvas.Screen,12_1_0_51_4,response,551.8089999940421,184918.0,184916.625,184933.291,185485.09999999404,185488.0,2023-09-14T12:29:59.923Z,185499.935,response_manmade,m,poppy,DINGO,Inc_Nat_Nat,short,incongruent,n,n,False
775,2214,target,canvas.Screen,12_1_0_52_4,response,605.0589999970107,186168.0,186166.575,186183.241,186788.29999999702,186792.0,2023-09-14T12:30:01.228Z,186799.883,response_natural,n,tiger,TIGER,Con_Nat,short,congruent,n,n,True
781,2214,target,canvas.Screen,12_1_0_53_4,response,500.81099999998696,187470.90000000596,187466.523,187483.189,187984.0,187986.79999999702,2023-09-14T12:30:02.422Z,187999.835,response_natural,n,patio,SPOON,Inc_Synth_Synth,short,incongruent,m,m,False
787,2214,target,canvas.Screen,12_1_0_54_4,response,716.059000002977,188671.70000000298,188666.475,188683.141,189399.20000000298,189403.09999999404,2023-09-14T12:30:03.839Z,189416.445,response_manmade,m,melon,HOSE,Inc_Nat_Synth,short,incongruent,m,m,True
793,2214,target,canvas.Screen,12_1_0_55_4,response,462.2490000000107,190085.20000000298,190083.085,190099.751,190562.0,190565.29999999702,2023-09-14T12:30:05.001Z,190566.399,response_manmade,m,tower,TOWER,Con_Synth,short,congruent,m,m,True
799,2214,target,canvas.Screen,12_1_0_56_4,response,785.3949999940523,191235.79999999702,191233.039,191249.705,192035.09999999404,192038.70000000298,2023-09-14T12:30:06.474Z,192049.673,response_manmade,m,sword,SWORD,Con_Synth,short,congruent,m,m,True
805,2214,target,canvas.Screen,12_1_0_57_4,response,551.8209999970277,192717.40000000596,192716.313,192732.979,193284.79999999702,193288.09999999404,2023-09-14T12:30:07.724Z,193299.623,response_natural,n,corn,CORN,Con_Nat,short,congruent,n,n,True
811,2214,target,canvas.Screen,12_1_0_58_4,response,700.3090000059747,193972.90000000596,193968.925,193985.591,194685.90000000596,194689.59999999404,2023-09-14T12:30:09.125Z,194702.229,response_manmade,m,silo,PLAZA,Inc_Synth_Synth,short,incongruent,m,m,True
817,2214,target,canvas.Screen,12_1_0_59_4,response,586.365000005957,195371.70000000298,195368.869,195385.535,195971.90000000596,195975.20000000298,2023-09-14T12:30:10.411Z,195985.511,response_natural,n,harp,SNAIL,Inc_Synth_Nat,short,incongruent,n,n,True
41,2213,target,canvas.Screen,12_0_0_0_5,response,1604.7019999999902,200400.40000009537,200398.746,200415.298,202020.0,202021.30000019073,2023-09-14T12:28:49.892Z,202031.597,response_manmade,m,taxi,CHAIN,Inc_Synth_Synth,long,incongruent,m,m,True
48,2213,target,canvas.Screen,12_0_0_1_5,timeout,1999.1229999999923,202733.30000019073,202731.649,202748.285,204731.26,204732.60000038147,2023-09-14T12:28:52.603Z,204747.408,,,sheep,BULL,Inc_Nat_Nat,long,incongruent,m,,False
55,2213,target,canvas.Screen,12_0_0_2_5,response,1616.5600003814616,205449.40000009537,205447.684,205464.04,207080.60000038147,207082.0,2023-09-14T12:28:54.952Z,207097.365,response_natural,n,canoe,CANOE,Con_Synth,long,congruent,m,m,False
62,2213,target,canvas.Screen,12_0_0_3_5,response,1495.606000095373,207799.10000038147,207797.319,207813.794,209309.40000009537,209310.7000002861,2023-09-14T12:28:57.181Z,209340.212,response_manmade,m,desk,CANDY,Inc_Synth_Synth,long,incongruent,m,m,True
69,2213,target,canvas.Screen,12_0_0_4_5,response,1503.0690000953618,210048.30000019073,210046.698,210063.331,211566.40000009537,211567.60000038147,2023-09-14T12:28:59.438Z,211579.637,response_manmade,m,wheat,BRICK,Inc_Nat_Synth,long,incongruent,m,m,True
76,2213,target,canvas.Screen,12_0_0_5_5,response,1069.2930000953784,212281.2000002861,212279.75,212296.107,213365.40000009537,213366.60000038147,2023-09-14T12:29:01.237Z,213379.075,response_manmade,m,jeans,JEANS,Con_Synth,long,congruent,m,m,True
83,2213,target,canvas.Screen,12_0_0_6_5,response,1745.900000381458,214081.10000038147,214079.376,214095.7,215841.60000038147,215843.0,2023-09-14T12:29:03.713Z,215866.149,response_natural,n,slug,SLUG,Con_Nat,long,congruent,n,n,True
90,2213,target,canvas.Screen,12_0_0_7_5,response,1765.546000381466,216580.5,216578.951,216595.554,218361.10000038147,218362.30000019073,2023-09-14T12:29:06.233Z,218378.112,response_manmade,m,apron,APRON,Con_Synth,long,congruent,m,m,True
97,2213,target,canvas.Screen,12_0_0_8_5,response,974.453000190726,219080.0,219078.418,219094.847,220069.30000019073,220070.60000038147,2023-09-14T12:29:07.941Z,220077.806,response_natural,n,bowl,WOLF,Inc_Synth_Nat,long,incongruent,n,n,True
104,2213,target,canvas.Screen,12_0_0_9_5,timeout,1999.1579999999958,220829.60000038147,220828.081,220844.752,222827.692,222828.90000009537,2023-09-14T12:29:10.699Z,222843.91,,,mall,BUSH,Inc_Synth_Nat,long,incongruent,n,,False
111,2213,target,canvas.Screen,12_0_0_10_5,response,1126.6160000953532,223596.0,223594.215,223610.784,224737.40000009537,224738.5,2023-09-14T12:29:12.609Z,224743.55,response_natural,n,shark,HILL,Inc_Nat_Nat,long,incongruent,m,m,False
118,2213,target,canvas.Screen,12_0_0_11_5,response,1703.8020001907425,225495.30000019073,225493.841,225510.498,227214.30000019073,227215.60000038147,2023-09-14T12:29:15.086Z,227226.324,response_natural,n,swan,SWAN,Con_Nat,long,congruent,n,n,True
125,2213,target,canvas.Screen,12_0_0_12_5,response,891.7100001907384,227978.10000038147,227976.641,227993.09,228884.80000019073,228885.90000009537,2023-09-14T12:29:16.756Z,228892.694,response_natural,n,ocean,TREE,Inc_Nat_Nat,long,incongruent,m,m,False
132,2213,target,canvas.Screen,12_0_0_13_5,response,1282.8530003814667,229644.5,229643.036,229659.247,230942.10000038147,230943.5,2023-09-14T12:29:18.814Z,230959.396,response_manmade,m,cloud,MOTEL,Inc_Nat_Synth,long,incongruent,m,m,True
139,2213,target,canvas.Screen,12_0_0_14_5,response,1510.1950002860976,231710.7000002861,231709.264,231726.005,233236.2000002861,233237.5,2023-09-14T12:29:21.108Z,233241.822,response_manmade,m,ferry,FERRY,Con_Synth,long,congruent,m,m,True
146,2213,target,canvas.Screen,12_0_0_15_5,response,947.2120003814634,233993.80000019073,233992.167,234008.388,234955.60000038147,234957.0,2023-09-14T12:29:22.827Z,234975.141,response_manmade,m,scarf,SCARF,Con_Synth,long,congruent,m,m,True
153,2213,target,canvas.Screen,12_0_0_16_5,response,1114.8680002861074,235726.7000002861,235725.168,235741.832,236856.7000002861,236857.90000009537,2023-09-14T12:29:24.728Z,236874.652,response_natural,n,swamp,DRILL,Inc_Nat_Synth,long,incongruent,m,m,False
160,2213,target,canvas.Screen,12_0_0_17_5,response,1762.1910002861114,237626.10000038147,237624.595,237641.009,239403.2000002861,239404.5,2023-09-14T12:29:27.275Z,239407.363,response_manmade,m,linen,LINEN,Con_Synth,long,congruent,m,m,True
167,2213,target,canvas.Screen,12_0_0_18_5,response,1522.290000381472,240159.30000019073,240157.676,240174.31,241696.60000038147,241697.90000009537,2023-09-14T12:29:29.568Z,241706.851,response_manmade,m,arrow,ARROW,Con_Synth,long,congruent,m,m,True
174,2213,target,canvas.Screen,12_0_0_19_5,response,1640.9020001907484,242458.80000019073,242457.207,242473.398,244114.30000019073,244115.60000038147,2023-09-14T12:29:31.986Z,244123.091,response_manmade,m,eagle,WAGON,Inc_Nat_Synth,long,incongruent,m,m,True
181,2213,target,canvas.Screen,12_0_0_20_5,response,792.6200002861151,244875.10000038147,244873.408,244890.08,245682.7000002861,245684.0,2023-09-14T12:29:33.554Z,245689.448,response_natural,n,earth,EARTH,Con_Nat,long,congruent,n,n,True
188,2213,target,canvas.Screen,12_0_0_21_5,response,967.1410003814672,246441.40000009537,246439.772,246455.959,247423.10000038147,247424.5,2023-09-14T12:29:35.295Z,247439.243,response_manmade,m,olive,MOTOR,Inc_Nat_Synth,long,incongruent,m,m,True
195,2213,target,canvas.Screen,12_0_0_22_5,response,941.064000381477,248190.80000019073,248189.396,248206.036,249147.10000038147,249148.40000009537,2023-09-14T12:29:37.019Z,249155.479,response_manmade,m,stove,STOVE,Con_Synth,long,congruent,m,m,True
202,2213,target,canvas.Screen,12_0_0_23_5,response,1266.6280003814609,249907.2000002861,249905.73,249921.972,251188.60000038147,251190.0,2023-09-14T12:29:39.060Z,251205.403,response_manmade,m,wire,CABIN,Inc_Synth_Synth,long,incongruent,m,m,True
209,2213,target,canvas.Screen,12_0_0_24_5,timeout,1999.564000000013,251956.80000019073,251955.331,251972.05,253954.945,253956.2000002861,2023-09-14T12:29:41.827Z,253971.614,,,peas,PEAS,Con_Nat,long,congruent,n,,False
216,2213,target,canvas.Screen,12_0_0_25_5,response,1968.2270000953577,254723.0,254721.453,254737.673,256705.90000009537,256707.10000038147,2023-09-14T12:29:44.578Z,256737.723,response_natural,n,crate,CRATE,Con_Synth,long,congruent,m,m,False
223,2213,target,canvas.Screen,12_0_0_26_5,response,1354.685000095371,257489.2000002861,257487.521,257504.215,258858.90000009537,258860.30000019073,2023-09-14T12:29:46.731Z,258870.199,response_manmade,m,flask,FLASK,Con_Synth,long,congruent,m,m,True
230,2213,target,canvas.Screen,12_0_0_27_5,response,1118.884000381484,259622.0,259620.487,259636.716,260755.60000038147,260757.0,2023-09-14T12:29:48.627Z,260770.101,response_manmade,m,deck,PLATE,Inc_Synth_Synth,long,incongruent,m,m,True
237,2213,target,canvas.Screen,12_0_0_28_5,response,1211.6310000953672,261521.7000002861,261520.111,261536.769,262748.40000009537,262749.90000009537,2023-09-14T12:29:50.620Z,262752.772,response_natural,n,barn,TUNA,Inc_Synth_Nat,long,incongruent,n,n,True
244,2213,target,canvas.Screen,12_0_0_29_5,timeout,2000.0329999999958,263504.60000038147,263503.07,263519.29,265502.707,265504.10000038147,2023-09-14T12:29:53.375Z,265519.323,,,wasp,WASP,Con_Nat,long,congruent,n,,False
251,2213,target,canvas.Screen,12_0_0_30_5,response,1318.489000286092,266270.80000019073,266269.224,266285.711,267604.2000002861,267605.60000038147,2023-09-14T12:29:55.476Z,267618.64,response_natural,n,fruit,BEAR,Inc_Nat_Nat,long,incongruent,m,m,False
258,2213,target,canvas.Screen,12_0_0_31_5,response,1023.7960001907195,268370.30000019073,268368.78,268385.004,269408.80000019073,269410.0,2023-09-14T12:29:57.280Z,269418.125,response_natural,n,stone,STONE,Con_Nat,long,congruent,n,n,True
265,2213,target,canvas.Screen,12_0_0_32_5,response,1727.0900002861163,270169.90000009537,270168.432,270185.11,271912.2000002861,271913.60000038147,2023-09-14T12:29:59.784Z,271917.64,response_natural,n,crab,CRAB,Con_Nat,long,congruent,n,n,True
272,2213,target,canvas.Screen,12_0_0_33_5,response,1327.7140000953805,272669.40000009537,272667.947,272684.186,274011.90000009537,274013.2000002861,2023-09-14T12:30:01.884Z,274017.256,response_natural,n,lemon,DUCK,Inc_Nat_Nat,long,incongruent,m,m,False
279,2213,target,canvas.Screen,12_0_0_34_5,response,1334.0210002860986,274769.10000038147,274767.534,274784.179,276118.2000002861,276119.60000038147,2023-09-14T12:30:03.990Z,276133.832,response_manmade,m,tongs,TONGS,Con_Synth,long,congruent,m,m,True
286,2213,target,canvas.Screen,12_0_0_35_5,response,1216.7990001907456,276885.30000019073,276883.792,276900.001,278116.80000019073,278118.10000038147,2023-09-14T12:30:05.989Z,278133.51,response_manmade,m,roof,PIANO,Inc_Synth_Synth,long,incongruent,m,m,True
293,2213,target,canvas.Screen,12_0_0_36_5,response,882.0560002861312,278884.40000009537,278883.023,278899.644,279781.7000002861,279783.0,2023-09-14T12:30:07.653Z,279800.353,response_natural,n,fort,GOAT,Inc_Synth_Nat,long,incongruent,n,n,True
300,2213,target,canvas.Screen,12_0_0_37_5,response,1031.3390000953805,280551.2000002861,280549.645,280566.061,281597.40000009537,281598.80000019073,2023-09-14T12:30:09.469Z,281616.171,response_natural,n,sink,LAMB,Inc_Synth_Nat,long,incongruent,n,n,True
307,2213,target,canvas.Screen,12_0_0_38_5,response,1648.0030001907144,282367.40000009537,282366.01,282382.797,284030.80000019073,284032.10000038147,2023-09-14T12:30:11.903Z,284049.071,response_natural,n,hare,HARE,Con_Nat,long,congruent,n,n,True
314,2213,target,canvas.Screen,12_0_0_39_5,response,1660.0790002861177,284800.30000019073,284798.914,284815.121,286475.2000002861,286476.60000038147,2023-09-14T12:30:14.347Z,286481.528,response_natural,n,moose,PORCH,Inc_Nat_Synth,long,incongruent,m,m,False
321,2213,target,canvas.Screen,12_0_0_40_5,response,994.1880003814586,287233.40000009537,287231.735,287248.412,288242.60000038147,288243.90000009537,2023-09-14T12:30:16.114Z,288247.783,response_manmade,m,bell,WHEEL,Inc_Synth_Synth,long,incongruent,m,m,True
328,2213,target,canvas.Screen,12_0_0_41_5,response,1086.6510000000126,288999.7000002861,288998.096,289014.349,290101.0,290102.40000009537,2023-09-14T12:30:17.973Z,290114.116,response_natural,n,flood,SKIRT,Inc_Nat_Synth,long,incongruent,m,m,False
335,2213,target,canvas.Screen,12_0_0_42_5,response,1878.865000095393,290865.90000009537,290864.392,290881.035,292759.90000009537,292761.10000038147,2023-09-14T12:30:20.632Z,292780.681,response_natural,n,boar,BOAR,Con_Nat,long,congruent,n,n,True
342,2213,target,canvas.Screen,12_0_0_43_5,response,814.121000095387,293532.10000038147,293530.477,293546.779,294360.90000009537,294362.30000019073,2023-09-14T12:30:22.233Z,294380.378,response_manmade,m,bunny,ROSE,Inc_Nat_Nat,long,incongruent,m,m,True
349,2213,target,canvas.Screen,12_0_0_44_5,response,1201.7360003814683,295131.5,295129.916,295146.864,296348.60000038147,296349.90000009537,2023-09-14T12:30:24.220Z,296363.103,response_manmade,m,broom,BROOM,Con_Synth,long,congruent,m,m,True
356,2213,target,canvas.Screen,12_0_0_45_5,response,1416.3220002860762,297114.7000002861,297113.161,297129.378,298545.7000002861,298547.10000038147,2023-09-14T12:30:26.418Z,298562.598,response_manmade,m,clam,CLAM,Con_Nat,long,congruent,n,n,False
363,2213,target,canvas.Screen,12_0_0_46_5,response,1198.2650003814488,299314.2000002861,299312.746,299329.335,300527.60000038147,300529.0,2023-09-14T12:30:28.399Z,300545.772,response_manmade,m,cake,TRASH,Inc_Synth_Synth,long,incongruent,m,m,True
370,2213,target,canvas.Screen,12_0_0_47_5,response,955.6720003814553,301297.2000002861,301295.694,301311.928,302267.60000038147,302269.10000038147,2023-09-14T12:30:30.140Z,302278.359,response_manmade,m,shell,DIRT,Inc_Nat_Nat,long,incongruent,m,m,True
377,2213,target,canvas.Screen,12_0_0_48_5,response,1102.8850003814441,303030.2000002861,303028.684,303045.215,304148.10000038147,304149.30000019073,2023-09-14T12:30:32.020Z,304161.568,response_manmade,m,flute,FLUTE,Con_Synth,long,congruent,m,m,True
384,2213,target,canvas.Screen,12_0_0_49_5,response,1486.5430000953493,304913.10000038147,304911.648,304927.857,306414.40000009537,306415.80000019073,2023-09-14T12:30:34.286Z,306427.585,response_natural,n,storm,LAND,Inc_Nat_Nat,long,incongruent,m,m,False
391,2213,target,canvas.Screen,12_0_0_50_5,response,1067.932000095374,307179.30000019073,307177.837,307194.468,308262.40000009537,308263.60000038147,2023-09-14T12:30:36.134Z,308277.491,response_manmade,m,stair,STAIR,Con_Synth,long,congruent,m,m,True
398,2213,target,canvas.Screen,12_0_0_51_5,response,1507.474000286078,309028.90000009537,309027.512,309043.726,310551.2000002861,310552.60000038147,2023-09-14T12:30:38.423Z,310560.094,response_manmade,m,stick,STICK,Con_Nat,long,congruent,n,n,False
405,2213,target,canvas.Screen,12_0_0_52_5,response,1533.7740001907223,311311.80000019073,311310.386,311327.026,312860.80000019073,312861.90000009537,2023-09-14T12:30:40.732Z,312876.71,response_natural,n,moss,MOSS,Con_Nat,long,congruent,n,n,True
412,2213,target,canvas.Screen,12_0_0_53_5,response,1436.7720003814902,313628.0,313626.611,313642.828,315079.60000038147,315080.90000009537,2023-09-14T12:30:42.951Z,315092.691,response_natural,n,canon,CANON,Con_Synth,long,congruent,m,m,False
419,2213,target,canvas.Screen,12_0_0_54_5,response,1293.42600009538,315844.5,315842.842,315859.474,317152.90000009537,317154.10000038147,2023-09-14T12:30:45.025Z,317158.81,response_natural,n,plum,PLUM,Con_Nat,long,congruent,n,n,True
426,2213,target,canvas.Screen,12_0_0_55_5,response,1107.4540001907153,317910.80000019073,317909.135,317925.346,319032.80000019073,319034.10000038147,2023-09-14T12:30:46.905Z,319041.784,response_natural,n,pipe,LION,Inc_Synth_Nat,long,incongruent,n,n,True
433,2213,target,canvas.Screen,12_0_0_56_5,response,1373.4870002861135,319793.7000002861,319792.065,319808.713,321182.2000002861,321184.0,2023-09-14T12:30:49.054Z,321191.291,response_natural,n,soap,PONY,Inc_Synth_Nat,long,incongruent,n,n,True
440,2213,target,canvas.Screen,12_0_0_57_5,response,1448.030000095372,321943.2000002861,321941.629,321957.87,323405.90000009537,323407.2000002861,2023-09-14T12:30:51.278Z,323424.634,response_natural,n,pear,PEAR,Con_Nat,long,congruent,n,n,True
447,2213,target,canvas.Screen,12_0_0_58_5,response,1873.3099999999977,324176.10000038147,324174.587,324191.19,326064.5,326065.60000038147,2023-09-14T12:30:53.936Z,326090.81,response_manmade,m,shoe,COUCH,Inc_Synth_Synth,long,incongruent,m,m,True
454,2213,target,canvas.Screen,12_0_0_59_5,timeout,1999.734999999986,326842.30000019073,326840.625,326856.927,328840.256,328841.5,2023-09-14T12:30:56.712Z,328856.662,,,reef,REEF,Con_Nat,long,congruent,n,,False
463,2213,target,canvas.Screen,12_1_0_0_4,response,1525.072000190732,347988.2000002861,347986.561,348003.228,349528.30000019073,349529.60000038147,2023-09-14T12:31:17.400Z,349535.849,response_natural,n,creek,CREEK,Con_Nat,short,congruent,n,n,True
469,2213,target,canvas.Screen,12_1_0_1_4,response,1210.6360003814916,350204.40000009537,350202.786,350219.464,351430.10000038147,351431.30000019073,2023-09-14T12:31:19.302Z,351435.452,response_manmade,m,peach,SHED,Inc_Nat_Synth,short,incongruent,m,m,True
475,2213,target,canvas.Screen,12_1_0_2_4,response,1282.777000095346,352104.10000038147,352102.456,352118.623,353401.40000009537,353402.7000002861,2023-09-14T12:31:21.273Z,353418.809,response_manmade,m,water,MEDAL,Inc_Nat_Synth,short,incongruent,m,m,True
481,2213,target,canvas.Screen,12_1_0_3_4,response,1211.5329999999958,354087.10000038147,354085.396,354101.967,355313.5,355314.60000038147,2023-09-14T12:31:23.185Z,355318.029,response_manmade,m,coat,COAT,Con_Synth,short,congruent,m,m,True
487,2213,target,canvas.Screen,12_1_0_4_4,response,847.8470000000088,355986.2000002861,355984.865,356001.653,356849.5,356851.0,2023-09-14T12:31:24.721Z,356868.163,response_natural,n,tiger,TIGER,Con_Nat,short,congruent,n,n,True
493,2213,target,canvas.Screen,12_1_0_5_4,response,1205.4600001907093,357536.10000038147,357534.692,357551.34,358756.80000019073,358758.10000038147,2023-09-14T12:31:26.628Z,358767.376,response_natural,n,poppy,DINGO,Inc_Nat_Nat,short,incongruent,n,n,True
499,2213,target,canvas.Screen,12_1_0_6_4,response,1379.764000190713,359435.80000019073,359434.327,359450.536,360830.30000019073,360831.7000002861,2023-09-14T12:31:28.702Z,360856.575,response_manmade,m,corn,CORN,Con_Nat,short,congruent,n,n,False
505,2213,target,canvas.Screen,12_1_0_7_4,response,1600.270000190707,361535.60000038147,361533.93,361550.53,363150.80000019073,363152.10000038147,2023-09-14T12:31:31.022Z,363166.805,response_manmade,m,ruler,PANSY,Inc_Synth_Nat,short,incongruent,n,n,False
511,2213,target,canvas.Screen,12_1_0_8_4,response,976.7500001907465,363834.2000002861,363833.227,363850.05,364826.80000019073,364828.0,2023-09-14T12:31:32.698Z,364832.824,response_natural,n,grass,GRASS,Con_Nat,short,congruent,n,n,True
517,2213,target,canvas.Screen,12_1_0_9_4,response,996.76900028612,365501.30000019073,365499.821,365516.431,366513.2000002861,366514.5,2023-09-14T12:31:34.385Z,366532.926,response_natural,n,hawk,HAWK,Con_Nat,short,congruent,n,n,True
523,2213,target,canvas.Screen,12_1_0_10_4,response,1064.9130003814935,367200.90000009537,367199.385,367215.687,368280.60000038147,368281.80000019073,2023-09-14T12:31:36.152Z,368299.262,response_natural,n,frog,FROG,Con_Nat,short,congruent,n,n,True
529,2213,target,canvas.Screen,12_1_0_11_4,response,1377.4880000953563,368967.40000009537,368965.793,368982.412,370359.90000009537,370361.5,2023-09-14T12:31:38.232Z,370365.013,response_manmade,m,sword,SWORD,Con_Synth,short,congruent,m,m,True
535,2213,target,canvas.Screen,12_1_0_12_4,response,1222.8040000000037,371033.5,371032.048,371048.696,372271.5,372272.7000002861,2023-09-14T12:31:40.143Z,372281.677,response_manmade,m,bread,BREAD,Con_Synth,short,congruent,m,m,True
541,2213,target,canvas.Screen,12_1_0_13_4,response,837.5880003814818,372949.80000019073,372948.348,372965.012,373802.60000038147,373804.0,2023-09-14T12:31:41.674Z,373814.366,response_natural,n,goose,GOOSE,Con_Nat,short,congruent,n,n,True
547,2213,target,canvas.Screen,12_1_0_14_4,response,937.8680000000168,374482.90000009537,374481.372,374497.632,375435.5,375436.90000009537,2023-09-14T12:31:43.307Z,375447.437,response_manmade,m,doll,DOLL,Con_Synth,short,congruent,m,m,True
553,2213,target,canvas.Screen,12_1_0_15_4,response,840.6550003814627,376116.10000038147,376114.429,376130.945,376971.60000038147,376973.0,2023-09-14T12:31:44.843Z,376980.483,response_manmade,m,mice,TOOLS,Inc_Nat_Synth,short,incongruent,m,m,True
559,2213,target,canvas.Screen,12_1_0_16_4,response,1805.9459999999963,377648.40000009537,377647.048,377664.054,379470.0,379471.5,2023-09-14T12:31:47.342Z,379479.985,response_manmade,m,crow,YACHT,Inc_Nat_Synth,short,incongruent,m,m,True
565,2213,target,canvas.Screen,12_1_0_17_4,response,1170.6400001907605,380148.30000019073,380146.928,380163.66,381334.30000019073,381335.80000019073,2023-09-14T12:31:49.206Z,381346.218,response_manmade,m,paint,PAINT,Con_Synth,short,congruent,m,m,True
571,2213,target,canvas.Screen,12_1_0_18_4,response,974.941000095394,382014.7000002861,382013.241,382029.459,383004.40000009537,383006.0,2023-09-14T12:31:50.876Z,383012.666,response_manmade,m,toast,TOAST,Con_Synth,short,congruent,m,m,True
577,2213,target,canvas.Screen,12_1_0_19_4,response,881.9740002860781,383681.2000002861,383679.611,383696.226,384578.2000002861,384579.5,2023-09-14T12:31:52.450Z,384595.663,response_manmade,m,puppy,PUPPY,Con_Nat,short,congruent,n,n,False
583,2213,target,canvas.Screen,12_1_0_20_4,response,1323.9270002861158,385264.0,385262.612,385279.273,386603.2000002861,386604.40000009537,2023-09-14T12:31:54.475Z,386611.857,response_manmade,m,spear,MOTH,Inc_Synth_Nat,short,incongruent,n,n,False
589,2213,target,canvas.Screen,12_1_0_21_4,response,1569.623000286112,387280.40000009537,387278.869,387295.577,388865.2000002861,388866.60000038147,2023-09-14T12:31:56.737Z,388878.152,response_natural,n,lime,GULLY,Inc_Nat_Nat,short,incongruent,n,n,True
595,2213,target,canvas.Screen,12_1_0_22_4,response,1376.388000286126,389546.5,389545.107,389561.312,390937.7000002861,390938.5,2023-09-14T12:31:58.809Z,390944.367,response_manmade,m,sash,CLOTH,Inc_Synth_Synth,short,incongruent,m,m,True
601,2213,target,canvas.Screen,12_1_0_23_4,response,1292.7900001907256,391613.10000038147,391611.385,391628.01,392920.80000019073,392922.0,2023-09-14T12:32:00.793Z,392927.303,response_manmade,m,melon,HOSE,Inc_Nat_Synth,short,incongruent,m,m,True
607,2213,target,canvas.Screen,12_1_0_24_4,response,1167.9190000953386,393595.80000019073,393594.313,393610.981,394778.90000009537,394780.2000002861,2023-09-14T12:32:02.651Z,394794.072,response_natural,n,berry,OTTER,Inc_Nat_Nat,short,incongruent,n,n,True
613,2213,target,canvas.Screen,12_1_0_25_4,response,1155.2930003814981,395462.10000038147,395460.609,395477.307,396632.60000038147,396634.2000002861,2023-09-14T12:32:04.505Z,396643.229,response_manmade,m,spade,SHELF,Inc_Synth_Synth,short,incongruent,m,m,True
619,2213,target,canvas.Screen,12_1_0_26_4,response,906.819000190706,397311.7000002861,397310.251,397326.481,398233.30000019073,398234.7000002861,2023-09-14T12:32:06.106Z,398243.31,response_manmade,m,bike,BIKE,Con_Synth,short,congruent,m,m,True
625,2213,target,canvas.Screen,12_1_0_27_4,response,869.8430000953958,398911.7000002861,398909.959,398926.557,399796.40000009537,399797.5,2023-09-14T12:32:07.668Z,399809.316,response_manmade,m,harp,SNAIL,Inc_Synth_Nat,short,incongruent,n,n,False
631,2213,target,canvas.Screen,12_1_0_28_4,response,850.7050000000163,400477.7000002861,400476.288,400492.795,401343.5,401344.7000002861,2023-09-14T12:32:09.216Z,401359.428,response_manmade,m,patio,SPOON,Inc_Synth_Synth,short,incongruent,m,m,True
637,2213,target,canvas.Screen,12_1_0_29_4,response,1385.2230000953423,402027.30000019073,402025.848,402042.677,403427.90000009537,403429.2000002861,2023-09-14T12:32:11.300Z,403441.88,response_natural,n,cobra,TWIG,Inc_Nat_Nat,short,incongruent,n,n,True
643,2213,target,canvas.Screen,12_1_0_30_4,response,1445.565000286093,404110.40000009537,404108.92,404125.135,405570.7000002861,405571.90000009537,2023-09-14T12:32:13.443Z,405574.863,response_natural,n,rail,SQUID,Inc_Synth_Nat,short,incongruent,n,n,True
649,2213,target,canvas.Screen,12_1_0_31_4,response,730.6460003814427,406243.5,406241.837,406258.454,406989.10000038147,406990.7000002861,2023-09-14T12:32:14.862Z,407008.056,response_manmade,m,cable,CABLE,Con_Synth,short,congruent,m,m,True
655,2213,target,canvas.Screen,12_1_0_32_4,response,822.9650003814604,407676.30000019073,407674.892,407691.635,408514.60000038147,408515.90000009537,2023-09-14T12:32:16.387Z,408524.311,response_manmade,m,kiosk,SOFA,Inc_Synth_Synth,short,incongruent,m,m,True
661,2213,target,canvas.Screen,12_1_0_33_4,response,1213.7040003814618,409192.90000009537,409191.281,409207.896,410421.60000038147,410422.90000009537,2023-09-14T12:32:18.294Z,410440.944,response_manmade,m,silo,PLAZA,Inc_Synth_Synth,short,incongruent,m,m,True
667,2213,target,canvas.Screen,12_1_0_34_4,response,1081.437000286125,411108.80000019073,411107.441,411123.763,412205.2000002861,412206.5,2023-09-14T12:32:20.077Z,412223.973,response_manmade,m,drug,DRUG,Con_Synth,short,congruent,m,m,True
673,2213,target,canvas.Screen,12_1_0_35_4,response,1763.780000095372,412892.30000019073,412890.551,412907.12,414670.90000009537,414672.30000019073,2023-09-14T12:32:22.543Z,414690.153,response_natural,n,finch,SLOTH,Inc_Nat_Nat,short,incongruent,m,m,False
679,2213,target,canvas.Screen,12_1_0_36_4,response,1043.1199999999953,415358.2000002861,415356.725,415373.38,416416.5,416417.80000019073,2023-09-14T12:32:24.289Z,416422.799,response_natural,n,seed,SEED,Con_Nat,short,congruent,n,n,True
685,2213,target,canvas.Screen,12_1_0_37_4,response,814.3210002860869,417091.2000002861,417089.722,417106.379,417920.7000002861,417922.0,2023-09-14T12:32:25.793Z,417939.399,response_natural,n,deer,DEER,Con_Nat,short,congruent,n,n,True
691,2213,target,canvas.Screen,12_1_0_38_4,response,1221.444000190706,418607.5,418606.075,418622.356,419843.80000019073,419845.30000019073,2023-09-14T12:32:27.716Z,419855.368,response_natural,n,daisy,DAISY,Con_Nat,short,congruent,n,n,True
697,2213,target,canvas.Screen,12_1_0_39_4,response,997.0700000953511,420524.0,420522.376,420538.83,421535.90000009537,421537.2000002861,2023-09-14T12:32:29.408Z,421555.468,response_manmade,m,leaf,COIN,Inc_Nat_Synth,short,incongruent,m,m,True
703,2213,target,canvas.Screen,12_1_0_40_4,response,1526.2000000953558,422223.5,422222.047,422238.7,423764.90000009537,423766.0,2023-09-14T12:32:31.637Z,423771.314,response_manmade,m,wharf,RAZOR,Inc_Synth_Synth,short,incongruent,m,m,True
709,2213,target,canvas.Screen,12_1_0_41_4,response,1018.9440000953618,424439.80000019073,424438.296,424454.956,425473.90000009537,425475.30000019073,2023-09-14T12:32:33.346Z,425487.773,response_natural,n,cave,CAVE,Con_Nat,short,congruent,n,n,True
715,2213,target,canvas.Screen,12_1_0_42_4,response,1123.195000000007,426155.7000002861,426154.182,426170.805,427294.0,427295.40000009537,2023-09-14T12:32:35.166Z,427303.937,response_natural,n,soil,SOIL,Con_Nat,short,congruent,n,n,True
721,2213,target,canvas.Screen,12_1_0_43_4,response,1444.9710000000196,427972.7000002861,427970.942,427987.529,429432.5,429434.10000038147,2023-09-14T12:32:37.305Z,429436.931,response_natural,n,torch,CHIMP,Inc_Synth_Nat,short,incongruent,n,n,True
727,2213,target,canvas.Screen,12_1_0_44_4,response,1578.665000286128,430105.30000019073,430103.85,430120.535,431699.2000002861,431700.60000038147,2023-09-14T12:32:39.571Z,431703.098,response_natural,n,grape,LLAMA,Inc_Nat_Nat,short,incongruent,n,n,True
733,2213,target,canvas.Screen,12_1_0_45_4,response,1026.1650000953814,432371.5,432370.072,432386.735,433412.90000009537,433414.2000002861,2023-09-14T12:32:41.285Z,433419.346,response_manmade,m,rake,HUSKY,Inc_Synth_Nat,short,incongruent,n,n,False
739,2213,target,canvas.Screen,12_1_0_46_4,response,1153.2230000953423,434087.90000009537,434086.389,434102.677,435255.90000009537,435257.2000002861,2023-09-14T12:32:43.128Z,435269.069,response_manmade,m,tower,TOWER,Con_Synth,short,congruent,m,m,True
745,2213,target,canvas.Screen,12_1_0_47_4,response,1113.942000381474,435937.7000002861,435936.062,435952.658,437066.60000038147,437068.0,2023-09-14T12:32:44.939Z,437085.423,response_manmade,m,gate,GATE,Con_Synth,short,congruent,m,m,True
751,2213,target,canvas.Screen,12_1_0_48_4,response,994.20900019072,437753.80000019073,437752.347,437769.091,438763.30000019073,438764.7000002861,2023-09-14T12:32:46.636Z,438768.408,response_manmade,m,whale,WHALE,Con_Nat,short,congruent,n,n,False
757,2213,target,canvas.Screen,12_1_0_49_4,response,1191.8940000953735,439436.80000019073,439435.357,439452.006,440643.90000009537,440645.30000019073,2023-09-14T12:32:48.516Z,440651.262,response_manmade,m,fern,PETAL,Inc_Nat_Nat,short,incongruent,n,n,False
763,2213,target,canvas.Screen,12_1_0_50_4,timeout,1999.9990000000107,441319.80000019073,441318.309,441334.502,443317.965,443319.40000009537,2023-09-14T12:32:51.190Z,443334.501,,,rope,ROPE,Con_Synth,short,congruent,m,,False
769,2213,target,canvas.Screen,12_1_0_51_4,response,1369.0410001907148,444002.80000019073,444001.151,444017.759,445386.80000019073,445388.2000002861,2023-09-14T12:32:53.258Z,445400.425,response_natural,n,arena,VINE,Inc_Synth_Nat,short,incongruent,n,n,True
775,2213,target,canvas.Screen,12_1_0_52_4,response,1022.9440000000177,446068.80000019073,446067.388,446083.556,447106.5,447108.0,2023-09-14T12:32:54.978Z,447116.759,response_manmade,m,ladle,CAFÉ,Inc_Synth_Synth,short,incongruent,m,m,True
781,2213,target,canvas.Screen,12_1_0_53_4,response,1314.9520001907367,447785.10000038147,447783.711,447800.348,449115.30000019073,449117.0,2023-09-14T12:32:56.987Z,449133.008,response_natural,n,camel,BENCH,Inc_Nat_Synth,short,incongruent,m,m,False
787,2213,target,canvas.Screen,12_1_0_54_4,response,861.9080002860865,449801.40000009537,449799.984,449816.292,450678.2000002861,450679.5,2023-09-14T12:32:58.550Z,450682.677,response_manmade,m,belt,BELT,Con_Synth,short,congruent,m,m,True
793,2213,target,canvas.Screen,12_1_0_55_4,response,1019.9520002860809,451351.30000019073,451349.716,451366.248,452386.2000002861,452387.5,2023-09-14T12:33:00.258Z,452399.025,response_manmade,m,sewer,CORAL,Inc_Synth_Nat,short,incongruent,n,n,False
799,2213,target,canvas.Screen,12_1_0_56_4,response,1162.1530000953935,453067.60000038147,453066.012,453082.747,454244.90000009537,454246.40000009537,2023-09-14T12:33:02.117Z,454267.024,response_manmade,m,tank,TANK,Con_Synth,short,congruent,m,m,True
805,2213,target,canvas.Screen,12_1_0_57_4,response,837.1190003814409,454933.80000019073,454932.324,454948.981,455786.10000038147,455787.40000009537,2023-09-14T12:33:03.658Z,455798.493,response_manmade,m,mail,MAIL,Con_Synth,short,congruent,m,m,True
811,2213,target,canvas.Screen,12_1_0_58_4,response,653.4280003814492,456466.80000019073,456465.361,456481.672,457135.10000038147,457136.40000009537,2023-09-14T12:33:05.007Z,457148.127,response_manmade,m,worm,WORM,Con_Nat,short,congruent,n,n,False
817,2213,target,canvas.Screen,12_1_0_59_4,response,1048.7470000953763,457816.60000038147,457815.087,457831.653,458880.40000009537,458881.80000019073,2023-09-14T12:33:06.752Z,458898.191,response_manmade,m,toad,GLOVE,Inc_Nat_Synth,short,incongruent,m,m,True
40,2212,target,canvas.Screen,12_0_0_0_4,response,1467.8930000119144,80339.19999998808,80337.40000000596,80370.407,81838.30000001192,81840.30000001192,2023-09-14T12:26:39.601Z,81853.707,response_manmade,m,paint,PAINT,Con_Synth,short,congruent,m,m,True
46,2212,target,canvas.Screen,12_0_0_1_4,response,878.2090000000026,82522.40000000596,82520.441,82553.791,83432.0,83440.59999999404,2023-09-14T12:26:41.201Z,83487.204,response_manmade,m,cable,CABLE,Con_Synth,short,congruent,m,m,True
52,2212,target,canvas.Screen,12_0_0_2_4,response,1072.536999994045,84121.80000001192,84120.0,84137.063,85209.59999999404,85216.59999999404,2023-09-14T12:26:42.977Z,85253.753,response_manmade,m,rope,ROPE,Con_Synth,short,congruent,m,m,True
58,2212,target,canvas.Screen,12_0_0_3_4,response,651.6699999940465,85938.90000000596,85937.069,85970.43,86622.09999999404,86624.19999998808,2023-09-14T12:26:44.385Z,86637.04,response_natural,n,goose,GOOSE,Con_Nat,short,congruent,n,n,True
64,2212,target,canvas.Screen,12_0_0_4_4,response,1175.8840000119235,87301.19999998808,87300.19999998808,87320.416,88496.30000001192,88498.69999998808,2023-09-14T12:26:46.259Z,88503.739,response_natural,n,spear,MOTH,Inc_Synth_Nat,short,incongruent,n,n,True
70,2212,target,canvas.Screen,12_0_0_5_4,response,1137.949999988079,89209.0,89205.0,89253.75,90391.69999998808,90395.30000001192,2023-09-14T12:26:48.156Z,90453.757,response_natural,n,arena,VINE,Inc_Synth_Nat,short,incongruent,n,n,True
76,2212,target,canvas.Screen,12_0_0_6_4,response,1378.4059999880847,91122.59999999404,91120.508,91153.794,92532.19999998808,92536.80000001192,2023-09-14T12:26:50.298Z,92570.446,response_manmade,m,toad,GLOVE,Inc_Nat_Synth,short,incongruent,m,m,True
82,2212,target,canvas.Screen,12_0_0_7_4,response,973.570000000007,93249.19999998808,93247.09999999404,93270.43,94244.0,94249.40000000596,2023-09-14T12:26:52.010Z,94287.165,response_manmade,m,ladle,CAFÉ,Inc_Synth_Synth,short,incongruent,m,m,True
88,2212,target,canvas.Screen,12_0_0_8_4,response,922.6969999940338,94952.59999999404,94951.59999999404,94970.403,95893.09999999404,95898.5,2023-09-14T12:26:53.659Z,95937.118,response_manmade,m,spade,SHELF,Inc_Synth_Synth,short,incongruent,m,m,True
94,2212,target,canvas.Screen,12_0_0_9_4,response,981.6209999880812,96605.5,96603.763,96637.079,97618.69999998808,97623.5,2023-09-14T12:26:55.384Z,97670.485,response_manmade,m,sword,SWORD,Con_Synth,short,congruent,m,m,True
100,2212,target,canvas.Screen,12_0_0_10_4,response,644.5880000000034,98340.19999998808,98339.09999999404,98370.412,99015.0,99019.0,2023-09-14T12:26:56.780Z,99053.818,response_natural,n,tiger,TIGER,Con_Nat,short,congruent,n,n,True
106,2212,target,canvas.Screen,12_0_0_11_4,response,711.8069999940344,99723.19999998808,99722.09999999404,99753.793,100465.59999999404,100470.09999999404,2023-09-14T12:26:58.231Z,100520.441,response_natural,n,rake,HUSKY,Inc_Synth_Nat,short,incongruent,n,n,True
112,2212,target,canvas.Screen,12_0_0_12_4,response,735.2119999940332,101205.5,101203.758,101220.388,101955.59999999404,101960.30000001192,2023-09-14T12:26:59.721Z,102003.702,response_natural,n,worm,WORM,Con_Nat,short,congruent,n,n,True
118,2212,target,canvas.Screen,12_0_0_13_4,response,944.6900000059541,102673.40000000596,102672.40000000596,102703.71,103648.40000000596,103653.59999999404,2023-09-14T12:27:01.414Z,103670.705,response_natural,n,toast,TOAST,Con_Synth,short,congruent,m,m,False
124,2212,target,canvas.Screen,12_0_0_14_4,response,1224.1119999880757,104315.5,104314.5,104337.088,105561.19999998808,105565.5,2023-09-14T12:27:03.326Z,105603.851,response_manmade,m,sash,CLOTH,Inc_Synth_Synth,short,incongruent,m,m,True
130,2212,target,canvas.Screen,12_0_0_15_4,response,936.7460000119172,106252.80000001192,106252.09999999404,106287.054,107223.80000001192,107227.90000000596,2023-09-14T12:27:04.989Z,107237.127,response_manmade,m,water,MEDAL,Inc_Nat_Synth,short,incongruent,m,m,True
136,2212,target,canvas.Screen,12_0_0_16_4,response,896.6719999880734,107905.69999998808,107903.788,107920.528,108817.19999998808,108822.5,2023-09-14T12:27:06.583Z,108853.844,response_manmade,m,tower,TOWER,Con_Synth,short,congruent,m,m,True
142,2212,target,canvas.Screen,12_0_0_17_4,response,714.0780000119266,109538.80000001192,109537.078,109553.722,110267.80000001192,110272.69999998808,2023-09-14T12:27:08.033Z,110304.067,response_natural,n,deer,DEER,Con_Nat,short,congruent,n,n,True
148,2212,target,canvas.Screen,12_0_0_18_4,response,719.2279999940365,110938.40000000596,110937.69999998808,110970.372,111689.59999999404,111692.09999999404,2023-09-14T12:27:09.453Z,111703.756,response_natural,n,berry,OTTER,Inc_Nat_Nat,short,incongruent,n,n,True
154,2212,target,canvas.Screen,12_0_0_19_4,response,573.5829999880807,112372.19999998808,112370.445,112387.117,112960.69999998808,112964.59999999404,2023-09-14T12:27:10.725Z,113037.033,response_natural,n,frog,FROG,Con_Nat,short,congruent,n,n,True
160,2212,target,canvas.Screen,12_0_0_20_4,response,857.0829999880807,113708.80000001192,113708.09999999404,113737.117,114594.19999998808,114599.90000000596,2023-09-14T12:27:12.360Z,114637.202,response_manmade,m,patio,SPOON,Inc_Synth_Synth,short,incongruent,m,m,True
166,2212,target,canvas.Screen,12_0_0_21_4,response,751.3039999880857,115291.09999999404,115289.59999999404,115320.396,116071.69999998808,116075.69999998808,2023-09-14T12:27:13.836Z,116120.537,response_manmade,m,gate,GATE,Con_Synth,short,congruent,m,m,True
172,2212,target,canvas.Screen,12_0_0_22_4,response,1743.1919999940437,116805.59999999404,116803.19999998808,116820.408,118563.59999999404,118568.0,2023-09-14T12:27:16.328Z,118603.866,response_manmade,m,creek,CREEK,Con_Nat,short,congruent,n,n,False
178,2212,target,canvas.Screen,12_0_0_23_4,response,859.7049999880837,119256.19999998808,119253.751,119270.495,120130.19999998808,120135.40000000596,2023-09-14T12:27:17.896Z,120153.738,response_manmade,m,belt,BELT,Con_Synth,short,congruent,m,m,True
184,2212,target,canvas.Screen,12_0_0_24_4,response,782.541999994035,120808.40000000596,120807.5,120837.058,121619.59999999404,121625.59999999404,2023-09-14T12:27:19.386Z,121687.145,response_natural,n,seed,SEED,Con_Nat,short,congruent,n,n,True
190,2212,target,canvas.Screen,12_0_0_25_4,response,800.1399999880814,122357.90000000596,122357.09999999404,122387.06,123187.19999998808,123192.0,2023-09-14T12:27:20.952Z,123237.196,response_natural,n,rail,SQUID,Inc_Synth_Nat,short,incongruent,n,n,True
196,2212,target,canvas.Screen,12_0_0_26_4,response,634.606000005966,123885.09999999404,123884.19999998808,123903.794,124538.40000000596,124542.59999999404,2023-09-14T12:27:22.303Z,124570.44,response_natural,n,puppy,PUPPY,Con_Nat,short,congruent,n,n,True
202,2212,target,canvas.Screen,12_0_0_27_4,response,704.9100000119215,125252.59999999404,125251.69999998808,125270.39,125975.30000001192,125979.40000000596,2023-09-14T12:27:23.740Z,126020.463,response_natural,n,fern,PETAL,Inc_Nat_Nat,short,incongruent,n,n,True
208,2212,target,canvas.Screen,12_0_0_28_4,response,772.7109999999957,126731.69999998808,126731.0,126753.789,127526.5,127531.19999998808,2023-09-14T12:27:25.292Z,127571.232,response_natural,n,grape,LLAMA,Inc_Nat_Nat,short,incongruent,n,n,True
214,2212,target,canvas.Screen,12_0_0_29_4,response,617.2739999880723,128203.59999999404,128202.80000001192,128220.426,128837.69999998808,128841.5,2023-09-14T12:27:26.602Z,128870.475,response_natural,n,soil,SOIL,Con_Nat,short,congruent,n,n,True
220,2212,target,canvas.Screen,12_0_0_30_4,response,752.4180000000051,129572.09999999404,129570.417,129587.082,130339.5,130343.19999998808,2023-09-14T12:27:28.104Z,130387.117,response_manmade,m,mail,MAIL,Con_Synth,short,congruent,m,m,True
226,2212,target,canvas.Screen,12_0_0_31_4,response,837.4110000119254,131055.40000000596,131053.756,131070.389,131907.80000001192,131914.80000001192,2023-09-14T12:27:29.675Z,131937.088,response_natural,n,corn,CORN,Con_Nat,short,congruent,n,n,True
232,2212,target,canvas.Screen,12_0_0_32_4,response,1354.999000005948,132601.30000001192,132600.40000000596,132620.401,133975.40000000596,133979.5,2023-09-14T12:27:31.740Z,134003.754,response_natural,n,cobra,TWIG,Inc_Nat_Nat,short,incongruent,n,n,True
238,2212,target,canvas.Screen,12_0_0_33_4,response,900.2960000000021,134691.30000001192,134687.1,134703.704,135604.0,135609.59999999404,2023-09-14T12:27:33.370Z,135653.854,response_natural,n,hawk,HAWK,Con_Nat,short,congruent,n,n,True
244,2212,target,canvas.Screen,12_0_0_34_4,response,1567.1520000059681,136286.40000000596,136285.5,136303.748,137870.90000000596,137874.80000001192,2023-09-14T12:27:35.635Z,137903.963,response_manmade,m,wharf,RAZOR,Inc_Synth_Synth,short,incongruent,m,m,True
250,2212,target,canvas.Screen,12_0_0_35_4,response,880.9899999880872,138572.69999998808,138571.69999998808,138603.71,139484.69999998808,139492.19999998808,2023-09-14T12:27:37.253Z,139520.549,response_manmade,m,coat,COAT,Con_Synth,short,congruent,m,m,True
256,2212,target,canvas.Screen,12_0_0_36_4,response,1490.79500000595,140166.69999998808,140165.90000000596,140187.105,141677.90000000596,141681.40000000596,2023-09-14T12:27:39.442Z,141703.738,response_manmade,m,ruler,PANSY,Inc_Synth_Nat,short,incongruent,n,n,False
262,2212,target,canvas.Screen,12_0_0_37_4,response,1283.6219999880705,142364.69999998808,142363.80000001192,142387.078,143670.69999998808,143679.19999998808,2023-09-14T12:27:41.440Z,143720.441,response_manmade,m,peach,SHED,Inc_Nat_Synth,short,incongruent,m,m,True
268,2212,target,canvas.Screen,12_0_0_38_4,response,884.0089999940537,144363.80000001192,144363.19999998808,144387.091,145271.09999999404,145275.19999998808,2023-09-14T12:27:43.036Z,145303.81,response_natural,n,finch,SLOTH,Inc_Nat_Nat,short,incongruent,m,m,False
274,2212,target,canvas.Screen,12_0_0_39_4,response,785.5030000059633,145953.09999999404,145952.40000000596,145970.397,146755.90000000596,146760.0,2023-09-14T12:27:44.520Z,146803.786,response_natural,n,whale,WHALE,Con_Nat,short,congruent,n,n,True
280,2212,target,canvas.Screen,12_0_0_40_4,response,845.0190000119328,147432.69999998808,147432.0,147453.781,148298.80000001192,148302.90000000596,2023-09-14T12:27:46.063Z,148337.096,response_natural,n,poppy,DINGO,Inc_Nat_Nat,short,incongruent,n,n,True
286,2212,target,canvas.Screen,12_0_0_41_4,response,897.7740000059712,149006.59999999404,149005.59999999404,149037.126,149934.90000000596,149943.90000000596,2023-09-14T12:27:47.704Z,149987.253,response_natural,n,lime,GULLY,Inc_Nat_Nat,short,incongruent,n,n,True
292,2212,target,canvas.Screen,12_0_0_42_4,response,1140.8679999940505,150634.19999998808,150633.40000000596,150653.732,151794.59999999404,151799.19999998808,2023-09-14T12:27:49.560Z,151853.845,response_manmade,m,drug,DRUG,Con_Synth,short,congruent,m,m,True
298,2212,target,canvas.Screen,12_0_0_43_4,response,989.0469999999914,152506.40000000596,152505.40000000596,152520.453,153509.5,153513.30000001192,2023-09-14T12:27:51.274Z,153553.821,response_manmade,m,melon,HOSE,Inc_Nat_Synth,short,incongruent,m,m,True
304,2212,target,canvas.Screen,12_0_0_44_4,response,1181.686999994039,154201.80000001192,154200.80000001192,154220.413,155402.09999999404,155407.69999998808,2023-09-14T12:27:53.168Z,155437.162,response_manmade,m,cave,CAVE,Con_Nat,short,congruent,n,n,False
310,2212,target,canvas.Screen,12_0_0_45_4,response,1454.3220000059518,156105.59999999404,156103.76,156137.078,157591.40000000596,157595.5,2023-09-14T12:27:55.356Z,157637.206,response_manmade,m,camel,BENCH,Inc_Nat_Synth,short,incongruent,m,m,True
316,2212,target,canvas.Screen,12_0_0_46_4,response,804.3200000059733,158307.80000001192,158306.90000000596,158337.08,159141.40000000596,159146.90000000596,2023-09-14T12:27:56.907Z,159187.271,response_natural,n,sewer,CORAL,Inc_Synth_Nat,short,incongruent,n,n,True
322,2212,target,canvas.Screen,12_0_0_47_4,response,1814.9999999880674,159838.80000001192,159837.117,159853.7,161668.69999998808,161674.59999999404,2023-09-14T12:27:59.435Z,161720.52,response_manmade,m,silo,PLAZA,Inc_Synth_Synth,short,incongruent,m,m,True
328,2212,target,canvas.Screen,12_0_0_48_4,response,1108.807000005967,162363.59999999404,162362.80000001192,162387.093,163495.90000000596,163500.69999998808,2023-09-14T12:28:01.261Z,163553.809,response_manmade,m,crow,YACHT,Inc_Nat_Synth,short,incongruent,m,m,True
