url,sender,sender_type,sender_id,ended_on,duration,time_run,time_render,time_show,time_end,time_commit,timestamp,time_switch,response,response_action,prime,target,condition,soa_condition,congruence,correct_response,correctResponse,correct
4482,Wecome0,canvas.Screen,0,timeout,500.0,1198.0,1199.0,1217.0,1701.0,1704.0,2024-09-12T08:23:06.352Z,1717.0,,,,,,,,,,
4482,Wecome1,canvas.Screen,1,timeout,500.0,1705.0,1701.0,1717.0,2201.0,2201.0,2024-09-12T08:23:06.849Z,2217.0,,,,,,,,,,
4482,Wecome2,canvas.Screen,2,timeout,500.0,2202.0,2201.0,2217.0,2701.0,2701.0,2024-09-12T08:23:07.349Z,2717.0,,,,,,,,,,
4482,Wecome3,canvas.Screen,3,timeout,500.0,2702.0,2701.0,2717.0,3201.0,3202.0,2024-09-12T08:23:07.850Z,3217.0,,,,,,,,,,
4482,Instructions1,canvas.Screen,4,response,13495.0,3202.0,3201.0,3217.0,16696.0,16670.0,2024-09-12T08:23:21.317Z,16700.0,,keypress,,,,,,,,
4482,Instructions 1a,canvas.Screen,5,response,146.0,16670.0,16671.0,16700.0,16817.0,16789.0,2024-09-12T08:23:21.436Z,16801.0,,keypress,,,,,,,,
4482,Instructions2,canvas.Screen,6,response,2223.0,16789.0,16793.0,16801.0,19016.0,18990.000000000004,2024-09-12T08:23:23.637Z,19018.0,,keypress,,,,,,,,
4482,Instructions3,canvas.Screen,7,response,20056.0,18990.000000000004,18992.0,19018.0,39048.0,39020.0,2024-09-12T08:23:43.667Z,39051.0,,keypress,,,,,,,,
4482,Instructions4,canvas.Screen,8,response,5960.0,39020.0,39024.0,39051.0,44984.0,44956.0,2024-09-12T08:23:49.603Z,44985.0,,keypress,,,,,,,,
4482,Instructions5,canvas.Screen,9,response,14366.0,44957.0,44958.0,44985.0,59324.0,59295.0,2024-09-12T08:24:03.941Z,59319.0,,keypress(Space),,,,,,,,
4482,fixation,canvas.Screen,10_0_0,timeout,534.0,59296.0,59299.0,59319.0,59836.0,59837.0,2024-09-12T08:24:04.482Z,59853.0,,,iweonf,BOAT,practice,practice,practice,m,,
4482,mask1,canvas.Screen,10_0_1,timeout,33.0,59837.0,59836.0,59853.0,59869.0,59870.00000000001,2024-09-12T08:24:04.516Z,59886.0,,,iweonf,BOAT,practice,practice,practice,m,,
4482,prime,canvas.Screen,10_0_2,timeout,33.0,59870.00000000001,59869.0,59886.0,59903.0,59903.0,2024-09-12T08:24:04.549Z,59919.0,,,iweonf,BOAT,practice,practice,practice,m,,
4482,mask2,canvas.Screen,10_0_3,timeout,34.0,59904.0,59903.0,59919.0,59936.0,59937.00000000001,2024-09-12T08:24:04.582Z,59953.0,,,iweonf,BOAT,practice,practice,practice,m,,
4482,target,canvas.Screen,10_0_4,response,2938.0,59937.00000000001,59936.0,59953.0,62874.0,62846.0,2024-09-12T08:24:07.491Z,62869.0,response_manmade,keypress(m),iweonf,BOAT,practice,practice,practice,m,m,False
4482,Practice Sequence,flow.Sequence,10_0,completion,3555.0,59296.0,59299.0,59319.0,62874.0,62846.0,2024-09-12T08:24:07.492Z,62869.0,,,iweonf,BOAT,practice,practice,practice,m,,
4482,fixation,canvas.Screen,10_1_0,timeout,534.0,62846.0,62848.0,62869.0,63386.0,63387.0,2024-09-12T08:24:08.033Z,63403.0,,,snjghf,SHEEP,practice,practice,practice,n,,
4482,mask1,canvas.Screen,10_1_1,timeout,33.0,63387.0,63386.0,63403.0,63420.0,63420.0,2024-09-12T08:24:08.066Z,63436.0,,,snjghf,SHEEP,practice,practice,practice,n,,
4482,prime,canvas.Screen,10_1_2,timeout,33.0,63420.0,63420.0,63436.0,63452.0,63453.0,2024-09-12T08:24:08.099Z,63469.0,,,snjghf,SHEEP,practice,practice,practice,n,,
4482,mask2,canvas.Screen,10_1_3,timeout,34.0,63453.0,63452.0,63469.0,63486.0,63487.0,2024-09-12T08:24:08.133Z,63503.0,,,snjghf,SHEEP,practice,practice,practice,n,,
4482,target,canvas.Screen,10_1_4,response,1295.0000000000073,63487.0,63486.0,63503.0,64781.00000000001,64753.0,2024-09-12T08:24:09.399Z,64769.0,response_natural,keypress(n),snjghf,SHEEP,practice,practice,practice,n,n,False
4482,Practice Sequence,flow.Sequence,10_1,completion,1912.0000000000073,62846.0,62848.0,62869.0,64781.00000000001,64754.00000000001,2024-09-12T08:24:09.399Z,64769.0,,,snjghf,SHEEP,practice,practice,practice,n,,
4482,fixation,canvas.Screen,10_2_0,timeout,533.0,64754.00000000001,64755.0,64769.0,65286.0,65287.00000000001,2024-09-12T08:24:09.933Z,65302.0,,,abjdhjs,HORSE,practice,practice,practice,n,,
4482,mask1,canvas.Screen,10_2_1,timeout,34.0,65287.00000000001,65286.0,65302.0,65320.0,65321.0,2024-09-12T08:24:09.966Z,65336.0,,,abjdhjs,HORSE,practice,practice,practice,n,,
4482,prime,canvas.Screen,10_2_2,timeout,33.0,65321.0,65320.0,65336.0,65353.0,65352.99999999999,2024-09-12T08:24:09.999Z,65369.0,,,abjdhjs,HORSE,practice,practice,practice,n,,
4482,mask2,canvas.Screen,10_2_3,timeout,34.0,65354.0,65353.0,65369.0,65386.0,65387.0,2024-09-12T08:24:10.032Z,65403.0,,,abjdhjs,HORSE,practice,practice,practice,n,,
4482,target,canvas.Screen,10_2_4,response,1289.0,65387.0,65386.0,65403.0,66675.0,66647.0,2024-09-12T08:24:11.292Z,66670.0,response_natural,keypress(n),abjdhjs,HORSE,practice,practice,practice,n,n,False
4482,Practice Sequence,flow.Sequence,10_2,completion,1906.0,64754.00000000001,64755.0,64769.0,66675.0,66647.0,2024-09-12T08:24:11.293Z,66670.0,,,abjdhjs,HORSE,practice,practice,practice,n,,
4482,fixation,canvas.Screen,10_3_0,timeout,533.0,66648.0,66649.0,66670.0,67186.0,67187.0,2024-09-12T08:24:11.832Z,67203.0,,,nvoiuh,HOUSE,practice,practice,practice,m,,
4482,mask1,canvas.Screen,10_3_1,timeout,33.0,67187.0,67186.0,67203.0,67220.0,67220.0,2024-09-12T08:24:11.866Z,67236.0,,,nvoiuh,HOUSE,practice,practice,practice,m,,
4482,prime,canvas.Screen,10_3_2,timeout,33.0,67220.0,67220.0,67236.0,67253.0,67254.0,2024-09-12T08:24:11.899Z,67269.0,,,nvoiuh,HOUSE,practice,practice,practice,m,,
4482,mask2,canvas.Screen,10_3_3,timeout,34.0,67254.0,67253.0,67269.0,67286.0,67287.0,2024-09-12T08:24:11.932Z,67303.0,,,nvoiuh,HOUSE,practice,practice,practice,m,,
4482,target,canvas.Screen,10_3_4,response,1070.0,67287.0,67286.0,67303.0,68356.0,68327.0,2024-09-12T08:24:12.973Z,68353.0,response_manmade,keypress(m),nvoiuh,HOUSE,practice,practice,practice,m,m,False
4482,Practice Sequence,flow.Sequence,10_3,completion,1686.0,66647.0,66649.0,66670.0,68356.0,68328.0,2024-09-12T08:24:12.973Z,68353.0,,,nvoiuh,HOUSE,practice,practice,practice,m,,
4482,Practice Loop,flow.Loop,10,completion,9037.0,59296.0,59299.0,59319.0,68356.0,68328.0,2024-09-12T08:24:12.974Z,68353.0,,,,,,,,,,
4482,Practice complete,canvas.Screen,11,response,25001.0,68329.00000000001,68330.0,68353.0,93331.0,93302.0,2024-09-12T08:24:37.946Z,93319.0,,keypress,,,,,,,,
4482,fixation,canvas.Screen,12_0_0_0_0,timeout,535.0,93302.0,93304.0,93319.0,93837.0,93838.00000000001,2024-09-12T08:24:38.483Z,93854.0,,,storm,LAND,Inc_Nat_Nat,long,incongruent,m,,
4482,mask1,canvas.Screen,12_0_0_0_1,timeout,33.0,93838.00000000001,93837.0,93854.0,93871.0,93871.0,2024-09-12T08:24:38.516Z,93887.0,,,storm,LAND,Inc_Nat_Nat,long,incongruent,m,,
4482,prime,canvas.Screen,12_0_0_0_2,timeout,33.0,93871.0,93871.0,93887.0,93904.0,93905.0,2024-09-12T08:24:38.549Z,93920.0,,,storm,LAND,Inc_Nat_Nat,long,incongruent,m,,
4482,mask2,canvas.Screen,12_0_0_0_3,timeout,34.0,93905.0,93904.0,93920.0,93937.0,93938.0,2024-09-12T08:24:38.582Z,93954.0,,,storm,LAND,Inc_Nat_Nat,long,incongruent,m,,
4482,DELAY,canvas.Screen,12_0_0_0_4,timeout,83.0,93938.0,93937.0,93954.0,94021.0,94021.0,2024-09-12T08:24:38.666Z,94037.0,,,storm,LAND,Inc_Nat_Nat,long,incongruent,m,,
4482,target,canvas.Screen,12_0_0_0_5,response,1097.0,94022.0,94021.0,94037.0,95118.0,95087.0,2024-09-12T08:24:39.732Z,95104.0,response_manmade,keypress(m),storm,LAND,Inc_Nat_Nat,long,incongruent,m,m,False
4482,Trial Sequence,flow.Sequence,12_0_0_0,completion,1799.0,93302.0,93304.0,93319.0,95118.0,95088.00000000001,2024-09-12T08:24:39.732Z,95104.0,,,storm,LAND,Inc_Nat_Nat,long,incongruent,m,,
4482,fixation,canvas.Screen,12_0_0_1_0,timeout,533.0,95088.00000000001,95090.0,95104.0,95621.0,95622.0,2024-09-12T08:24:40.266Z,95637.0,,,jeans,JEANS,Con_Synth,long,congruent,m,,
4482,mask1,canvas.Screen,12_0_0_1_1,timeout,34.0,95622.0,95621.0,95637.0,95654.0,95654.0,2024-09-12T08:24:40.299Z,95671.0,,,jeans,JEANS,Con_Synth,long,congruent,m,,
4482,prime,canvas.Screen,12_0_0_1_2,timeout,33.0,95655.0,95654.0,95671.0,95687.0,95688.0,2024-09-12T08:24:40.332Z,95704.0,,,jeans,JEANS,Con_Synth,long,congruent,m,,
4482,mask2,canvas.Screen,12_0_0_1_3,timeout,33.0,95688.0,95687.0,95704.0,95720.0,95720.0,2024-09-12T08:24:40.365Z,95737.0,,,jeans,JEANS,Con_Synth,long,congruent,m,,
4482,DELAY,canvas.Screen,12_0_0_1_4,timeout,84.0,95721.0,95720.0,95737.0,95804.0,95805.0,2024-09-12T08:24:40.449Z,95821.0,,,jeans,JEANS,Con_Synth,long,congruent,m,,
4482,target,canvas.Screen,12_0_0_1_5,response,905.0,95805.0,95804.0,95821.0,96709.0,96678.0,2024-09-12T08:24:41.323Z,96704.0,response_manmade,keypress(m),jeans,JEANS,Con_Synth,long,congruent,m,m,False
4482,Trial Sequence,flow.Sequence,12_0_0_1,completion,1605.0,95088.00000000001,95090.0,95104.0,96709.0,96679.0,2024-09-12T08:24:41.323Z,96704.0,,,jeans,JEANS,Con_Synth,long,congruent,m,,
4482,fixation,canvas.Screen,12_0_0_2_0,timeout,533.0,96679.0,96681.0,96704.0,97221.0,97222.00000000001,2024-09-12T08:24:41.866Z,97237.0,,,stone,STONE,Con_Nat,long,congruent,n,,
4482,mask1,canvas.Screen,12_0_0_2_1,timeout,33.0,97222.00000000001,97221.0,97237.0,97254.0,97255.0,2024-09-12T08:24:41.899Z,97270.0,,,stone,STONE,Con_Nat,long,congruent,n,,
4482,prime,canvas.Screen,12_0_0_2_2,timeout,34.0,97255.0,97254.0,97270.0,97288.0,97288.0,2024-09-12T08:24:41.932Z,97304.0,,,stone,STONE,Con_Nat,long,congruent,n,,
4482,mask2,canvas.Screen,12_0_0_2_3,timeout,33.0,97288.0,97288.0,97304.0,97321.0,97321.0,2024-09-12T08:24:41.965Z,97337.0,,,stone,STONE,Con_Nat,long,congruent,n,,
4482,DELAY,canvas.Screen,12_0_0_2_4,timeout,90.0,97321.0,97321.0,97337.0,97404.0,97405.0,2024-09-12T08:24:42.049Z,97427.0,,,stone,STONE,Con_Nat,long,congruent,n,,
4482,target,canvas.Screen,12_0_0_2_5,response,954.0,97405.0,97404.0,97427.0,98358.0,98328.0,2024-09-12T08:24:42.972Z,98354.0,response_natural,keypress(n),stone,STONE,Con_Nat,long,congruent,n,n,False
4482,Trial Sequence,flow.Sequence,12_0_0_2,completion,1654.0,96679.0,96681.0,96704.0,98358.0,98329.00000000001,2024-09-12T08:24:42.973Z,98354.0,,,stone,STONE,Con_Nat,long,congruent,n,,
4482,fixation,canvas.Screen,12_0_0_3_0,timeout,534.0,98329.00000000001,98331.0,98354.0,98871.0,98872.0,2024-09-12T08:24:43.516Z,98888.0,,,taxi,CHAIN,Inc_Synth_Synth,long,incongruent,m,,
4482,mask1,canvas.Screen,12_0_0_3_1,timeout,33.0,98872.0,98871.0,98888.0,98904.0,98905.0,2024-09-12T08:24:43.549Z,98921.0,,,taxi,CHAIN,Inc_Synth_Synth,long,incongruent,m,,
4482,prime,canvas.Screen,12_0_0_3_2,timeout,33.0,98905.0,98904.0,98921.0,98937.0,98937.0,2024-09-12T08:24:43.581Z,98954.0,,,taxi,CHAIN,Inc_Synth_Synth,long,incongruent,m,,
4482,mask2,canvas.Screen,12_0_0_3_3,timeout,34.0,98937.0,98937.0,98954.0,98970.0,98970.0,2024-09-12T08:24:43.615Z,98988.0,,,taxi,CHAIN,Inc_Synth_Synth,long,incongruent,m,,
4482,DELAY,canvas.Screen,12_0_0_3_4,timeout,83.0,98971.0,98970.0,98988.0,99054.0,99055.0,2024-09-12T08:24:43.699Z,99071.0,,,taxi,CHAIN,Inc_Synth_Synth,long,incongruent,m,,
4482,target,canvas.Screen,12_0_0_3_5,response,1051.0,99055.0,99054.0,99071.0,100105.0,100075.0,2024-09-12T08:24:44.719Z,100087.0,response_manmade,keypress(m),taxi,CHAIN,Inc_Synth_Synth,long,incongruent,m,m,False
4482,Trial Sequence,flow.Sequence,12_0_0_3,completion,1751.0,98329.00000000001,98331.0,98354.0,100105.0,100075.0,2024-09-12T08:24:44.719Z,100087.0,,,taxi,CHAIN,Inc_Synth_Synth,long,incongruent,m,,
4482,fixation,canvas.Screen,12_0_0_4_0,timeout,534.0,100075.0,100077.0,100087.0,100604.0,100605.0,2024-09-12T08:24:45.249Z,100621.0,,,crab,CRAB,Con_Nat,long,congruent,n,,
4482,mask1,canvas.Screen,12_0_0_4_1,timeout,33.0,100605.0,100604.0,100621.0,100638.0,100638.0,2024-09-12T08:24:45.282Z,100654.0,,,crab,CRAB,Con_Nat,long,congruent,n,,
4482,prime,canvas.Screen,12_0_0_4_2,timeout,34.0,100639.0,100638.0,100654.0,100671.0,100672.0,2024-09-12T08:24:45.316Z,100688.0,,,crab,CRAB,Con_Nat,long,congruent,n,,
4482,mask2,canvas.Screen,12_0_0_4_3,timeout,33.0,100672.0,100671.0,100688.0,100704.0,100705.0,2024-09-12T08:24:45.349Z,100721.0,,,crab,CRAB,Con_Nat,long,congruent,n,,
4482,DELAY,canvas.Screen,12_0_0_4_4,timeout,83.0,100705.0,100704.0,100721.0,100788.0,100788.0,2024-09-12T08:24:45.432Z,100804.0,,,crab,CRAB,Con_Nat,long,congruent,n,,
4482,target,canvas.Screen,12_0_0_4_5,response,679.0,100789.0,100788.0,100804.0,101467.0,101438.0,2024-09-12T08:24:46.082Z,101454.0,response_natural,keypress(n),crab,CRAB,Con_Nat,long,congruent,n,n,False
4482,Trial Sequence,flow.Sequence,12_0_0_4,completion,1380.0,100075.0,100077.0,100087.0,101467.0,101438.0,2024-09-12T08:24:46.082Z,101454.0,,,crab,CRAB,Con_Nat,long,congruent,n,,
4482,fixation,canvas.Screen,12_0_0_5_0,timeout,533.0,101438.0,101440.0,101454.0,101971.0,101972.00000000001,2024-09-12T08:24:46.616Z,101987.0,,,stick,STICK,Con_Nat,long,congruent,n,,
4482,mask1,canvas.Screen,12_0_0_5_1,timeout,34.0,101972.00000000001,101971.0,101987.0,102004.0,102005.0,2024-09-12T08:24:46.649Z,102021.0,,,stick,STICK,Con_Nat,long,congruent,n,,
4482,prime,canvas.Screen,12_0_0_5_2,timeout,33.0,102005.0,102004.0,102021.0,102038.0,102038.0,2024-09-12T08:24:46.682Z,102054.0,,,stick,STICK,Con_Nat,long,congruent,n,,
4482,mask2,canvas.Screen,12_0_0_5_3,timeout,34.0,102038.0,102038.0,102054.0,102071.0,102071.0,2024-09-12T08:24:46.716Z,102088.0,,,stick,STICK,Con_Nat,long,congruent,n,,
4482,DELAY,canvas.Screen,12_0_0_5_4,timeout,83.0,102072.0,102071.0,102088.0,102154.0,102155.0,2024-09-12T08:24:46.799Z,102171.0,,,stick,STICK,Con_Nat,long,congruent,n,,
4482,target,canvas.Screen,12_0_0_5_5,response,993.0,102155.0,102154.0,102171.0,103147.0,103118.00000000001,2024-09-12T08:24:47.762Z,103138.0,response_natural,keypress(n),stick,STICK,Con_Nat,long,congruent,n,n,False
4482,Trial Sequence,flow.Sequence,12_0_0_5,completion,1693.0,101438.0,101440.0,101454.0,103147.0,103118.00000000001,2024-09-12T08:24:47.762Z,103138.0,,,stick,STICK,Con_Nat,long,congruent,n,,
4482,fixation,canvas.Screen,12_0_0_6_0,timeout,533.0,103119.0,103120.0,103138.0,103654.0,103655.0,2024-09-12T08:24:48.299Z,103671.0,,,bell,WHEEL,Inc_Synth_Synth,long,incongruent,m,,
4482,mask1,canvas.Screen,12_0_0_6_1,timeout,33.0,103655.0,103654.0,103671.0,103688.0,103688.0,2024-09-12T08:24:48.332Z,103704.0,,,bell,WHEEL,Inc_Synth_Synth,long,incongruent,m,,
4482,prime,canvas.Screen,12_0_0_6_2,timeout,34.0,103688.0,103688.0,103704.0,103721.0,103722.00000000001,2024-09-12T08:24:48.366Z,103738.0,,,bell,WHEEL,Inc_Synth_Synth,long,incongruent,m,,
4482,mask2,canvas.Screen,12_0_0_6_3,timeout,33.0,103722.00000000001,103721.0,103738.0,103754.0,103755.0,2024-09-12T08:24:48.399Z,103771.0,,,bell,WHEEL,Inc_Synth_Synth,long,incongruent,m,,
4482,DELAY,canvas.Screen,12_0_0_6_4,timeout,83.0,103755.0,103754.0,103771.0,103838.0,103839.0,2024-09-12T08:24:48.483Z,103854.0,,,bell,WHEEL,Inc_Synth_Synth,long,incongruent,m,,
4482,target,canvas.Screen,12_0_0_6_5,response,1010.0,103839.0,103838.0,103854.0,104848.0,104817.0,2024-09-12T08:24:49.461Z,104838.0,response_manmade,keypress(m),bell,WHEEL,Inc_Synth_Synth,long,incongruent,m,m,False
4482,Trial Sequence,flow.Sequence,12_0_0_6,completion,1710.0,103119.0,103120.0,103138.0,104848.0,104817.0,2024-09-12T08:24:49.461Z,104838.0,,,bell,WHEEL,Inc_Synth_Synth,long,incongruent,m,,
4482,fixation,canvas.Screen,12_0_0_7_0,timeout,533.0,104817.0,104819.0,104838.0,105354.0,105354.0,2024-09-12T08:24:49.998Z,105371.0,,,cake,TRASH,Inc_Synth_Synth,long,incongruent,m,,
4482,mask1,canvas.Screen,12_0_0_7_1,timeout,33.0,105355.0,105354.0,105371.0,105388.0,105388.0,2024-09-12T08:24:50.032Z,105404.0,,,cake,TRASH,Inc_Synth_Synth,long,incongruent,m,,
4482,prime,canvas.Screen,12_0_0_7_2,timeout,34.0,105389.0,105388.0,105404.0,105421.0,105422.0,2024-09-12T08:24:50.066Z,105438.0,,,cake,TRASH,Inc_Synth_Synth,long,incongruent,m,,
4482,mask2,canvas.Screen,12_0_0_7_3,timeout,33.0,105422.0,105421.0,105438.0,105455.0,105455.0,2024-09-12T08:24:50.099Z,105471.0,,,cake,TRASH,Inc_Synth_Synth,long,incongruent,m,,
4482,DELAY,canvas.Screen,12_0_0_7_4,timeout,83.0,105455.0,105455.0,105471.0,105538.0,105538.0,2024-09-12T08:24:50.182Z,105554.0,,,cake,TRASH,Inc_Synth_Synth,long,incongruent,m,,
4482,target,canvas.Screen,12_0_0_7_5,response,908.0,105538.0,105538.0,105554.0,106446.0,106415.0,2024-09-12T08:24:51.059Z,106437.0,response_manmade,keypress(m),cake,TRASH,Inc_Synth_Synth,long,incongruent,m,m,False
4482,Trial Sequence,flow.Sequence,12_0_0_7,completion,1608.0,104817.0,104819.0,104838.0,106446.0,106416.0,2024-09-12T08:24:51.060Z,106437.0,,,cake,TRASH,Inc_Synth_Synth,long,incongruent,m,,
4482,fixation,canvas.Screen,12_0_0_8_0,timeout,534.0,106416.0,106418.0,106437.0,106954.0,106955.0,2024-09-12T08:24:51.599Z,106971.0,,,fruit,BEAR,Inc_Nat_Nat,long,incongruent,m,,
4482,mask1,canvas.Screen,12_0_0_8_1,timeout,34.0,106955.0,106954.0,106971.0,106988.0,106988.0,2024-09-12T08:24:51.632Z,107005.0,,,fruit,BEAR,Inc_Nat_Nat,long,incongruent,m,,
4482,prime,canvas.Screen,12_0_0_8_2,timeout,33.0,106989.0,106988.0,107005.0,107021.0,107022.0,2024-09-12T08:24:51.666Z,107038.0,,,fruit,BEAR,Inc_Nat_Nat,long,incongruent,m,,
4482,mask2,canvas.Screen,12_0_0_8_3,timeout,33.0,107022.0,107021.0,107038.0,107055.0,107055.0,2024-09-12T08:24:51.699Z,107071.0,,,fruit,BEAR,Inc_Nat_Nat,long,incongruent,m,,
4482,DELAY,canvas.Screen,12_0_0_8_4,timeout,83.0,107056.0,107055.0,107071.0,107138.0,107139.0,2024-09-12T08:24:51.783Z,107154.0,,,fruit,BEAR,Inc_Nat_Nat,long,incongruent,m,,
4482,target,canvas.Screen,12_0_0_8_5,response,698.0,107139.0,107138.0,107154.0,107836.0,107806.0,2024-09-12T08:24:52.450Z,107821.0,response_natural,keypress(n),fruit,BEAR,Inc_Nat_Nat,long,incongruent,m,m,False
4482,Trial Sequence,flow.Sequence,12_0_0_8,completion,1399.0,106416.0,106418.0,106437.0,107836.0,107806.0,2024-09-12T08:24:52.450Z,107821.0,,,fruit,BEAR,Inc_Nat_Nat,long,incongruent,m,,
4482,fixation,canvas.Screen,12_0_0_9_0,timeout,533.0,107806.0,107808.0,107821.0,108338.0,108338.00000000001,2024-09-12T08:24:52.982Z,108354.0,,,plum,PLUM,Con_Nat,long,congruent,n,,
4482,mask1,canvas.Screen,12_0_0_9_1,timeout,34.0,108339.0,108338.0,108354.0,108371.0,108372.0,2024-09-12T08:24:53.016Z,108388.0,,,plum,PLUM,Con_Nat,long,congruent,n,,
4482,prime,canvas.Screen,12_0_0_9_2,timeout,33.0,108372.0,108371.0,108388.0,108405.0,108405.0,2024-09-12T08:24:53.049Z,108421.0,,,plum,PLUM,Con_Nat,long,congruent,n,,
4482,mask2,canvas.Screen,12_0_0_9_3,timeout,33.0,108405.0,108405.0,108421.0,108438.0,108438.0,2024-09-12T08:24:53.082Z,108454.0,,,plum,PLUM,Con_Nat,long,congruent,n,,
4482,DELAY,canvas.Screen,12_0_0_9_4,timeout,84.0,108439.0,108438.0,108454.0,108521.0,108522.0,2024-09-12T08:24:53.165Z,108538.0,,,plum,PLUM,Con_Nat,long,congruent,n,,
4482,target,canvas.Screen,12_0_0_9_5,response,1313.0,108522.0,108521.0,108538.0,109834.0,109803.0,2024-09-12T08:24:54.447Z,109821.0,response_manmade,keypress(m),plum,PLUM,Con_Nat,long,congruent,n,n,False
4482,Trial Sequence,flow.Sequence,12_0_0_9,completion,2013.0,107806.0,107808.0,107821.0,109834.0,109803.0,2024-09-12T08:24:54.447Z,109821.0,,,plum,PLUM,Con_Nat,long,congruent,n,,
4482,fixation,canvas.Screen,12_0_0_10_0,timeout,532.0,109804.0,109805.0,109821.0,110338.0,110339.0,2024-09-12T08:24:54.982Z,110353.0,,,swan,SWAN,Con_Nat,long,congruent,n,,
4482,mask1,canvas.Screen,12_0_0_10_1,timeout,35.0,110339.0,110338.0,110353.0,110371.0,110372.0,2024-09-12T08:24:55.015Z,110388.0,,,swan,SWAN,Con_Nat,long,congruent,n,,
4482,prime,canvas.Screen,12_0_0_10_2,timeout,33.0,110372.0,110371.0,110388.0,110405.0,110405.0,2024-09-12T08:24:55.049Z,110421.0,,,swan,SWAN,Con_Nat,long,congruent,n,,
4482,mask2,canvas.Screen,12_0_0_10_3,timeout,34.0,110405.0,110405.0,110421.0,110438.0,110438.0,2024-09-12T08:24:55.082Z,110455.0,,,swan,SWAN,Con_Nat,long,congruent,n,,
4482,DELAY,canvas.Screen,12_0_0_10_4,timeout,66.0,110439.0,110438.0,110455.0,110507.0,110508.0,2024-09-12T08:24:55.152Z,110521.0,,,swan,SWAN,Con_Nat,long,congruent,n,,
4482,target,canvas.Screen,12_0_0_10_5,response,868.0,110508.0,110507.0,110521.0,111375.0,111344.00000000001,2024-09-12T08:24:55.988Z,111355.0,response_natural,keypress(n),swan,SWAN,Con_Nat,long,congruent,n,n,False
4482,Trial Sequence,flow.Sequence,12_0_0_10,completion,1554.0,109803.0,109805.0,109821.0,111375.0,111344.00000000001,2024-09-12T08:24:55.988Z,111355.0,,,swan,SWAN,Con_Nat,long,congruent,n,,
4482,fixation,canvas.Screen,12_0_0_11_0,timeout,533.0,111345.0,111346.0,111355.0,111871.0,111872.0,2024-09-12T08:24:56.516Z,111888.0,,,ferry,FERRY,Con_Synth,long,congruent,m,,
4482,mask1,canvas.Screen,12_0_0_11_1,timeout,33.0,111872.0,111871.0,111888.0,111905.0,111905.0,2024-09-12T08:24:56.549Z,111921.0,,,ferry,FERRY,Con_Synth,long,congruent,m,,
4482,prime,canvas.Screen,12_0_0_11_2,timeout,34.0,111905.0,111905.0,111921.0,111938.0,111938.0,2024-09-12T08:24:56.582Z,111955.0,,,ferry,FERRY,Con_Synth,long,congruent,m,,
4482,mask2,canvas.Screen,12_0_0_11_3,timeout,33.0,111939.0,111938.0,111955.0,111971.0,111972.00000000001,2024-09-12T08:24:56.616Z,111988.0,,,ferry,FERRY,Con_Synth,long,congruent,m,,
4482,DELAY,canvas.Screen,12_0_0_11_4,timeout,83.0,111972.00000000001,111971.0,111988.0,112054.0,112055.0,2024-09-12T08:24:56.699Z,112071.0,,,ferry,FERRY,Con_Synth,long,congruent,m,,
4482,target,canvas.Screen,12_0_0_11_5,response,911.0,112055.0,112054.0,112071.0,112965.0,112936.0,2024-09-12T08:24:57.580Z,112955.0,response_natural,keypress(n),ferry,FERRY,Con_Synth,long,congruent,m,m,False
4482,Trial Sequence,flow.Sequence,12_0_0_11,completion,1610.0,111345.0,111346.0,111355.0,112965.0,112936.0,2024-09-12T08:24:57.580Z,112955.0,,,ferry,FERRY,Con_Synth,long,congruent,m,,
4482,fixation,canvas.Screen,12_0_0_12_0,timeout,532.0,112937.0,112938.0,112955.0,113473.0,113473.0,2024-09-12T08:24:58.117Z,113487.0,,,wire,CABIN,Inc_Synth_Synth,long,incongruent,m,,
4482,mask1,canvas.Screen,12_0_0_12_1,timeout,34.0,113474.0,113473.0,113487.0,113505.0,113505.0,2024-09-12T08:24:58.149Z,113521.0,,,wire,CABIN,Inc_Synth_Synth,long,incongruent,m,,
4482,prime,canvas.Screen,12_0_0_12_2,timeout,34.0,113505.0,113505.0,113521.0,113538.0,113539.0,2024-09-12T08:24:58.182Z,113555.0,,,wire,CABIN,Inc_Synth_Synth,long,incongruent,m,,
4482,mask2,canvas.Screen,12_0_0_12_3,timeout,32.0,113539.0,113538.0,113555.0,113572.0,113572.0,2024-09-12T08:24:58.216Z,113587.0,,,wire,CABIN,Inc_Synth_Synth,long,incongruent,m,,
4482,DELAY,canvas.Screen,12_0_0_12_4,timeout,84.0,113572.0,113572.0,113587.0,113655.0,113655.0,2024-09-12T08:24:58.299Z,113671.0,,,wire,CABIN,Inc_Synth_Synth,long,incongruent,m,,
4482,target,canvas.Screen,12_0_0_12_5,response,1306.0,113655.0,113655.0,113671.0,114961.0,114931.0,2024-09-12T08:24:59.575Z,114955.0,response_manmade,keypress(m),wire,CABIN,Inc_Synth_Synth,long,incongruent,m,m,False
4482,Trial Sequence,flow.Sequence,12_0_0_12,completion,2006.0,112937.0,112938.0,112955.0,114961.0,114931.0,2024-09-12T08:24:59.575Z,114955.0,,,wire,CABIN,Inc_Synth_Synth,long,incongruent,m,,
4482,fixation,canvas.Screen,12_0_0_13_0,timeout,532.0,114932.0,114933.0,114955.0,115471.0,115472.00000000001,2024-09-12T08:25:00.116Z,115487.0,,,deck,PLATE,Inc_Synth_Synth,long,incongruent,m,,
4482,mask1,canvas.Screen,12_0_0_13_1,timeout,34.0,115472.00000000001,115471.0,115487.0,115505.0,115505.0,2024-09-12T08:25:00.149Z,115521.0,,,deck,PLATE,Inc_Synth_Synth,long,incongruent,m,,
4482,prime,canvas.Screen,12_0_0_13_2,timeout,33.0,115505.0,115505.0,115521.0,115538.0,115538.0,2024-09-12T08:25:00.181Z,115554.0,,,deck,PLATE,Inc_Synth_Synth,long,incongruent,m,,
4482,mask2,canvas.Screen,12_0_0_13_3,timeout,34.0,115538.0,115538.0,115554.0,115572.0,115572.0,2024-09-12T08:25:00.216Z,115588.0,,,deck,PLATE,Inc_Synth_Synth,long,incongruent,m,,
4482,DELAY,canvas.Screen,12_0_0_13_4,timeout,84.0,115572.0,115572.0,115588.0,115655.0,115655.0,2024-09-12T08:25:00.299Z,115672.0,,,deck,PLATE,Inc_Synth_Synth,long,incongruent,m,,
4482,target,canvas.Screen,12_0_0_13_5,response,1094.0000000000146,115655.0,115655.0,115672.0,116749.00000000001,116719.00000000001,2024-09-12T08:25:01.362Z,116738.0,response_manmade,keypress(m),deck,PLATE,Inc_Synth_Synth,long,incongruent,m,m,False
4482,Trial Sequence,flow.Sequence,12_0_0_13,completion,1794.0000000000146,114932.0,114933.0,114955.0,116749.00000000001,116719.00000000001,2024-09-12T08:25:01.362Z,116738.0,,,deck,PLATE,Inc_Synth_Synth,long,incongruent,m,,
4482,fixation,canvas.Screen,12_0_0_14_0,timeout,533.0,116719.00000000001,116721.0,116738.0,117255.0,117256.0,2024-09-12T08:25:01.899Z,117271.0,,,clam,CLAM,Con_Nat,long,congruent,n,,
4482,mask1,canvas.Screen,12_0_0_14_1,timeout,34.0,117256.0,117255.0,117271.0,117288.0,117289.0,2024-09-12T08:25:01.932Z,117305.0,,,clam,CLAM,Con_Nat,long,congruent,n,,
4482,prime,canvas.Screen,12_0_0_14_2,timeout,33.0,117289.0,117288.0,117305.0,117322.0,117322.0,2024-09-12T08:25:01.965Z,117338.0,,,clam,CLAM,Con_Nat,long,congruent,n,,
4482,mask2,canvas.Screen,12_0_0_14_3,timeout,33.0,117322.0,117322.0,117338.0,117355.0,117355.0,2024-09-12T08:25:01.999Z,117371.0,,,clam,CLAM,Con_Nat,long,congruent,n,,
4482,DELAY,canvas.Screen,12_0_0_14_4,timeout,84.0,117355.0,117355.0,117371.0,117438.0,117439.0,2024-09-12T08:25:02.082Z,117455.0,,,clam,CLAM,Con_Nat,long,congruent,n,,
4482,target,canvas.Screen,12_0_0_14_5,response,1623.0,117439.0,117438.0,117455.0,119061.0,119029.0,2024-09-12T08:25:03.673Z,119054.0,response_natural,keypress(n),clam,CLAM,Con_Nat,long,congruent,n,n,False
4482,Trial Sequence,flow.Sequence,12_0_0_14,completion,2323.0,116719.00000000001,116721.0,116738.0,119061.0,119030.0,2024-09-12T08:25:03.673Z,119054.0,,,clam,CLAM,Con_Nat,long,congruent,n,,
4482,fixation,canvas.Screen,12_0_0_15_0,timeout,534.0,119030.0,119031.0,119054.0,119572.0,119572.0,2024-09-12T08:25:04.216Z,119588.0,,,hare,HARE,Con_Nat,long,congruent,n,,
4482,mask1,canvas.Screen,12_0_0_15_1,timeout,34.0,119573.00000000001,119572.0,119588.0,119605.0,119605.0,2024-09-12T08:25:04.249Z,119622.0,,,hare,HARE,Con_Nat,long,congruent,n,,
4482,prime,canvas.Screen,12_0_0_15_2,timeout,33.0,119606.00000000001,119605.0,119622.0,119638.0,119639.0,2024-09-12T08:25:04.282Z,119655.0,,,hare,HARE,Con_Nat,long,congruent,n,,
4482,mask2,canvas.Screen,12_0_0_15_3,timeout,33.0,119639.0,119638.0,119655.0,119672.0,119672.0,2024-09-12T08:25:04.315Z,119688.0,,,hare,HARE,Con_Nat,long,congruent,n,,
4482,DELAY,canvas.Screen,12_0_0_15_4,timeout,84.0,119672.0,119672.0,119688.0,119755.0,119756.0,2024-09-12T08:25:04.399Z,119772.0,,,hare,HARE,Con_Nat,long,congruent,n,,
4482,target,canvas.Screen,12_0_0_15_5,response,1146.0,119756.0,119755.0,119772.0,120901.0,120869.0,2024-09-12T08:25:05.513Z,120888.0,response_natural,keypress(n),hare,HARE,Con_Nat,long,congruent,n,n,False
4482,Trial Sequence,flow.Sequence,12_0_0_15,completion,1847.0,119030.0,119031.0,119054.0,120901.0,120870.0,2024-09-12T08:25:05.513Z,120888.0,,,hare,HARE,Con_Nat,long,congruent,n,,
4482,fixation,canvas.Screen,12_0_0_16_0,timeout,534.0,120870.0,120872.0,120888.0,121405.0,121406.0,2024-09-12T08:25:06.049Z,121422.0,,,pipe,LION,Inc_Synth_Nat,long,incongruent,n,,
4482,mask1,canvas.Screen,12_0_0_16_1,timeout,33.0,121406.0,121405.0,121422.0,121438.0,121438.0,2024-09-12T08:25:06.081Z,121455.0,,,pipe,LION,Inc_Synth_Nat,long,incongruent,n,,
4482,prime,canvas.Screen,12_0_0_16_2,timeout,33.0,121438.0,121438.0,121455.0,121472.0,121472.00000000001,2024-09-12T08:25:06.115Z,121488.0,,,pipe,LION,Inc_Synth_Nat,long,incongruent,n,,
4482,mask2,canvas.Screen,12_0_0_16_3,timeout,34.0,121472.00000000001,121472.0,121488.0,121505.0,121506.0,2024-09-12T08:25:06.149Z,121522.0,,,pipe,LION,Inc_Synth_Nat,long,incongruent,n,,
4482,DELAY,canvas.Screen,12_0_0_16_4,timeout,83.0,121506.0,121505.0,121522.0,121588.0,121588.00000000001,2024-09-12T08:25:06.231Z,121605.0,,,pipe,LION,Inc_Synth_Nat,long,incongruent,n,,
4482,target,canvas.Screen,12_0_0_16_5,response,766.0,121588.00000000001,121588.0,121605.0,122354.0,122323.00000000001,2024-09-12T08:25:06.966Z,122338.0,response_natural,keypress(n),pipe,LION,Inc_Synth_Nat,long,incongruent,n,n,False
4482,Trial Sequence,flow.Sequence,12_0_0_16,completion,1466.0,120870.0,120872.0,120888.0,122354.0,122323.00000000001,2024-09-12T08:25:06.966Z,122338.0,,,pipe,LION,Inc_Synth_Nat,long,incongruent,n,,
4482,fixation,canvas.Screen,12_0_0_17_0,timeout,534.0,122323.00000000001,122325.0,122338.0,122855.0,122856.00000000001,2024-09-12T08:25:07.499Z,122872.0,,,wasp,WASP,Con_Nat,long,congruent,n,,
4482,mask1,canvas.Screen,12_0_0_17_1,timeout,32.0,122856.00000000001,122855.0,122872.0,122888.0,122889.0,2024-09-12T08:25:07.532Z,122904.0,,,wasp,WASP,Con_Nat,long,congruent,n,,
4482,prime,canvas.Screen,12_0_0_17_2,timeout,34.0,122889.0,122888.0,122904.0,122922.0,122922.0,2024-09-12T08:25:07.565Z,122938.0,,,wasp,WASP,Con_Nat,long,congruent,n,,
4482,mask2,canvas.Screen,12_0_0_17_3,timeout,34.0,122922.0,122922.0,122938.0,122955.0,122956.0,2024-09-12T08:25:07.599Z,122972.0,,,wasp,WASP,Con_Nat,long,congruent,n,,
4482,DELAY,canvas.Screen,12_0_0_17_4,timeout,83.0,122956.0,122955.0,122972.0,123038.0,123038.0,2024-09-12T08:25:07.681Z,123055.0,,,wasp,WASP,Con_Nat,long,congruent,n,,
4482,target,canvas.Screen,12_0_0_17_5,response,1272.0,123038.0,123038.0,123055.0,124310.0,124278.0,2024-09-12T08:25:08.921Z,124305.0,response_manmade,keypress(m),wasp,WASP,Con_Nat,long,congruent,n,n,False
4482,Trial Sequence,flow.Sequence,12_0_0_17,completion,1972.0,122323.00000000001,122325.0,122338.0,124310.0,124279.0,2024-09-12T08:25:08.922Z,124305.0,,,wasp,WASP,Con_Nat,long,congruent,n,,
4482,fixation,canvas.Screen,12_0_0_18_0,timeout,533.0,124279.0,124281.0,124305.0,124822.0,124822.0,2024-09-12T08:25:09.465Z,124838.0,,,eagle,WAGON,Inc_Nat_Synth,long,incongruent,m,,
4482,mask1,canvas.Screen,12_0_0_18_1,timeout,34.0,124822.0,124822.0,124838.0,124855.0,124856.00000000001,2024-09-12T08:25:09.499Z,124872.0,,,eagle,WAGON,Inc_Nat_Synth,long,incongruent,m,,
4482,prime,canvas.Screen,12_0_0_18_2,timeout,33.0,124856.00000000001,124855.0,124872.0,124889.0,124889.0,2024-09-12T08:25:09.532Z,124905.0,,,eagle,WAGON,Inc_Nat_Synth,long,incongruent,m,,
4482,mask2,canvas.Screen,12_0_0_18_3,timeout,33.0,124889.0,124889.0,124905.0,124922.0,124922.0,2024-09-12T08:25:09.566Z,124938.0,,,eagle,WAGON,Inc_Nat_Synth,long,incongruent,m,,
4482,DELAY,canvas.Screen,12_0_0_18_4,timeout,84.0,124923.0,124922.0,124938.0,125005.0,125006.0,2024-09-12T08:25:09.649Z,125022.0,,,eagle,WAGON,Inc_Nat_Synth,long,incongruent,m,,
4482,target,canvas.Screen,12_0_0_18_5,response,1258.0,125006.0,125005.0,125022.0,126263.0,126231.00000000001,2024-09-12T08:25:10.874Z,126255.0,response_manmade,keypress(m),eagle,WAGON,Inc_Nat_Synth,long,incongruent,m,m,False
4482,Trial Sequence,flow.Sequence,12_0_0_18,completion,1958.0,124279.0,124281.0,124305.0,126263.0,126232.0,2024-09-12T08:25:10.875Z,126255.0,,,eagle,WAGON,Inc_Nat_Synth,long,incongruent,m,,
4482,fixation,canvas.Screen,12_0_0_19_0,timeout,533.0,126232.0,126234.0,126255.0,126772.0,126772.0,2024-09-12T08:25:11.415Z,126788.0,,,stair,STAIR,Con_Synth,long,congruent,m,,
4482,mask1,canvas.Screen,12_0_0_19_1,timeout,34.0,126773.0,126772.0,126788.0,126804.0,126805.0,2024-09-12T08:25:11.448Z,126822.0,,,stair,STAIR,Con_Synth,long,congruent,m,,
4482,prime,canvas.Screen,12_0_0_19_2,timeout,33.0,126805.0,126804.0,126822.0,126839.0,126839.0,2024-09-12T08:25:11.482Z,126855.0,,,stair,STAIR,Con_Synth,long,congruent,m,,
4482,mask2,canvas.Screen,12_0_0_19_3,timeout,33.0,126839.0,126839.0,126855.0,126871.0,126872.0,2024-09-12T08:25:11.515Z,126888.0,,,stair,STAIR,Con_Synth,long,congruent,m,,
4482,DELAY,canvas.Screen,12_0_0_19_4,timeout,83.0,126872.0,126871.0,126888.0,126955.0,126956.0,2024-09-12T08:25:11.599Z,126971.0,,,stair,STAIR,Con_Synth,long,congruent,m,,
4482,target,canvas.Screen,12_0_0_19_5,response,1205.0,126956.0,126955.0,126971.0,128160.0,128128.99999999999,2024-09-12T08:25:12.772Z,128155.0,response_manmade,keypress(m),stair,STAIR,Con_Synth,long,congruent,m,m,False
4482,Trial Sequence,flow.Sequence,12_0_0_19,completion,1905.0,126232.0,126234.0,126255.0,128160.0,128130.0,2024-09-12T08:25:12.773Z,128155.0,,,stair,STAIR,Con_Synth,long,congruent,m,,
4482,fixation,canvas.Screen,12_0_0_20_0,timeout,533.0,128130.0,128132.0,128155.0,128672.0,128672.0,2024-09-12T08:25:13.315Z,128688.0,,,flute,FLUTE,Con_Synth,long,congruent,m,,
4482,mask1,canvas.Screen,12_0_0_20_1,timeout,34.0,128673.0,128672.0,128688.0,128705.0,128705.99999999999,2024-09-12T08:25:13.349Z,128722.0,,,flute,FLUTE,Con_Synth,long,congruent,m,,
4482,prime,canvas.Screen,12_0_0_20_2,timeout,33.0,128705.99999999999,128705.0,128722.0,128738.0,128738.0,2024-09-12T08:25:13.381Z,128755.0,,,flute,FLUTE,Con_Synth,long,congruent,m,,
4482,mask2,canvas.Screen,12_0_0_20_3,timeout,34.0,128739.0,128738.0,128755.0,128772.0,128771.99999999999,2024-09-12T08:25:13.415Z,128789.0,,,flute,FLUTE,Con_Synth,long,congruent,m,,
4482,DELAY,canvas.Screen,12_0_0_20_4,timeout,83.0,128773.0,128772.0,128789.0,128855.0,128854.99999999999,2024-09-12T08:25:13.498Z,128872.0,,,flute,FLUTE,Con_Synth,long,congruent,m,,
4482,target,canvas.Screen,12_0_0_20_5,response,1010.0000000000146,128854.99999999999,128855.0,128872.0,129865.00000000001,129830.99999999999,2024-09-12T08:25:14.474Z,129855.0,response_natural,keypress(n),flute,FLUTE,Con_Synth,long,congruent,m,m,False
4482,Trial Sequence,flow.Sequence,12_0_0_20,completion,1710.0000000000146,128130.0,128132.0,128155.0,129865.00000000001,129832.0,2024-09-12T08:25:14.474Z,129855.0,,,flute,FLUTE,Con_Synth,long,congruent,m,,
4482,fixation,canvas.Screen,12_0_0_21_0,timeout,534.0,129832.0,129833.0,129855.0,130372.0,130372.99999999999,2024-09-12T08:25:15.016Z,130389.0,,,roof,PIANO,Inc_Synth_Synth,long,incongruent,m,,
4482,mask1,canvas.Screen,12_0_0_21_1,timeout,32.0,130372.99999999999,130372.0,130389.0,130405.0,130406.0,2024-09-12T08:25:15.049Z,130421.0,,,roof,PIANO,Inc_Synth_Synth,long,incongruent,m,,
4482,prime,canvas.Screen,12_0_0_21_2,timeout,34.0,130406.0,130405.0,130421.0,130439.0,130439.0,2024-09-12T08:25:15.082Z,130455.0,,,roof,PIANO,Inc_Synth_Synth,long,incongruent,m,,
4482,mask2,canvas.Screen,12_0_0_21_3,timeout,34.0,130439.0,130439.0,130455.0,130472.0,130472.00000000001,2024-09-12T08:25:15.115Z,130489.0,,,roof,PIANO,Inc_Synth_Synth,long,incongruent,m,,
4482,DELAY,canvas.Screen,12_0_0_21_4,timeout,83.0,130473.00000000001,130472.0,130489.0,130555.0,130555.0,2024-09-12T08:25:15.198Z,130572.0,,,roof,PIANO,Inc_Synth_Synth,long,incongruent,m,,
4482,target,canvas.Screen,12_0_0_21_5,response,1223.0,130556.00000000001,130555.0,130572.0,131778.0,131747.0,2024-09-12T08:25:16.390Z,131772.0,response_natural,keypress(n),roof,PIANO,Inc_Synth_Synth,long,incongruent,m,m,False
4482,Trial Sequence,flow.Sequence,12_0_0_21,completion,1923.0,129832.0,129833.0,129855.0,131778.0,131747.0,2024-09-12T08:25:16.390Z,131772.0,,,roof,PIANO,Inc_Synth_Synth,long,incongruent,m,,
4482,fixation,canvas.Screen,12_0_0_22_0,timeout,533.0,131747.0,131749.0,131772.0,132289.0,132289.00000000003,2024-09-12T08:25:16.932Z,132305.0,,,sink,LAMB,Inc_Synth_Nat,long,incongruent,n,,
4482,mask1,canvas.Screen,12_0_0_22_1,timeout,34.0,132290.0,132289.0,132305.0,132322.0,132322.0,2024-09-12T08:25:16.965Z,132339.0,,,sink,LAMB,Inc_Synth_Nat,long,incongruent,n,,
4482,prime,canvas.Screen,12_0_0_22_2,timeout,33.0,132323.0,132322.0,132339.0,132355.0,132356.0,2024-09-12T08:25:16.999Z,132372.0,,,sink,LAMB,Inc_Synth_Nat,long,incongruent,n,,
4482,mask2,canvas.Screen,12_0_0_22_3,timeout,33.0,132356.0,132355.0,132372.0,132389.0,132389.0,2024-09-12T08:25:17.032Z,132405.0,,,sink,LAMB,Inc_Synth_Nat,long,incongruent,n,,
4482,DELAY,canvas.Screen,12_0_0_22_4,timeout,84.0,132389.0,132389.0,132405.0,132472.0,132473.0,2024-09-12T08:25:17.116Z,132489.0,,,sink,LAMB,Inc_Synth_Nat,long,incongruent,n,,
4482,target,canvas.Screen,12_0_0_22_5,response,816.0,132473.0,132472.0,132489.0,133288.0,133255.0,2024-09-12T08:25:17.898Z,133271.0,response_natural,keypress(n),sink,LAMB,Inc_Synth_Nat,long,incongruent,n,n,False
4482,Trial Sequence,flow.Sequence,12_0_0_22,completion,1516.0,131747.0,131749.0,131772.0,133288.0,133256.0,2024-09-12T08:25:17.898Z,133271.0,,,sink,LAMB,Inc_Synth_Nat,long,incongruent,n,,
4482,fixation,canvas.Screen,12_0_0_23_0,timeout,534.0,133256.0,133257.0,133271.0,133789.0,133789.00000000003,2024-09-12T08:25:18.432Z,133805.0,,,canon,CANON,Con_Synth,long,congruent,m,,
4482,mask1,canvas.Screen,12_0_0_23_1,timeout,34.0,133789.00000000003,133789.0,133805.0,133822.0,133823.0,2024-09-12T08:25:18.465Z,133839.0,,,canon,CANON,Con_Synth,long,congruent,m,,
4482,prime,canvas.Screen,12_0_0_23_2,timeout,33.0,133823.0,133822.0,133839.0,133855.0,133855.0,2024-09-12T08:25:18.498Z,133872.0,,,canon,CANON,Con_Synth,long,congruent,m,,
4482,mask2,canvas.Screen,12_0_0_23_3,timeout,33.0,133856.0,133855.0,133872.0,133888.0,133889.0,2024-09-12T08:25:18.532Z,133905.0,,,canon,CANON,Con_Synth,long,congruent,m,,
4482,DELAY,canvas.Screen,12_0_0_23_4,timeout,84.0,133889.0,133888.0,133905.0,133972.0,133973.0,2024-09-12T08:25:18.615Z,133989.0,,,canon,CANON,Con_Synth,long,congruent,m,,
4482,target,canvas.Screen,12_0_0_23_5,response,1741.0,133973.0,133972.0,133989.0,135713.0,135680.0,2024-09-12T08:25:20.323Z,135705.0,response_natural,keypress(n),canon,CANON,Con_Synth,long,congruent,m,m,False
4482,Trial Sequence,flow.Sequence,12_0_0_23,completion,2442.0,133256.0,133257.0,133271.0,135713.0,135681.0,2024-09-12T08:25:20.323Z,135705.0,,,canon,CANON,Con_Synth,long,congruent,m,,
4482,fixation,canvas.Screen,12_0_0_24_0,timeout,533.0,135681.0,135683.0,135705.0,136222.0,136222.0,2024-09-12T08:25:20.865Z,136238.0,,,shark,HILL,Inc_Nat_Nat,long,incongruent,m,,
4482,mask1,canvas.Screen,12_0_0_24_1,timeout,33.0,136223.0,136222.0,136238.0,136255.0,136256.0,2024-09-12T08:25:20.898Z,136271.0,,,shark,HILL,Inc_Nat_Nat,long,incongruent,m,,
4482,prime,canvas.Screen,12_0_0_24_2,timeout,34.0,136256.0,136255.0,136271.0,136289.0,136289.00000000003,2024-09-12T08:25:20.932Z,136305.0,,,shark,HILL,Inc_Nat_Nat,long,incongruent,m,,
4482,mask2,canvas.Screen,12_0_0_24_3,timeout,34.0,136290.0,136289.0,136305.0,136322.0,136323.0,2024-09-12T08:25:20.966Z,136339.0,,,shark,HILL,Inc_Nat_Nat,long,incongruent,m,,
4482,DELAY,canvas.Screen,12_0_0_24_4,timeout,66.0,136323.0,136322.0,136339.0,136391.0,136391.0,2024-09-12T08:25:21.034Z,136405.0,,,shark,HILL,Inc_Nat_Nat,long,incongruent,m,,
4482,target,canvas.Screen,12_0_0_24_5,response,757.0,136391.0,136391.0,136405.0,137148.0,137117.0,2024-09-12T08:25:21.759Z,137139.0,response_natural,keypress(n),shark,HILL,Inc_Nat_Nat,long,incongruent,m,m,False
4482,Trial Sequence,flow.Sequence,12_0_0_24,completion,1443.0,135681.0,135683.0,135705.0,137148.0,137117.0,2024-09-12T08:25:21.760Z,137139.0,,,shark,HILL,Inc_Nat_Nat,long,incongruent,m,,
4482,fixation,canvas.Screen,12_0_0_25_0,timeout,533.0,137117.0,137119.0,137139.0,137656.0,137656.0,2024-09-12T08:25:22.299Z,137672.0,,,pear,PEAR,Con_Nat,long,congruent,n,,
4482,mask1,canvas.Screen,12_0_0_25_1,timeout,34.0,137657.0,137656.0,137672.0,137689.0,137689.0,2024-09-12T08:25:22.332Z,137706.0,,,pear,PEAR,Con_Nat,long,congruent,n,,
4482,prime,canvas.Screen,12_0_0_25_2,timeout,33.0,137690.0,137689.0,137706.0,137722.0,137723.0,2024-09-12T08:25:22.365Z,137739.0,,,pear,PEAR,Con_Nat,long,congruent,n,,
4482,mask2,canvas.Screen,12_0_0_25_3,timeout,33.0,137723.0,137722.0,137739.0,137756.0,137756.0,2024-09-12T08:25:22.399Z,137772.0,,,pear,PEAR,Con_Nat,long,congruent,n,,
4482,DELAY,canvas.Screen,12_0_0_25_4,timeout,84.0,137756.0,137756.0,137772.0,137839.0,137839.0,2024-09-12T08:25:22.482Z,137856.0,,,pear,PEAR,Con_Nat,long,congruent,n,,
4482,target,canvas.Screen,12_0_0_25_5,response,642.0,137840.0,137839.0,137856.0,138481.0,138450.00000000003,2024-09-12T08:25:23.093Z,138472.0,response_natural,keypress(n),pear,PEAR,Con_Nat,long,congruent,n,n,False
4482,Trial Sequence,flow.Sequence,12_0_0_25,completion,1342.0,137117.0,137119.0,137139.0,138481.0,138450.00000000003,2024-09-12T08:25:23.093Z,138472.0,,,pear,PEAR,Con_Nat,long,congruent,n,,
4482,fixation,canvas.Screen,12_0_0_26_0,timeout,534.0,138451.0,138452.0,138472.0,138989.0,138989.0,2024-09-12T08:25:23.632Z,139006.0,,,slug,SLUG,Con_Nat,long,congruent,n,,
4482,mask1,canvas.Screen,12_0_0_26_1,timeout,33.0,138989.0,138989.0,139006.0,139022.0,139023.0,2024-09-12T08:25:23.665Z,139039.0,,,slug,SLUG,Con_Nat,long,congruent,n,,
4482,prime,canvas.Screen,12_0_0_26_2,timeout,33.0,139023.0,139022.0,139039.0,139056.0,139056.0,2024-09-12T08:25:23.699Z,139072.0,,,slug,SLUG,Con_Nat,long,congruent,n,,
4482,mask2,canvas.Screen,12_0_0_26_3,timeout,34.0,139056.0,139056.0,139072.0,139089.0,139089.0,2024-09-12T08:25:23.732Z,139106.0,,,slug,SLUG,Con_Nat,long,congruent,n,,
4482,DELAY,canvas.Screen,12_0_0_26_4,timeout,83.0,139089.0,139089.0,139106.0,139172.0,139173.0,2024-09-12T08:25:23.815Z,139189.0,,,slug,SLUG,Con_Nat,long,congruent,n,,
4482,target,canvas.Screen,12_0_0_26_5,response,951.0,139173.0,139172.0,139189.0,140123.0,140090.0,2024-09-12T08:25:24.733Z,140105.0,response_manmade,keypress(m),slug,SLUG,Con_Nat,long,congruent,n,n,False
4482,Trial Sequence,flow.Sequence,12_0_0_26,completion,1651.0,138450.00000000003,138452.0,138472.0,140123.0,140091.0,2024-09-12T08:25:24.733Z,140105.0,,,slug,SLUG,Con_Nat,long,congruent,n,,
4482,fixation,canvas.Screen,12_0_0_27_0,timeout,533.0,140091.0,140092.0,140105.0,140622.0,140622.0,2024-09-12T08:25:25.265Z,140638.0,,,flask,FLASK,Con_Synth,long,congruent,m,,
4482,mask1,canvas.Screen,12_0_0_27_1,timeout,34.0,140623.0,140622.0,140638.0,140656.0,140656.0,2024-09-12T08:25:25.299Z,140672.0,,,flask,FLASK,Con_Synth,long,congruent,m,,
4482,prime,canvas.Screen,12_0_0_27_2,timeout,34.0,140657.0,140656.0,140672.0,140689.0,140690.0,2024-09-12T08:25:25.332Z,140706.0,,,flask,FLASK,Con_Synth,long,congruent,m,,
4482,mask2,canvas.Screen,12_0_0_27_3,timeout,33.0,140690.0,140689.0,140706.0,140722.0,140723.0,2024-09-12T08:25:25.365Z,140739.0,,,flask,FLASK,Con_Synth,long,congruent,m,,
4482,DELAY,canvas.Screen,12_0_0_27_4,timeout,83.0,140723.0,140722.0,140739.0,140806.0,140806.0,2024-09-12T08:25:25.449Z,140822.0,,,flask,FLASK,Con_Synth,long,congruent,m,,
4482,target,canvas.Screen,12_0_0_27_5,response,921.0,140806.0,140806.0,140822.0,141727.0,141700.00000000003,2024-09-12T08:25:26.343Z,141722.0,response_manmade,keypress(m),flask,FLASK,Con_Synth,long,congruent,m,m,False
4482,Trial Sequence,flow.Sequence,12_0_0_27,completion,1622.0,140091.0,140092.0,140105.0,141727.0,141701.0,2024-09-12T08:25:26.344Z,141722.0,,,flask,FLASK,Con_Synth,long,congruent,m,,
4482,fixation,canvas.Screen,12_0_0_28_0,timeout,534.0,141702.0,141704.0,141722.0,142239.0,142241.0,2024-09-12T08:25:26.883Z,142256.0,,,desk,CANDY,Inc_Synth_Synth,long,incongruent,m,,
4482,mask1,canvas.Screen,12_0_0_28_1,timeout,33.0,142242.0,142239.0,142256.0,142272.0,142273.0,2024-09-12T08:25:26.916Z,142289.0,,,desk,CANDY,Inc_Synth_Synth,long,incongruent,m,,
4482,prime,canvas.Screen,12_0_0_28_2,timeout,33.0,142274.0,142272.0,142289.0,142306.0,142307.00000000003,2024-09-12T08:25:26.949Z,142322.0,,,desk,CANDY,Inc_Synth_Synth,long,incongruent,m,,
4482,mask2,canvas.Screen,12_0_0_28_3,timeout,34.0,142307.00000000003,142306.0,142322.0,142339.0,142340.0,2024-09-12T08:25:26.982Z,142356.0,,,desk,CANDY,Inc_Synth_Synth,long,incongruent,m,,
4482,DELAY,canvas.Screen,12_0_0_28_4,timeout,83.0,142340.0,142339.0,142356.0,142422.0,142423.0,2024-09-12T08:25:27.065Z,142439.0,,,desk,CANDY,Inc_Synth_Synth,long,incongruent,m,,
4482,target,canvas.Screen,12_0_0_28_5,response,882.0,142423.0,142422.0,142439.0,143304.0,143272.0,2024-09-12T08:25:27.914Z,143289.0,response_natural,keypress(n),desk,CANDY,Inc_Synth_Synth,long,incongruent,m,m,False
4482,Trial Sequence,flow.Sequence,12_0_0_28,completion,1582.0,141702.0,141704.0,141722.0,143304.0,143272.0,2024-09-12T08:25:27.915Z,143289.0,,,desk,CANDY,Inc_Synth_Synth,long,incongruent,m,,
4482,fixation,canvas.Screen,12_0_0_29_0,timeout,533.0,143273.0,143275.0,143289.0,143806.0,143807.00000000003,2024-09-12T08:25:28.449Z,143822.0,,,broom,BROOM,Con_Synth,long,congruent,m,,
4482,mask1,canvas.Screen,12_0_0_29_1,timeout,34.0,143807.00000000003,143806.0,143822.0,143839.0,143840.0,2024-09-12T08:25:28.482Z,143856.0,,,broom,BROOM,Con_Synth,long,congruent,m,,
4482,prime,canvas.Screen,12_0_0_29_2,timeout,33.0,143840.0,143839.0,143856.0,143872.0,143872.0,2024-09-12T08:25:28.515Z,143889.0,,,broom,BROOM,Con_Synth,long,congruent,m,,
4482,mask2,canvas.Screen,12_0_0_29_3,timeout,33.0,143872.0,143872.0,143889.0,143906.0,143907.0,2024-09-12T08:25:28.549Z,143922.0,,,broom,BROOM,Con_Synth,long,congruent,m,,
4482,DELAY,canvas.Screen,12_0_0_29_4,timeout,84.0,143907.0,143906.0,143922.0,143989.0,143990.0,2024-09-12T08:25:28.632Z,144006.0,,,broom,BROOM,Con_Synth,long,congruent,m,,
4482,target,canvas.Screen,12_0_0_29_5,response,1373.0,143990.0,143989.0,144006.0,145362.0,145330.0,2024-09-12T08:25:29.973Z,145355.0,response_manmade,keypress(m),broom,BROOM,Con_Synth,long,congruent,m,m,False
4482,Trial Sequence,flow.Sequence,12_0_0_29,completion,2073.0,143272.0,143275.0,143289.0,145362.0,145331.0,2024-09-12T08:25:29.973Z,145355.0,,,broom,BROOM,Con_Synth,long,congruent,m,,
4482,fixation,canvas.Screen,12_0_0_30_0,timeout,534.0,145331.0,145333.0,145355.0,145873.0,145874.0,2024-09-12T08:25:30.516Z,145889.0,,,fort,GOAT,Inc_Synth_Nat,long,incongruent,n,,
4482,mask1,canvas.Screen,12_0_0_30_1,timeout,33.0,145874.0,145873.0,145889.0,145906.0,145907.0,2024-09-12T08:25:30.549Z,145922.0,,,fort,GOAT,Inc_Synth_Nat,long,incongruent,n,,
4482,prime,canvas.Screen,12_0_0_30_2,timeout,34.0,145907.0,145906.0,145922.0,145939.0,145940.0,2024-09-12T08:25:30.582Z,145956.0,,,fort,GOAT,Inc_Synth_Nat,long,incongruent,n,,
4482,mask2,canvas.Screen,12_0_0_30_3,timeout,32.0,145940.0,145939.0,145956.0,145973.0,145974.0,2024-09-12T08:25:30.616Z,145988.0,,,fort,GOAT,Inc_Synth_Nat,long,incongruent,n,,
4482,DELAY,canvas.Screen,12_0_0_30_4,timeout,85.0,145974.0,145973.0,145988.0,146056.0,146057.00000000003,2024-09-12T08:25:30.699Z,146073.0,,,fort,GOAT,Inc_Synth_Nat,long,incongruent,n,,
4482,target,canvas.Screen,12_0_0_30_5,response,1187.0,146057.00000000003,146056.0,146073.0,147243.0,147212.0,2024-09-12T08:25:31.854Z,147239.0,response_manmade,keypress(m),fort,GOAT,Inc_Synth_Nat,long,incongruent,n,n,False
4482,Trial Sequence,flow.Sequence,12_0_0_30,completion,1888.0,145331.0,145333.0,145355.0,147243.0,147212.0,2024-09-12T08:25:31.855Z,147239.0,,,fort,GOAT,Inc_Synth_Nat,long,incongruent,n,,
4482,fixation,canvas.Screen,12_0_0_31_0,timeout,534.0,147212.0,147214.0,147239.0,147756.0,147757.0,2024-09-12T08:25:32.399Z,147773.0,,,canoe,CANOE,Con_Synth,long,congruent,m,,
4482,mask1,canvas.Screen,12_0_0_31_1,timeout,33.0,147757.0,147756.0,147773.0,147789.0,147790.0,2024-09-12T08:25:32.432Z,147806.0,,,canoe,CANOE,Con_Synth,long,congruent,m,,
4482,prime,canvas.Screen,12_0_0_31_2,timeout,33.0,147790.0,147789.0,147806.0,147822.0,147823.0,2024-09-12T08:25:32.465Z,147839.0,,,canoe,CANOE,Con_Synth,long,congruent,m,,
4482,mask2,canvas.Screen,12_0_0_31_3,timeout,34.0,147823.0,147822.0,147839.0,147856.0,147857.0,2024-09-12T08:25:32.499Z,147873.0,,,canoe,CANOE,Con_Synth,long,congruent,m,,
4482,DELAY,canvas.Screen,12_0_0_31_4,timeout,83.0,147857.0,147856.0,147873.0,147939.0,147940.0,2024-09-12T08:25:32.582Z,147956.0,,,canoe,CANOE,Con_Synth,long,congruent,m,,
4482,target,canvas.Screen,12_0_0_31_5,response,1119.0,147940.0,147939.0,147956.0,149058.0,149026.0,2024-09-12T08:25:33.668Z,149039.0,response_manmade,keypress(m),canoe,CANOE,Con_Synth,long,congruent,m,m,False
4482,Trial Sequence,flow.Sequence,12_0_0_31,completion,1819.0,147212.0,147214.0,147239.0,149058.0,149026.0,2024-09-12T08:25:33.668Z,149039.0,,,canoe,CANOE,Con_Synth,long,congruent,m,,
4482,fixation,canvas.Screen,12_0_0_32_0,timeout,534.0,149026.0,149028.0,149039.0,149556.0,149557.00000000003,2024-09-12T08:25:34.199Z,149573.0,,,bunny,ROSE,Inc_Nat_Nat,long,incongruent,m,,
4482,mask1,canvas.Screen,12_0_0_32_1,timeout,33.0,149558.0,149556.0,149573.0,149589.0,149590.0,2024-09-12T08:25:34.232Z,149606.0,,,bunny,ROSE,Inc_Nat_Nat,long,incongruent,m,,
4482,prime,canvas.Screen,12_0_0_32_2,timeout,32.0,149590.0,149589.0,149606.0,149623.0,149623.0,2024-09-12T08:25:34.266Z,149638.0,,,bunny,ROSE,Inc_Nat_Nat,long,incongruent,m,,
4482,mask2,canvas.Screen,12_0_0_32_3,timeout,35.0,149624.0,149623.0,149638.0,149656.0,149657.0,2024-09-12T08:25:34.299Z,149673.0,,,bunny,ROSE,Inc_Nat_Nat,long,incongruent,m,,
4482,DELAY,canvas.Screen,12_0_0_32_4,timeout,83.0,149657.0,149656.0,149673.0,149739.0,149739.0,2024-09-12T08:25:34.381Z,149756.0,,,bunny,ROSE,Inc_Nat_Nat,long,incongruent,m,,
4482,target,canvas.Screen,12_0_0_32_5,response,750.0,149740.0,149739.0,149756.0,150489.0,150457.0,2024-09-12T08:25:35.099Z,150472.0,response_natural,keypress(n),bunny,ROSE,Inc_Nat_Nat,long,incongruent,m,m,False
4482,Trial Sequence,flow.Sequence,12_0_0_32,completion,1450.0,149026.0,149028.0,149039.0,150489.0,150458.0,2024-09-12T08:25:35.100Z,150472.0,,,bunny,ROSE,Inc_Nat_Nat,long,incongruent,m,,
4482,fixation,canvas.Screen,12_0_0_33_0,timeout,533.0,150458.0,150460.0,150472.0,150989.0,150990.0,2024-09-12T08:25:35.633Z,151005.0,,,linen,LINEN,Con_Synth,long,congruent,m,,
4482,mask1,canvas.Screen,12_0_0_33_1,timeout,34.0,150991.0,150989.0,151005.0,151023.0,151023.0,2024-09-12T08:25:35.666Z,151039.0,,,linen,LINEN,Con_Synth,long,congruent,m,,
4482,prime,canvas.Screen,12_0_0_33_2,timeout,33.0,151024.0,151023.0,151039.0,151056.0,151056.0,2024-09-12T08:25:35.698Z,151072.0,,,linen,LINEN,Con_Synth,long,congruent,m,,
4482,mask2,canvas.Screen,12_0_0_33_3,timeout,34.0,151056.0,151056.0,151072.0,151090.0,151090.0,2024-09-12T08:25:35.732Z,151106.0,,,linen,LINEN,Con_Synth,long,congruent,m,,
4482,DELAY,canvas.Screen,12_0_0_33_4,timeout,83.0,151090.0,151090.0,151106.0,151173.0,151174.0,2024-09-12T08:25:35.816Z,151189.0,,,linen,LINEN,Con_Synth,long,congruent,m,,
4482,target,canvas.Screen,12_0_0_33_5,response,959.0,151174.0,151173.0,151189.0,152132.0,152100.0,2024-09-12T08:25:36.742Z,152123.0,response_natural,keypress(n),linen,LINEN,Con_Synth,long,congruent,m,m,False
4482,Trial Sequence,flow.Sequence,12_0_0_33,completion,1660.0,150458.0,150460.0,150472.0,152132.0,152100.0,2024-09-12T08:25:36.742Z,152123.0,,,linen,LINEN,Con_Synth,long,congruent,m,,
4482,fixation,canvas.Screen,12_0_0_34_0,timeout,533.0,152100.0,152102.0,152123.0,152639.0,152641.0,2024-09-12T08:25:37.283Z,152656.0,,,apron,APRON,Con_Synth,long,congruent,m,,
4482,mask1,canvas.Screen,12_0_0_34_1,timeout,34.0,152641.0,152639.0,152656.0,152673.0,152673.0,2024-09-12T08:25:37.316Z,152690.0,,,apron,APRON,Con_Synth,long,congruent,m,,
4482,prime,canvas.Screen,12_0_0_34_2,timeout,33.0,152674.0,152673.0,152690.0,152706.0,152706.00000000003,2024-09-12T08:25:37.349Z,152723.0,,,apron,APRON,Con_Synth,long,congruent,m,,
4482,mask2,canvas.Screen,12_0_0_34_3,timeout,33.0,152707.0,152706.0,152723.0,152740.0,152740.0,2024-09-12T08:25:37.382Z,152756.0,,,apron,APRON,Con_Synth,long,congruent,m,,
4482,DELAY,canvas.Screen,12_0_0_34_4,timeout,83.0,152740.0,152740.0,152756.0,152823.0,152823.0,2024-09-12T08:25:37.465Z,152839.0,,,apron,APRON,Con_Synth,long,congruent,m,,
4482,target,canvas.Screen,12_0_0_34_5,response,1103.000000000029,152824.0,152823.0,152839.0,153926.00000000003,153895.0,2024-09-12T08:25:38.537Z,153905.0,response_manmade,keypress(m),apron,APRON,Con_Synth,long,congruent,m,m,False
4482,Trial Sequence,flow.Sequence,12_0_0_34,completion,1803.000000000029,152100.0,152102.0,152123.0,153926.00000000003,153895.0,2024-09-12T08:25:38.537Z,153905.0,,,apron,APRON,Con_Synth,long,congruent,m,,
4482,fixation,canvas.Screen,12_0_0_35_0,timeout,535.0,153896.00000000003,153897.0,153905.0,154423.0,154424.0,2024-09-12T08:25:39.066Z,154440.0,,,tongs,TONGS,Con_Synth,long,congruent,m,,
4482,mask1,canvas.Screen,12_0_0_35_1,timeout,33.0,154424.0,154423.0,154440.0,154456.0,154457.0,2024-09-12T08:25:39.099Z,154473.0,,,tongs,TONGS,Con_Synth,long,congruent,m,,
4482,prime,canvas.Screen,12_0_0_35_2,timeout,33.0,154457.0,154456.0,154473.0,154490.0,154490.0,2024-09-12T08:25:39.132Z,154506.0,,,tongs,TONGS,Con_Synth,long,congruent,m,,
4482,mask2,canvas.Screen,12_0_0_35_3,timeout,34.0,154490.0,154490.0,154506.0,154523.0,154523.0,2024-09-12T08:25:39.165Z,154540.0,,,tongs,TONGS,Con_Synth,long,congruent,m,,
4482,DELAY,canvas.Screen,12_0_0_35_4,timeout,83.0,154524.0,154523.0,154540.0,154606.0,154607.0,2024-09-12T08:25:39.249Z,154623.0,,,tongs,TONGS,Con_Synth,long,congruent,m,,
4482,target,canvas.Screen,12_0_0_35_5,response,931.0,154607.0,154606.0,154623.0,155537.0,155504.0,2024-09-12T08:25:40.146Z,155523.0,response_manmade,keypress(m),tongs,TONGS,Con_Synth,long,congruent,m,m,False
4482,Trial Sequence,flow.Sequence,12_0_0_35,completion,1632.0,153896.00000000003,153897.0,153905.0,155537.0,155505.0,2024-09-12T08:25:40.147Z,155523.0,,,tongs,TONGS,Con_Synth,long,congruent,m,,
4482,fixation,canvas.Screen,12_0_0_36_0,timeout,533.0,155505.0,155507.0,155523.0,156040.0,156040.0,2024-09-12T08:25:40.682Z,156056.0,,,earth,EARTH,Con_Nat,long,congruent,n,,
4482,mask1,canvas.Screen,12_0_0_36_1,timeout,34.0,156041.0,156040.0,156056.0,156073.0,156074.0,2024-09-12T08:25:40.715Z,156090.0,,,earth,EARTH,Con_Nat,long,congruent,n,,
4482,prime,canvas.Screen,12_0_0_36_2,timeout,33.0,156074.0,156073.0,156090.0,156106.0,156106.0,2024-09-12T08:25:40.748Z,156123.0,,,earth,EARTH,Con_Nat,long,congruent,n,,
4482,mask2,canvas.Screen,12_0_0_36_3,timeout,33.0,156107.0,156106.0,156123.0,156140.0,156140.00000000003,2024-09-12T08:25:40.782Z,156156.0,,,earth,EARTH,Con_Nat,long,congruent,n,,
4482,DELAY,canvas.Screen,12_0_0_36_4,timeout,84.0,156141.0,156140.0,156156.0,156223.0,156223.0,2024-09-12T08:25:40.865Z,156240.0,,,earth,EARTH,Con_Nat,long,congruent,n,,
4482,target,canvas.Screen,12_0_0_36_5,response,973.0,156224.0,156223.0,156240.0,157196.0,157163.0,2024-09-12T08:25:41.805Z,157190.0,response_natural,keypress(n),earth,EARTH,Con_Nat,long,congruent,n,n,False
4482,Trial Sequence,flow.Sequence,12_0_0_36,completion,1673.0,155505.0,155507.0,155523.0,157196.0,157164.00000000003,2024-09-12T08:25:41.805Z,157190.0,,,earth,EARTH,Con_Nat,long,congruent,n,,
4482,fixation,canvas.Screen,12_0_0_37_0,timeout,533.0,157164.00000000003,157166.0,157190.0,157706.0,157707.0,2024-09-12T08:25:42.349Z,157723.0,,,arrow,ARROW,Con_Synth,long,congruent,m,,
4482,mask1,canvas.Screen,12_0_0_37_1,timeout,33.0,157707.0,157706.0,157723.0,157740.0,157740.0,2024-09-12T08:25:42.382Z,157756.0,,,arrow,ARROW,Con_Synth,long,congruent,m,,
4482,prime,canvas.Screen,12_0_0_37_2,timeout,34.0,157740.0,157740.0,157756.0,157773.0,157774.0,2024-09-12T08:25:42.415Z,157790.0,,,arrow,ARROW,Con_Synth,long,congruent,m,,
4482,mask2,canvas.Screen,12_0_0_37_3,timeout,33.0,157774.0,157773.0,157790.0,157806.0,157807.00000000003,2024-09-12T08:25:42.449Z,157823.0,,,arrow,ARROW,Con_Synth,long,congruent,m,,
4482,DELAY,canvas.Screen,12_0_0_37_4,timeout,83.0,157807.00000000003,157806.0,157823.0,157890.0,157890.00000000003,2024-09-12T08:25:42.532Z,157906.0,,,arrow,ARROW,Con_Synth,long,congruent,m,,
4482,target,canvas.Screen,12_0_0_37_5,response,978.0,157891.0,157890.0,157906.0,158868.0,158836.0,2024-09-12T08:25:43.478Z,158857.0,response_manmade,keypress(m),arrow,ARROW,Con_Synth,long,congruent,m,m,False
4482,Trial Sequence,flow.Sequence,12_0_0_37,completion,1678.0,157164.00000000003,157166.0,157190.0,158868.0,158836.0,2024-09-12T08:25:43.478Z,158857.0,,,arrow,ARROW,Con_Synth,long,congruent,m,,
4482,fixation,canvas.Screen,12_0_0_38_0,timeout,533.0,158837.00000000003,158838.0,158857.0,159373.0,159374.0,2024-09-12T08:25:44.016Z,159390.0,,,barn,TUNA,Inc_Synth_Nat,long,incongruent,n,,
4482,mask1,canvas.Screen,12_0_0_38_1,timeout,33.0,159374.0,159373.0,159390.0,159406.0,159407.0,2024-09-12T08:25:44.049Z,159423.0,,,barn,TUNA,Inc_Synth_Nat,long,incongruent,n,,
4482,prime,canvas.Screen,12_0_0_38_2,timeout,33.0,159407.0,159406.0,159423.0,159440.0,159440.0,2024-09-12T08:25:44.082Z,159456.0,,,barn,TUNA,Inc_Synth_Nat,long,incongruent,n,,
4482,mask2,canvas.Screen,12_0_0_38_3,timeout,33.0,159441.0,159440.0,159456.0,159473.0,159474.0,2024-09-12T08:25:44.115Z,159489.0,,,barn,TUNA,Inc_Synth_Nat,long,incongruent,n,,
4482,DELAY,canvas.Screen,12_0_0_38_4,timeout,84.0,159474.0,159473.0,159489.0,159556.0,159557.00000000003,2024-09-12T08:25:44.199Z,159573.0,,,barn,TUNA,Inc_Synth_Nat,long,incongruent,n,,
4482,target,canvas.Screen,12_0_0_38_5,response,1247.0,159557.00000000003,159556.0,159573.0,160803.0,160772.0,2024-09-12T08:25:45.413Z,160789.0,response_natural,keypress(n),barn,TUNA,Inc_Synth_Nat,long,incongruent,n,n,False
4482,Trial Sequence,flow.Sequence,12_0_0_38,completion,1946.0,158837.00000000003,158838.0,158857.0,160803.0,160772.0,2024-09-12T08:25:45.414Z,160789.0,,,barn,TUNA,Inc_Synth_Nat,long,incongruent,n,,
4482,fixation,canvas.Screen,12_0_0_39_0,timeout,534.0,160772.0,160774.0,160789.0,161306.0,161307.00000000003,2024-09-12T08:25:45.949Z,161323.0,,,scarf,SCARF,Con_Synth,long,congruent,m,,
4482,mask1,canvas.Screen,12_0_0_39_1,timeout,33.0,161308.0,161306.0,161323.0,161340.0,161340.0,2024-09-12T08:25:45.982Z,161356.0,,,scarf,SCARF,Con_Synth,long,congruent,m,,
4482,prime,canvas.Screen,12_0_0_39_2,timeout,34.0,161341.0,161340.0,161356.0,161373.0,161374.0,2024-09-12T08:25:46.015Z,161390.0,,,scarf,SCARF,Con_Synth,long,congruent,m,,
4482,mask2,canvas.Screen,12_0_0_39_3,timeout,33.0,161374.0,161373.0,161390.0,161406.0,161407.0,2024-09-12T08:25:46.049Z,161423.0,,,scarf,SCARF,Con_Synth,long,congruent,m,,
4482,DELAY,canvas.Screen,12_0_0_39_4,timeout,84.0,161407.0,161406.0,161423.0,161490.0,161490.0,2024-09-12T08:25:46.132Z,161507.0,,,scarf,SCARF,Con_Synth,long,congruent,m,,
4482,target,canvas.Screen,12_0_0_39_5,response,1163.0,161490.0,161490.0,161507.0,162653.0,162621.0,2024-09-12T08:25:47.262Z,162640.0,response_manmade,keypress(m),scarf,SCARF,Con_Synth,long,congruent,m,m,False
4482,Trial Sequence,flow.Sequence,12_0_0_39,completion,1864.0,160772.0,160774.0,160789.0,162653.0,162621.0,2024-09-12T08:25:47.263Z,162640.0,,,scarf,SCARF,Con_Synth,long,congruent,m,,
4482,fixation,canvas.Screen,12_0_0_40_0,timeout,534.0,162621.0,162623.0,162640.0,163157.0,163157.0,2024-09-12T08:25:47.799Z,163174.0,,,flood,SKIRT,Inc_Nat_Synth,long,incongruent,m,,
4482,mask1,canvas.Screen,12_0_0_40_1,timeout,32.0,163158.00000000003,163157.0,163174.0,163190.0,163190.0,2024-09-12T08:25:47.832Z,163206.0,,,flood,SKIRT,Inc_Nat_Synth,long,incongruent,m,,
4482,prime,canvas.Screen,12_0_0_40_2,timeout,34.0,163191.0,163190.0,163206.0,163223.0,163224.0,2024-09-12T08:25:47.865Z,163240.0,,,flood,SKIRT,Inc_Nat_Synth,long,incongruent,m,,
4482,mask2,canvas.Screen,12_0_0_40_3,timeout,34.0,163224.0,163223.0,163240.0,163257.0,163257.0,2024-09-12T08:25:47.899Z,163274.0,,,flood,SKIRT,Inc_Nat_Synth,long,incongruent,m,,
4482,DELAY,canvas.Screen,12_0_0_40_4,timeout,83.0,163257.0,163257.0,163274.0,163340.0,163340.0,2024-09-12T08:25:47.982Z,163357.0,,,flood,SKIRT,Inc_Nat_Synth,long,incongruent,m,,
4482,target,canvas.Screen,12_0_0_40_5,response,1069.0,163341.0,163340.0,163357.0,164409.0,164375.0,2024-09-12T08:25:49.017Z,164390.0,response_manmade,keypress(m),flood,SKIRT,Inc_Nat_Synth,long,incongruent,m,m,False
4482,Trial Sequence,flow.Sequence,12_0_0_40,completion,1769.0,162621.0,162623.0,162640.0,164409.0,164376.0,2024-09-12T08:25:49.017Z,164390.0,,,flood,SKIRT,Inc_Nat_Synth,long,incongruent,m,,
4482,fixation,canvas.Screen,12_0_0_41_0,timeout,532.0,164376.0,164377.0,164390.0,164907.0,164907.0,2024-09-12T08:25:49.549Z,164922.0,,,cloud,MOTEL,Inc_Nat_Synth,long,incongruent,m,,
4482,mask1,canvas.Screen,12_0_0_41_1,timeout,35.0,164908.00000000003,164907.0,164922.0,164940.0,164940.0,2024-09-12T08:25:49.582Z,164957.0,,,cloud,MOTEL,Inc_Nat_Synth,long,incongruent,m,,
4482,prime,canvas.Screen,12_0_0_41_2,timeout,33.0,164941.0,164940.0,164957.0,164973.0,164974.0,2024-09-12T08:25:49.615Z,164990.0,,,cloud,MOTEL,Inc_Nat_Synth,long,incongruent,m,,
4482,mask2,canvas.Screen,12_0_0_41_3,timeout,33.0,164974.0,164973.0,164990.0,165007.0,165007.0,2024-09-12T08:25:49.649Z,165023.0,,,cloud,MOTEL,Inc_Nat_Synth,long,incongruent,m,,
4482,DELAY,canvas.Screen,12_0_0_41_4,timeout,83.0,165007.0,165007.0,165023.0,165090.0,165090.0,2024-09-12T08:25:49.732Z,165106.0,,,cloud,MOTEL,Inc_Nat_Synth,long,incongruent,m,,
4482,target,canvas.Screen,12_0_0_41_5,response,1053.0,165091.0,165090.0,165106.0,166143.0,166111.0,2024-09-12T08:25:50.753Z,166123.0,response_manmade,keypress(m),cloud,MOTEL,Inc_Nat_Synth,long,incongruent,m,m,False
4482,Trial Sequence,flow.Sequence,12_0_0_41,completion,1753.0,164376.0,164377.0,164390.0,166143.0,166111.0,2024-09-12T08:25:50.753Z,166123.0,,,cloud,MOTEL,Inc_Nat_Synth,long,incongruent,m,,
4482,fixation,canvas.Screen,12_0_0_42_0,timeout,533.0,166112.0,166113.0,166123.0,166640.0,166641.0,2024-09-12T08:25:51.283Z,166656.0,,,lemon,DUCK,Inc_Nat_Nat,long,incongruent,m,,
4482,mask1,canvas.Screen,12_0_0_42_1,timeout,34.0,166641.0,166640.0,166656.0,166673.0,166674.0,2024-09-12T08:25:51.315Z,166690.0,,,lemon,DUCK,Inc_Nat_Nat,long,incongruent,m,,
4482,prime,canvas.Screen,12_0_0_42_2,timeout,33.0,166674.0,166673.0,166690.0,166707.0,166707.0,2024-09-12T08:25:51.349Z,166723.0,,,lemon,DUCK,Inc_Nat_Nat,long,incongruent,m,,
4482,mask2,canvas.Screen,12_0_0_42_3,timeout,34.0,166707.0,166707.0,166723.0,166740.0,166741.0,2024-09-12T08:25:51.382Z,166757.0,,,lemon,DUCK,Inc_Nat_Nat,long,incongruent,m,,
4482,DELAY,canvas.Screen,12_0_0_42_4,timeout,83.0,166741.0,166740.0,166757.0,166823.0,166824.0,2024-09-12T08:25:51.465Z,166840.0,,,lemon,DUCK,Inc_Nat_Nat,long,incongruent,m,,
4482,target,canvas.Screen,12_0_0_42_5,response,790.0,166824.0,166823.0,166840.0,167613.0,167581.00000000003,2024-09-12T08:25:52.222Z,167607.0,response_natural,keypress(n),lemon,DUCK,Inc_Nat_Nat,long,incongruent,m,m,False
4482,Trial Sequence,flow.Sequence,12_0_0_42,completion,1490.0,166112.0,166113.0,166123.0,167613.0,167581.00000000003,2024-09-12T08:25:52.223Z,167607.0,,,lemon,DUCK,Inc_Nat_Nat,long,incongruent,m,,
4482,fixation,canvas.Screen,12_0_0_43_0,timeout,533.0,167581.00000000003,167583.0,167607.0,168124.0,168124.0,2024-09-12T08:25:52.766Z,168140.0,,,swamp,DRILL,Inc_Nat_Synth,long,incongruent,m,,
4482,mask1,canvas.Screen,12_0_0_43_1,timeout,33.0,168125.0,168124.0,168140.0,168157.0,168157.0,2024-09-12T08:25:52.799Z,168173.0,,,swamp,DRILL,Inc_Nat_Synth,long,incongruent,m,,
4482,prime,canvas.Screen,12_0_0_43_2,timeout,34.0,168158.00000000003,168157.0,168173.0,168190.0,168190.0,2024-09-12T08:25:52.831Z,168207.0,,,swamp,DRILL,Inc_Nat_Synth,long,incongruent,m,,
4482,mask2,canvas.Screen,12_0_0_43_3,timeout,33.0,168190.0,168190.0,168207.0,168224.0,168224.0,2024-09-12T08:25:52.865Z,168240.0,,,swamp,DRILL,Inc_Nat_Synth,long,incongruent,m,,
4482,DELAY,canvas.Screen,12_0_0_43_4,timeout,83.0,168224.0,168224.0,168240.0,168307.0,168307.00000000003,2024-09-12T08:25:52.949Z,168323.0,,,swamp,DRILL,Inc_Nat_Synth,long,incongruent,m,,
4482,target,canvas.Screen,12_0_0_43_5,response,938.0,168308.0,168307.0,168323.0,169245.0,169212.00000000003,2024-09-12T08:25:53.854Z,169241.0,response_manmade,keypress(m),swamp,DRILL,Inc_Nat_Synth,long,incongruent,m,m,False
4482,Trial Sequence,flow.Sequence,12_0_0_43,completion,1638.0,167581.00000000003,167583.0,167607.0,169245.0,169213.0,2024-09-12T08:25:53.854Z,169241.0,,,swamp,DRILL,Inc_Nat_Synth,long,incongruent,m,,
4482,fixation,canvas.Screen,12_0_0_44_0,timeout,532.0,169213.0,169214.0,169241.0,169757.0,169757.0,2024-09-12T08:25:54.399Z,169773.0,,,stove,STOVE,Con_Synth,long,congruent,m,,
4482,mask1,canvas.Screen,12_0_0_44_1,timeout,33.0,169758.0,169757.0,169773.0,169790.0,169791.0,2024-09-12T08:25:54.432Z,169806.0,,,stove,STOVE,Con_Synth,long,congruent,m,,
4482,prime,canvas.Screen,12_0_0_44_2,timeout,34.0,169791.0,169790.0,169806.0,169824.0,169824.0,2024-09-12T08:25:54.465Z,169840.0,,,stove,STOVE,Con_Synth,long,congruent,m,,
4482,mask2,canvas.Screen,12_0_0_44_3,timeout,33.0,169824.0,169824.0,169840.0,169857.0,169857.0,2024-09-12T08:25:54.499Z,169873.0,,,stove,STOVE,Con_Synth,long,congruent,m,,
4482,DELAY,canvas.Screen,12_0_0_44_4,timeout,84.0,169858.0,169857.0,169873.0,169940.0,169941.0,2024-09-12T08:25:54.582Z,169957.0,,,stove,STOVE,Con_Synth,long,congruent,m,,
4482,target,canvas.Screen,12_0_0_44_5,response,1050.0,169941.0,169940.0,169957.0,170990.0,170958.0,2024-09-12T08:25:55.599Z,170973.0,response_natural,keypress(n),stove,STOVE,Con_Synth,long,congruent,m,m,False
4482,Trial Sequence,flow.Sequence,12_0_0_44,completion,1749.0,169213.0,169214.0,169241.0,170990.0,170958.0,2024-09-12T08:25:55.600Z,170973.0,,,stove,STOVE,Con_Synth,long,congruent,m,,
4482,fixation,canvas.Screen,12_0_0_45_0,timeout,534.0,170959.0,170960.0,170973.0,171490.0,171496.0,2024-09-12T08:25:56.137Z,171507.0,,,reef,REEF,Con_Nat,long,congruent,n,,
4482,mask1,canvas.Screen,12_0_0_45_1,timeout,33.0,171498.0,171490.0,171507.0,171523.0,171524.0,2024-09-12T08:25:56.165Z,171540.0,,,reef,REEF,Con_Nat,long,congruent,n,,
4482,prime,canvas.Screen,12_0_0_45_2,timeout,33.0,171524.0,171523.0,171540.0,171557.0,171558.0,2024-09-12T08:25:56.199Z,171573.0,,,reef,REEF,Con_Nat,long,congruent,n,,
4482,mask2,canvas.Screen,12_0_0_45_3,timeout,34.0,171558.0,171557.0,171573.0,171590.0,171591.0,2024-09-12T08:25:56.232Z,171607.0,,,reef,REEF,Con_Nat,long,congruent,n,,
4482,DELAY,canvas.Screen,12_0_0_45_4,timeout,83.0,171591.0,171590.0,171607.0,171673.0,171674.0,2024-09-12T08:25:56.315Z,171690.0,,,reef,REEF,Con_Nat,long,congruent,n,,
4482,target,canvas.Screen,12_0_0_45_5,response,983.0,171674.0,171673.0,171690.0,172656.0,172625.0,2024-09-12T08:25:57.266Z,172639.0,response_manmade,keypress(m),reef,REEF,Con_Nat,long,congruent,n,n,False
4482,Trial Sequence,flow.Sequence,12_0_0_45,completion,1683.0,170959.0,170960.0,170973.0,172656.0,172626.0,2024-09-12T08:25:57.267Z,172639.0,,,reef,REEF,Con_Nat,long,congruent,n,,
4482,fixation,canvas.Screen,12_0_0_46_0,timeout,534.0,172626.0,172628.0,172639.0,173157.0,173158.00000000003,2024-09-12T08:25:57.799Z,173173.0,,,shoe,COUCH,Inc_Synth_Synth,long,incongruent,m,,
4482,mask1,canvas.Screen,12_0_0_46_1,timeout,34.0,173158.00000000003,173157.0,173173.0,173190.0,173191.0,2024-09-12T08:25:57.832Z,173207.0,,,shoe,COUCH,Inc_Synth_Synth,long,incongruent,m,,
4482,prime,canvas.Screen,12_0_0_46_2,timeout,33.0,173191.0,173190.0,173207.0,173224.0,173224.0,2024-09-12T08:25:57.865Z,173240.0,,,shoe,COUCH,Inc_Synth_Synth,long,incongruent,m,,
4482,mask2,canvas.Screen,12_0_0_46_3,timeout,33.0,173225.0,173224.0,173240.0,173257.0,173257.0,2024-09-12T08:25:57.899Z,173273.0,,,shoe,COUCH,Inc_Synth_Synth,long,incongruent,m,,
4482,DELAY,canvas.Screen,12_0_0_46_4,timeout,84.0,173258.0,173257.0,173273.0,173340.0,173341.0,2024-09-12T08:25:57.982Z,173357.0,,,shoe,COUCH,Inc_Synth_Synth,long,incongruent,m,,
4482,target,canvas.Screen,12_0_0_46_5,response,1133.0,173341.0,173340.0,173357.0,174473.0,174440.0,2024-09-12T08:25:59.081Z,174456.0,response_manmade,keypress(m),shoe,COUCH,Inc_Synth_Synth,long,incongruent,m,m,False
4482,Trial Sequence,flow.Sequence,12_0_0_46,completion,1834.0,172626.0,172628.0,172639.0,174473.0,174440.0,2024-09-12T08:25:59.081Z,174456.0,,,shoe,COUCH,Inc_Synth_Synth,long,incongruent,m,,
4482,fixation,canvas.Screen,12_0_0_47_0,timeout,533.0,174440.0,174442.0,174456.0,174974.0,174975.0,2024-09-12T08:25:59.616Z,174989.0,,,wheat,BRICK,Inc_Nat_Synth,long,incongruent,m,,
4482,mask1,canvas.Screen,12_0_0_47_1,timeout,35.0,174975.0,174974.0,174989.0,175007.0,175008.0,2024-09-12T08:25:59.649Z,175024.0,,,wheat,BRICK,Inc_Nat_Synth,long,incongruent,m,,
4482,prime,canvas.Screen,12_0_0_47_2,timeout,32.0,175008.0,175007.0,175024.0,175040.0,175041.0,2024-09-12T08:25:59.682Z,175056.0,,,wheat,BRICK,Inc_Nat_Synth,long,incongruent,m,,
4482,mask2,canvas.Screen,12_0_0_47_3,timeout,33.0,175041.0,175040.0,175056.0,175074.0,175074.0,2024-09-12T08:25:59.715Z,175089.0,,,wheat,BRICK,Inc_Nat_Synth,long,incongruent,m,,
4482,DELAY,canvas.Screen,12_0_0_47_4,timeout,85.0,175075.00000000003,175074.0,175089.0,175157.0,175157.0,2024-09-12T08:25:59.799Z,175174.0,,,wheat,BRICK,Inc_Nat_Synth,long,incongruent,m,,
4482,target,canvas.Screen,12_0_0_47_5,response,1024.0,175158.00000000003,175157.0,175174.0,176181.0,176148.0,2024-09-12T08:26:00.789Z,176174.0,response_natural,keypress(n),wheat,BRICK,Inc_Nat_Synth,long,incongruent,m,m,False
4482,Trial Sequence,flow.Sequence,12_0_0_47,completion,1725.0,174440.0,174442.0,174456.0,176181.0,176148.0,2024-09-12T08:26:00.789Z,176174.0,,,wheat,BRICK,Inc_Nat_Synth,long,incongruent,m,,
4482,fixation,canvas.Screen,12_0_0_48_0,timeout,532.0,176149.0,176151.0,176174.0,176690.0,176691.0,2024-09-12T08:26:01.332Z,176706.0,,,bowl,WOLF,Inc_Synth_Nat,long,incongruent,n,,
4482,mask1,canvas.Screen,12_0_0_48_1,timeout,34.0,176692.0,176690.0,176706.0,176723.0,176724.0,2024-09-12T08:26:01.365Z,176740.0,,,bowl,WOLF,Inc_Synth_Nat,long,incongruent,n,,
4482,prime,canvas.Screen,12_0_0_48_2,timeout,34.0,176724.0,176723.0,176740.0,176757.0,176758.0,2024-09-12T08:26:01.399Z,176774.0,,,bowl,WOLF,Inc_Synth_Nat,long,incongruent,n,,
4482,mask2,canvas.Screen,12_0_0_48_3,timeout,33.0,176758.0,176757.0,176774.0,176790.0,176791.0,2024-09-12T08:26:01.432Z,176807.0,,,bowl,WOLF,Inc_Synth_Nat,long,incongruent,n,,
4482,DELAY,canvas.Screen,12_0_0_48_4,timeout,84.0,176791.0,176790.0,176807.0,176874.0,176874.0,2024-09-12T08:26:01.515Z,176891.0,,,bowl,WOLF,Inc_Synth_Nat,long,incongruent,n,,
4482,target,canvas.Screen,12_0_0_48_5,response,977.0,176874.0,176874.0,176891.0,177851.0,177817.0,2024-09-12T08:26:02.458Z,177841.0,response_natural,keypress(n),bowl,WOLF,Inc_Synth_Nat,long,incongruent,n,n,False
4482,Trial Sequence,flow.Sequence,12_0_0_48,completion,1677.0,176149.0,176151.0,176174.0,177851.0,177817.0,2024-09-12T08:26:02.458Z,177841.0,,,bowl,WOLF,Inc_Synth_Nat,long,incongruent,n,,
4482,fixation,canvas.Screen,12_0_0_49_0,timeout,533.0,177818.0,177819.0,177841.0,178357.0,178358.0,2024-09-12T08:26:02.999Z,178374.0,,,mall,BUSH,Inc_Synth_Nat,long,incongruent,n,,
4482,mask1,canvas.Screen,12_0_0_49_1,timeout,32.0,178358.0,178357.0,178374.0,178390.0,178391.0,2024-09-12T08:26:03.032Z,178406.0,,,mall,BUSH,Inc_Synth_Nat,long,incongruent,n,,
4482,prime,canvas.Screen,12_0_0_49_2,timeout,34.0,178391.0,178390.0,178406.0,178424.0,178424.0,2024-09-12T08:26:03.065Z,178440.0,,,mall,BUSH,Inc_Synth_Nat,long,incongruent,n,,
4482,mask2,canvas.Screen,12_0_0_49_3,timeout,34.0,178425.0,178424.0,178440.0,178457.0,178458.0,2024-09-12T08:26:03.099Z,178474.0,,,mall,BUSH,Inc_Synth_Nat,long,incongruent,n,,
4482,DELAY,canvas.Screen,12_0_0_49_4,timeout,82.0,178458.0,178457.0,178474.0,178540.0,178541.0,2024-09-12T08:26:03.182Z,178556.0,,,mall,BUSH,Inc_Synth_Nat,long,incongruent,n,,
4482,target,canvas.Screen,12_0_0_49_5,response,945.0,178541.0,178540.0,178556.0,179485.0,179452.0,2024-09-12T08:26:04.093Z,179474.0,response_natural,keypress(n),mall,BUSH,Inc_Synth_Nat,long,incongruent,n,n,False
4482,Trial Sequence,flow.Sequence,12_0_0_49,completion,1644.0,177818.0,177819.0,177841.0,179485.0,179453.0,2024-09-12T08:26:04.094Z,179474.0,,,mall,BUSH,Inc_Synth_Nat,long,incongruent,n,,
4482,fixation,canvas.Screen,12_0_0_50_0,timeout,533.0,179453.0,179455.0,179474.0,179990.0,179991.0,2024-09-12T08:26:04.632Z,180007.0,,,crate,CRATE,Con_Synth,long,congruent,m,,
4482,mask1,canvas.Screen,12_0_0_50_1,timeout,33.0,179992.0,179990.0,180007.0,180024.0,180025.0,2024-09-12T08:26:04.666Z,180040.0,,,crate,CRATE,Con_Synth,long,congruent,m,,
4482,prime,canvas.Screen,12_0_0_50_2,timeout,34.0,180025.0,180024.0,180040.0,180057.0,180058.0,2024-09-12T08:26:04.699Z,180074.0,,,crate,CRATE,Con_Synth,long,congruent,m,,
4482,mask2,canvas.Screen,12_0_0_50_3,timeout,33.0,180058.0,180057.0,180074.0,180091.0,180091.0,2024-09-12T08:26:04.732Z,180107.0,,,crate,CRATE,Con_Synth,long,congruent,m,,
4482,DELAY,canvas.Screen,12_0_0_50_4,timeout,84.0,180091.0,180091.0,180107.0,180174.0,180175.0,2024-09-12T08:26:04.816Z,180191.0,,,crate,CRATE,Con_Synth,long,congruent,m,,
4482,target,canvas.Screen,12_0_0_50_5,response,940.0,180175.0,180174.0,180191.0,181114.0,181082.0,2024-09-12T08:26:05.722Z,181107.0,response_manmade,keypress(m),crate,CRATE,Con_Synth,long,congruent,m,m,False
4482,Trial Sequence,flow.Sequence,12_0_0_50,completion,1640.0,179453.0,179455.0,179474.0,181114.0,181082.0,2024-09-12T08:26:05.723Z,181107.0,,,crate,CRATE,Con_Synth,long,congruent,m,,
4482,fixation,canvas.Screen,12_0_0_51_0,timeout,533.0,181083.0,181084.0,181107.0,181624.0,181625.0,2024-09-12T08:26:06.266Z,181640.0,,,olive,MOTOR,Inc_Nat_Synth,long,incongruent,m,,
4482,mask1,canvas.Screen,12_0_0_51_1,timeout,34.0,181625.0,181624.0,181640.0,181657.0,181658.00000000003,2024-09-12T08:26:06.299Z,181674.0,,,olive,MOTOR,Inc_Nat_Synth,long,incongruent,m,,
4482,prime,canvas.Screen,12_0_0_51_2,timeout,33.0,181658.00000000003,181657.0,181674.0,181691.0,181691.0,2024-09-12T08:26:06.332Z,181707.0,,,olive,MOTOR,Inc_Nat_Synth,long,incongruent,m,,
4482,mask2,canvas.Screen,12_0_0_51_3,timeout,33.0,181692.0,181691.0,181707.0,181724.0,181725.0,2024-09-12T08:26:06.366Z,181740.0,,,olive,MOTOR,Inc_Nat_Synth,long,incongruent,m,,
4482,DELAY,canvas.Screen,12_0_0_51_4,timeout,83.0,181725.0,181724.0,181740.0,181807.0,181808.0,2024-09-12T08:26:06.449Z,181823.0,,,olive,MOTOR,Inc_Nat_Synth,long,incongruent,m,,
4482,target,canvas.Screen,12_0_0_51_5,response,1711.0,181808.0,181807.0,181823.0,183518.0,183483.0,2024-09-12T08:26:08.124Z,183506.0,response_natural,keypress(n),olive,MOTOR,Inc_Nat_Synth,long,incongruent,m,m,False
4482,Trial Sequence,flow.Sequence,12_0_0_51,completion,2411.0,181082.0,181084.0,181107.0,183518.0,183483.0,2024-09-12T08:26:08.124Z,183506.0,,,olive,MOTOR,Inc_Nat_Synth,long,incongruent,m,,
4482,fixation,canvas.Screen,12_0_0_52_0,timeout,534.0,183483.0,183485.0,183506.0,184024.0,184025.0,2024-09-12T08:26:08.666Z,184040.0,,,boar,BOAR,Con_Nat,long,congruent,n,,
4482,mask1,canvas.Screen,12_0_0_52_1,timeout,34.0,184025.0,184024.0,184040.0,184057.0,184058.0,2024-09-12T08:26:08.699Z,184074.0,,,boar,BOAR,Con_Nat,long,congruent,n,,
4482,prime,canvas.Screen,12_0_0_52_2,timeout,33.0,184058.0,184057.0,184074.0,184090.0,184090.0,2024-09-12T08:26:08.731Z,184107.0,,,boar,BOAR,Con_Nat,long,congruent,n,,
4482,mask2,canvas.Screen,12_0_0_52_3,timeout,33.0,184091.0,184090.0,184107.0,184124.0,184124.0,2024-09-12T08:26:08.765Z,184140.0,,,boar,BOAR,Con_Nat,long,congruent,n,,
4482,DELAY,canvas.Screen,12_0_0_52_4,timeout,84.0,184125.0,184124.0,184140.0,184207.0,184208.0,2024-09-12T08:26:08.849Z,184224.0,,,boar,BOAR,Con_Nat,long,congruent,n,,
4482,target,canvas.Screen,12_0_0_52_5,response,1145.0,184208.0,184207.0,184224.0,185352.0,185318.0,2024-09-12T08:26:09.959Z,185341.0,response_manmade,keypress(m),boar,BOAR,Con_Nat,long,congruent,n,n,False
4482,Trial Sequence,flow.Sequence,12_0_0_52,completion,1846.0,183483.0,183485.0,183506.0,185352.0,185318.0,2024-09-12T08:26:09.959Z,185341.0,,,boar,BOAR,Con_Nat,long,congruent,n,,
4482,fixation,canvas.Screen,12_0_0_53_0,timeout,533.0,185319.00000000003,185320.0,185341.0,185857.0,185858.0,2024-09-12T08:26:10.499Z,185874.0,,,moose,PORCH,Inc_Nat_Synth,long,incongruent,m,,
4482,mask1,canvas.Screen,12_0_0_53_1,timeout,33.0,185858.0,185857.0,185874.0,185891.0,185891.0,2024-09-12T08:26:10.532Z,185907.0,,,moose,PORCH,Inc_Nat_Synth,long,incongruent,m,,
4482,prime,canvas.Screen,12_0_0_53_2,timeout,34.0,185892.0,185891.0,185907.0,185924.0,185924.0,2024-09-12T08:26:10.565Z,185941.0,,,moose,PORCH,Inc_Nat_Synth,long,incongruent,m,,
4482,mask2,canvas.Screen,12_0_0_53_3,timeout,33.0,185925.0,185924.0,185941.0,185957.0,185958.0,2024-09-12T08:26:10.599Z,185974.0,,,moose,PORCH,Inc_Nat_Synth,long,incongruent,m,,
4482,DELAY,canvas.Screen,12_0_0_53_4,timeout,83.0,185958.0,185957.0,185974.0,186041.0,186041.0,2024-09-12T08:26:10.682Z,186057.0,,,moose,PORCH,Inc_Nat_Synth,long,incongruent,m,,
4482,target,canvas.Screen,12_0_0_53_5,response,910.0,186042.0,186041.0,186057.0,186951.0,186919.0,2024-09-12T08:26:11.559Z,186941.0,response_manmade,keypress(m),moose,PORCH,Inc_Nat_Synth,long,incongruent,m,m,False
4482,Trial Sequence,flow.Sequence,12_0_0_53,completion,1610.0,185319.00000000003,185320.0,185341.0,186951.0,186919.0,2024-09-12T08:26:11.560Z,186941.0,,,moose,PORCH,Inc_Nat_Synth,long,incongruent,m,,
4482,fixation,canvas.Screen,12_0_0_54_0,timeout,533.0,186919.0,186921.0,186941.0,187457.0,187458.0,2024-09-12T08:26:12.099Z,187474.0,,,ocean,TREE,Inc_Nat_Nat,long,incongruent,m,,
4482,mask1,canvas.Screen,12_0_0_54_1,timeout,33.0,187459.0,187457.0,187474.0,187491.0,187491.0,2024-09-12T08:26:12.132Z,187507.0,,,ocean,TREE,Inc_Nat_Nat,long,incongruent,m,,
4482,prime,canvas.Screen,12_0_0_54_2,timeout,34.0,187492.0,187491.0,187507.0,187524.0,187525.0,2024-09-12T08:26:12.165Z,187541.0,,,ocean,TREE,Inc_Nat_Nat,long,incongruent,m,,
4482,mask2,canvas.Screen,12_0_0_54_3,timeout,32.0,187525.0,187524.0,187541.0,187558.0,187558.0,2024-09-12T08:26:12.199Z,187573.0,,,ocean,TREE,Inc_Nat_Nat,long,incongruent,m,,
4482,DELAY,canvas.Screen,12_0_0_54_4,timeout,85.0,187558.0,187558.0,187573.0,187641.0,187641.0,2024-09-12T08:26:12.282Z,187658.0,,,ocean,TREE,Inc_Nat_Nat,long,incongruent,m,,
4482,target,canvas.Screen,12_0_0_54_5,response,634.0,187642.0,187641.0,187658.0,188275.0,188242.0,2024-09-12T08:26:12.882Z,188257.0,response_natural,keypress(n),ocean,TREE,Inc_Nat_Nat,long,incongruent,m,m,False
4482,Trial Sequence,flow.Sequence,12_0_0_54,completion,1334.0,186919.0,186921.0,186941.0,188275.0,188242.0,2024-09-12T08:26:12.883Z,188257.0,,,ocean,TREE,Inc_Nat_Nat,long,incongruent,m,,
4482,fixation,canvas.Screen,12_0_0_55_0,timeout,550.0,188242.0,188244.0,188257.0,188791.0,188792.0,2024-09-12T08:26:13.432Z,188807.0,,,shell,DIRT,Inc_Nat_Nat,long,incongruent,m,,
4482,mask1,canvas.Screen,12_0_0_55_1,timeout,34.0,188792.0,188791.0,188807.0,188824.0,188825.00000000003,2024-09-12T08:26:13.465Z,188841.0,,,shell,DIRT,Inc_Nat_Nat,long,incongruent,m,,
4482,prime,canvas.Screen,12_0_0_55_2,timeout,33.0,188825.00000000003,188824.0,188841.0,188858.0,188858.0,2024-09-12T08:26:13.499Z,188874.0,,,shell,DIRT,Inc_Nat_Nat,long,incongruent,m,,
4482,mask2,canvas.Screen,12_0_0_55_3,timeout,33.0,188858.0,188858.0,188874.0,188891.0,188891.0,2024-09-12T08:26:13.532Z,188907.0,,,shell,DIRT,Inc_Nat_Nat,long,incongruent,m,,
4482,DELAY,canvas.Screen,12_0_0_55_4,timeout,84.0,188892.0,188891.0,188907.0,188974.0,188975.0,2024-09-12T08:26:13.615Z,188991.0,,,shell,DIRT,Inc_Nat_Nat,long,incongruent,m,,
4482,target,canvas.Screen,12_0_0_55_5,response,807.0,188975.0,188974.0,188991.0,189781.0,189747.0,2024-09-12T08:26:14.388Z,189757.0,response_manmade,keypress(m),shell,DIRT,Inc_Nat_Nat,long,incongruent,m,m,False
4482,Trial Sequence,flow.Sequence,12_0_0_55,completion,1524.0,188242.0,188244.0,188257.0,189781.0,189748.0,2024-09-12T08:26:14.388Z,189757.0,,,shell,DIRT,Inc_Nat_Nat,long,incongruent,m,,
4482,fixation,canvas.Screen,12_0_0_56_0,timeout,534.0,189748.0,189749.0,189757.0,190274.0,190275.0,2024-09-12T08:26:14.916Z,190291.0,,,sheep,BULL,Inc_Nat_Nat,long,incongruent,m,,
4482,mask1,canvas.Screen,12_0_0_56_1,timeout,32.0,190275.0,190274.0,190291.0,190307.0,190308.0,2024-09-12T08:26:14.948Z,190323.0,,,sheep,BULL,Inc_Nat_Nat,long,incongruent,m,,
4482,prime,canvas.Screen,12_0_0_56_2,timeout,34.0,190308.0,190307.0,190323.0,190341.0,190342.0,2024-09-12T08:26:14.982Z,190357.0,,,sheep,BULL,Inc_Nat_Nat,long,incongruent,m,,
4482,mask2,canvas.Screen,12_0_0_56_3,timeout,33.0,190342.0,190341.0,190357.0,190374.0,190375.0,2024-09-12T08:26:15.015Z,190390.0,,,sheep,BULL,Inc_Nat_Nat,long,incongruent,m,,
4482,DELAY,canvas.Screen,12_0_0_56_4,timeout,84.0,190375.0,190374.0,190390.0,190457.0,190457.0,2024-09-12T08:26:15.098Z,190474.0,,,sheep,BULL,Inc_Nat_Nat,long,incongruent,m,,
4482,target,canvas.Screen,12_0_0_56_5,response,1607.0,190457.0,190457.0,190474.0,192064.0,192031.0,2024-09-12T08:26:16.671Z,192057.0,response_manmade,keypress(m),sheep,BULL,Inc_Nat_Nat,long,incongruent,m,m,False
4482,Trial Sequence,flow.Sequence,12_0_0_56,completion,2307.0,189748.0,189749.0,189757.0,192064.0,192031.0,2024-09-12T08:26:16.672Z,192057.0,,,sheep,BULL,Inc_Nat_Nat,long,incongruent,m,,
4482,fixation,canvas.Screen,12_0_0_57_0,timeout,533.0,192032.0,192033.0,192057.0,192574.0,192575.00000000003,2024-09-12T08:26:17.216Z,192590.0,,,soap,PONY,Inc_Synth_Nat,long,incongruent,n,,
4482,mask1,canvas.Screen,12_0_0_57_1,timeout,34.0,192576.0,192574.0,192590.0,192608.0,192608.0,2024-09-12T08:26:17.249Z,192624.0,,,soap,PONY,Inc_Synth_Nat,long,incongruent,n,,
4482,prime,canvas.Screen,12_0_0_57_2,timeout,34.0,192608.0,192608.0,192624.0,192641.0,192642.0,2024-09-12T08:26:17.282Z,192658.0,,,soap,PONY,Inc_Synth_Nat,long,incongruent,n,,
4482,mask2,canvas.Screen,12_0_0_57_3,timeout,33.0,192642.0,192641.0,192658.0,192674.0,192675.0,2024-09-12T08:26:17.315Z,192691.0,,,soap,PONY,Inc_Synth_Nat,long,incongruent,n,,
4482,DELAY,canvas.Screen,12_0_0_57_4,timeout,83.0,192675.0,192674.0,192691.0,192757.0,192757.0,2024-09-12T08:26:17.398Z,192774.0,,,soap,PONY,Inc_Synth_Nat,long,incongruent,n,,
4482,target,canvas.Screen,12_0_0_57_5,response,785.0,192758.0,192757.0,192774.0,193542.0,193509.0,2024-09-12T08:26:18.149Z,193523.0,response_manmade,keypress(m),soap,PONY,Inc_Synth_Nat,long,incongruent,n,n,False
4482,Trial Sequence,flow.Sequence,12_0_0_57,completion,1485.0,192032.0,192033.0,192057.0,193542.0,193509.0,2024-09-12T08:26:18.150Z,193523.0,,,soap,PONY,Inc_Synth_Nat,long,incongruent,n,,
4482,fixation,canvas.Screen,12_0_0_58_0,timeout,535.0,193510.0,193511.0,193523.0,194040.0,194041.0,2024-09-12T08:26:18.681Z,194058.0,,,moss,MOSS,Con_Nat,long,congruent,n,,
4482,mask1,canvas.Screen,12_0_0_58_1,timeout,33.0,194041.0,194040.0,194058.0,194074.0,194075.00000000003,2024-09-12T08:26:18.715Z,194091.0,,,moss,MOSS,Con_Nat,long,congruent,n,,
4482,prime,canvas.Screen,12_0_0_58_2,timeout,33.0,194075.00000000003,194074.0,194091.0,194108.0,194108.0,2024-09-12T08:26:18.749Z,194124.0,,,moss,MOSS,Con_Nat,long,congruent,n,,
4482,mask2,canvas.Screen,12_0_0_58_3,timeout,34.0,194109.0,194108.0,194124.0,194141.0,194142.0,2024-09-12T08:26:18.782Z,194158.0,,,moss,MOSS,Con_Nat,long,congruent,n,,
4482,DELAY,canvas.Screen,12_0_0_58_4,timeout,83.0,194142.0,194141.0,194158.0,194224.0,194225.0,2024-09-12T08:26:18.865Z,194241.0,,,moss,MOSS,Con_Nat,long,congruent,n,,
4482,target,canvas.Screen,12_0_0_58_5,response,1054.0,194225.0,194224.0,194241.0,195278.0,195245.0,2024-09-12T08:26:19.886Z,195257.0,response_manmade,keypress(m),moss,MOSS,Con_Nat,long,congruent,n,n,False
4482,Trial Sequence,flow.Sequence,12_0_0_58,completion,1755.0,193509.0,193511.0,193523.0,195278.0,195246.0,2024-09-12T08:26:19.886Z,195257.0,,,moss,MOSS,Con_Nat,long,congruent,n,,
4482,fixation,canvas.Screen,12_0_0_59_0,timeout,534.0,195246.0,195247.0,195257.0,195774.0,195775.0,2024-09-12T08:26:20.415Z,195791.0,,,peas,PEAS,Con_Nat,long,congruent,n,,
4482,mask1,canvas.Screen,12_0_0_59_1,timeout,33.0,195775.0,195774.0,195791.0,195808.0,195808.0,2024-09-12T08:26:20.449Z,195824.0,,,peas,PEAS,Con_Nat,long,congruent,n,,
4482,prime,canvas.Screen,12_0_0_59_2,timeout,34.0,195809.0,195808.0,195824.0,195841.0,195842.0,2024-09-12T08:26:20.482Z,195858.0,,,peas,PEAS,Con_Nat,long,congruent,n,,
4482,mask2,canvas.Screen,12_0_0_59_3,timeout,33.0,195842.0,195841.0,195858.0,195874.0,195875.0,2024-09-12T08:26:20.515Z,195891.0,,,peas,PEAS,Con_Nat,long,congruent,n,,
4482,DELAY,canvas.Screen,12_0_0_59_4,timeout,83.0,195875.0,195874.0,195891.0,195958.0,195958.0,2024-09-12T08:26:20.599Z,195974.0,,,peas,PEAS,Con_Nat,long,congruent,n,,
4482,target,canvas.Screen,12_0_0_59_5,response,1037.0,195959.0,195958.0,195974.0,196995.0,196961.0,2024-09-12T08:26:21.601Z,196974.0,response_natural,keypress(n),peas,PEAS,Con_Nat,long,congruent,n,n,False
4482,Trial Sequence,flow.Sequence,12_0_0_59,completion,1738.0,195246.0,195247.0,195257.0,196995.0,196961.0,2024-09-12T08:26:21.601Z,196974.0,,,peas,PEAS,Con_Nat,long,congruent,n,,
4482,Long Loop,flow.Loop,12_0_0,completion,103676.0,93302.0,93304.0,93319.0,196995.0,196962.00000000003,2024-09-12T08:26:21.602Z,196974.0,,,,,,,,,,
4482,Break,canvas.Screen,12_0_1,response,35119.0,196962.00000000003,196963.0,196974.0,232082.0,232047.0,2024-09-12T08:26:56.686Z,232076.0,,keypress(Space),,,,,,,,
4482,Long Sequence,flow.Sequence,12_0,completion,138763.0,93302.0,93304.0,93319.0,232082.0,232048.0,2024-09-12T08:26:56.687Z,232076.0,,,,,,,,,,
4482,fixation,canvas.Screen,12_1_0_0_0,timeout,533.0,232049.0,232051.0,232076.0,232592.0,232593.00000000003,2024-09-12T08:26:57.232Z,232609.0,,,cave,CAVE,Con_Nat,short,congruent,n,,
4482,mask1,canvas.Screen,12_1_0_0_1,timeout,33.0,232594.0,232592.0,232609.0,232626.0,232627.0,2024-09-12T08:26:57.265Z,232642.0,,,cave,CAVE,Con_Nat,short,congruent,n,,
4482,prime,canvas.Screen,12_1_0_0_2,timeout,34.0,232627.0,232626.0,232642.0,232659.0,232659.0,2024-09-12T08:26:57.298Z,232676.0,,,cave,CAVE,Con_Nat,short,congruent,n,,
4482,mask2,canvas.Screen,12_1_0_0_3,timeout,33.0,232660.0,232659.0,232676.0,232692.0,232693.0,2024-09-12T08:26:57.332Z,232709.0,,,cave,CAVE,Con_Nat,short,congruent,n,,
4482,target,canvas.Screen,12_1_0_0_4,response,1064.0,232694.00000000003,232692.0,232709.0,233756.0,233719.0,2024-09-12T08:26:58.357Z,233742.0,response_manmade,keypress(m),cave,CAVE,Con_Nat,short,congruent,n,n,False
4482,Trial Sequence,flow.Sequence,12_1_0_0,completion,1680.0,232049.0,232051.0,232076.0,233756.0,233719.0,2024-09-12T08:26:58.358Z,233742.0,,,cave,CAVE,Con_Nat,short,congruent,n,,
4482,fixation,canvas.Screen,12_1_0_1_0,timeout,534.0,233719.0,233721.0,233742.0,234259.0,234260.0,2024-09-12T08:26:58.899Z,234276.0,,,arena,VINE,Inc_Synth_Nat,short,incongruent,n,,
4482,mask1,canvas.Screen,12_1_0_1_1,timeout,33.0,234260.0,234259.0,234276.0,234292.0,234293.0,2024-09-12T08:26:58.932Z,234309.0,,,arena,VINE,Inc_Synth_Nat,short,incongruent,n,,
4482,prime,canvas.Screen,12_1_0_1_2,timeout,33.0,234293.0,234292.0,234309.0,234325.0,234326.0,2024-09-12T08:26:58.965Z,234342.0,,,arena,VINE,Inc_Synth_Nat,short,incongruent,n,,
4482,mask2,canvas.Screen,12_1_0_1_3,timeout,34.0,234326.0,234325.0,234342.0,234359.0,234360.0,2024-09-12T08:26:58.998Z,234376.0,,,arena,VINE,Inc_Synth_Nat,short,incongruent,n,,
4482,target,canvas.Screen,12_1_0_1_4,response,1033.0,234360.0,234359.0,234376.0,235392.0,235356.0,2024-09-12T08:26:59.994Z,235376.0,response_natural,keypress(n),arena,VINE,Inc_Synth_Nat,short,incongruent,n,n,False
4482,Trial Sequence,flow.Sequence,12_1_0_1,completion,1650.0,233719.0,233721.0,233742.0,235392.0,235356.0,2024-09-12T08:26:59.995Z,235376.0,,,arena,VINE,Inc_Synth_Nat,short,incongruent,n,,
4482,fixation,canvas.Screen,12_1_0_2_0,timeout,533.0,235356.0,235358.0,235376.0,235893.0,235893.0,2024-09-12T08:27:00.532Z,235909.0,,,grape,LLAMA,Inc_Nat_Nat,short,incongruent,n,,
4482,mask1,canvas.Screen,12_1_0_2_1,timeout,33.0,235894.0,235893.0,235909.0,235926.0,235926.00000000003,2024-09-12T08:27:00.565Z,235942.0,,,grape,LLAMA,Inc_Nat_Nat,short,incongruent,n,,
4482,prime,canvas.Screen,12_1_0_2_2,timeout,34.0,235927.0,235926.0,235942.0,235959.0,235960.0,2024-09-12T08:27:00.599Z,235976.0,,,grape,LLAMA,Inc_Nat_Nat,short,incongruent,n,,
4482,mask2,canvas.Screen,12_1_0_2_3,timeout,33.0,235960.0,235959.0,235976.0,235993.0,235993.0,2024-09-12T08:27:00.632Z,236009.0,,,grape,LLAMA,Inc_Nat_Nat,short,incongruent,n,,
4482,target,canvas.Screen,12_1_0_2_4,response,866.0,235993.0,235993.0,236009.0,236859.0,236823.0,2024-09-12T08:27:01.462Z,236842.0,response_natural,keypress(n),grape,LLAMA,Inc_Nat_Nat,short,incongruent,n,n,False
4482,Trial Sequence,flow.Sequence,12_1_0_2,completion,1483.0,235356.0,235358.0,235376.0,236859.0,236824.0,2024-09-12T08:27:01.463Z,236842.0,,,grape,LLAMA,Inc_Nat_Nat,short,incongruent,n,,
4482,fixation,canvas.Screen,12_1_0_3_0,timeout,534.0,236824.0,236826.0,236842.0,237359.0,237360.0,2024-09-12T08:27:01.999Z,237376.0,,,toad,GLOVE,Inc_Nat_Synth,short,incongruent,m,,
4482,mask1,canvas.Screen,12_1_0_3_1,timeout,33.0,237360.0,237359.0,237376.0,237393.0,237393.0,2024-09-12T08:27:02.032Z,237409.0,,,toad,GLOVE,Inc_Nat_Synth,short,incongruent,m,,
4482,prime,canvas.Screen,12_1_0_3_2,timeout,34.0,237393.0,237393.0,237409.0,237426.0,237427.0,2024-09-12T08:27:02.065Z,237443.0,,,toad,GLOVE,Inc_Nat_Synth,short,incongruent,m,,
4482,mask2,canvas.Screen,12_1_0_3_3,timeout,33.0,237427.0,237426.0,237443.0,237460.0,237461.0,2024-09-12T08:27:02.099Z,237476.0,,,toad,GLOVE,Inc_Nat_Synth,short,incongruent,m,,
4482,target,canvas.Screen,12_1_0_3_4,response,992.0,237461.0,237460.0,237476.0,238452.0,238416.0,2024-09-12T08:27:03.055Z,238443.0,response_manmade,keypress(m),toad,GLOVE,Inc_Nat_Synth,short,incongruent,m,m,False
4482,Trial Sequence,flow.Sequence,12_1_0_3,completion,1610.0,236824.0,236826.0,236842.0,238452.0,238417.0,2024-09-12T08:27:03.055Z,238443.0,,,toad,GLOVE,Inc_Nat_Synth,short,incongruent,m,,
4482,fixation,canvas.Screen,12_1_0_4_0,timeout,533.0,238417.0,238418.0,238443.0,238959.0,238960.0,2024-09-12T08:27:03.599Z,238976.0,,,puppy,PUPPY,Con_Nat,short,congruent,n,,
4482,mask1,canvas.Screen,12_1_0_4_1,timeout,33.0,238960.0,238959.0,238976.0,238993.0,238993.0,2024-09-12T08:27:03.632Z,239009.0,,,puppy,PUPPY,Con_Nat,short,congruent,n,,
4482,prime,canvas.Screen,12_1_0_4_2,timeout,34.0,238993.0,238993.0,239009.0,239026.0,239027.00000000003,2024-09-12T08:27:03.665Z,239043.0,,,puppy,PUPPY,Con_Nat,short,congruent,n,,
4482,mask2,canvas.Screen,12_1_0_4_3,timeout,33.0,239027.00000000003,239026.0,239043.0,239059.0,239060.0,2024-09-12T08:27:03.698Z,239076.0,,,puppy,PUPPY,Con_Nat,short,congruent,n,,
4482,target,canvas.Screen,12_1_0_4_4,response,1012.0,239060.0,239059.0,239076.0,240071.0,240035.0,2024-09-12T08:27:04.673Z,240060.0,response_natural,keypress(n),puppy,PUPPY,Con_Nat,short,congruent,n,n,False
4482,Trial Sequence,flow.Sequence,12_1_0_4,completion,1628.0,238417.0,238418.0,238443.0,240071.0,240035.0,2024-09-12T08:27:04.673Z,240060.0,,,puppy,PUPPY,Con_Nat,short,congruent,n,,
4482,fixation,canvas.Screen,12_1_0_5_0,timeout,532.0,240035.0,240037.0,240060.0,240576.0,240577.0,2024-09-12T08:27:05.215Z,240592.0,,,toast,TOAST,Con_Synth,short,congruent,m,,
4482,mask1,canvas.Screen,12_1_0_5_1,timeout,34.0,240577.0,240576.0,240592.0,240609.0,240610.0,2024-09-12T08:27:05.248Z,240626.0,,,toast,TOAST,Con_Synth,short,congruent,m,,
4482,prime,canvas.Screen,12_1_0_5_2,timeout,33.0,240610.0,240609.0,240626.0,240643.0,240643.0,2024-09-12T08:27:05.282Z,240659.0,,,toast,TOAST,Con_Synth,short,congruent,m,,
4482,mask2,canvas.Screen,12_1_0_5_3,timeout,34.0,240644.0,240643.0,240659.0,240676.0,240676.00000000003,2024-09-12T08:27:05.315Z,240693.0,,,toast,TOAST,Con_Synth,short,congruent,m,,
4482,target,canvas.Screen,12_1_0_5_4,response,999.0,240677.0,240676.0,240693.0,241675.0,241640.00000000003,2024-09-12T08:27:06.279Z,241659.0,response_manmade,keypress(m),toast,TOAST,Con_Synth,short,congruent,m,m,False
4482,Trial Sequence,flow.Sequence,12_1_0_5,completion,1615.0,240035.0,240037.0,240060.0,241675.0,241641.0,2024-09-12T08:27:06.279Z,241659.0,,,toast,TOAST,Con_Synth,short,congruent,m,,
4482,fixation,canvas.Screen,12_1_0_6_0,timeout,534.0,241641.0,241643.0,241659.0,242176.0,242177.0,2024-09-12T08:27:06.815Z,242193.0,,,coat,COAT,Con_Synth,short,congruent,m,,
4482,mask1,canvas.Screen,12_1_0_6_1,timeout,33.0,242177.0,242176.0,242193.0,242209.0,242210.0,2024-09-12T08:27:06.848Z,242226.0,,,coat,COAT,Con_Synth,short,congruent,m,,
4482,prime,canvas.Screen,12_1_0_6_2,timeout,33.0,242210.0,242209.0,242226.0,242243.0,242244.0,2024-09-12T08:27:06.882Z,242259.0,,,coat,COAT,Con_Synth,short,congruent,m,,
4482,mask2,canvas.Screen,12_1_0_6_3,timeout,34.0,242244.0,242243.0,242259.0,242276.0,242277.00000000003,2024-09-12T08:27:06.915Z,242293.0,,,coat,COAT,Con_Synth,short,congruent,m,,
4482,target,canvas.Screen,12_1_0_6_4,response,932.0,242277.00000000003,242276.0,242293.0,243208.0,243173.0,2024-09-12T08:27:07.812Z,243193.0,response_manmade,keypress(m),coat,COAT,Con_Synth,short,congruent,m,m,False
4482,Trial Sequence,flow.Sequence,12_1_0_6,completion,1549.0,241641.0,241643.0,241659.0,243208.0,243174.0,2024-09-12T08:27:07.812Z,243193.0,,,coat,COAT,Con_Synth,short,congruent,m,,
4482,fixation,canvas.Screen,12_1_0_7_0,timeout,533.0,243174.0,243176.0,243193.0,243709.0,243710.0,2024-09-12T08:27:08.349Z,243726.0,,,rail,SQUID,Inc_Synth_Nat,short,incongruent,n,,
4482,mask1,canvas.Screen,12_1_0_7_1,timeout,33.0,243711.0,243709.0,243726.0,243743.0,243743.0,2024-09-12T08:27:08.382Z,243759.0,,,rail,SQUID,Inc_Synth_Nat,short,incongruent,n,,
4482,prime,canvas.Screen,12_1_0_7_2,timeout,34.0,243744.0,243743.0,243759.0,243776.0,243777.00000000003,2024-09-12T08:27:08.415Z,243793.0,,,rail,SQUID,Inc_Synth_Nat,short,incongruent,n,,
4482,mask2,canvas.Screen,12_1_0_7_3,timeout,33.0,243777.00000000003,243776.0,243793.0,243810.0,243810.0,2024-09-12T08:27:08.448Z,243826.0,,,rail,SQUID,Inc_Synth_Nat,short,incongruent,n,,
4482,target,canvas.Screen,12_1_0_7_4,response,1233.0,243810.0,243810.0,243826.0,245043.0,245008.0,2024-09-12T08:27:09.646Z,245026.0,response_natural,keypress(n),rail,SQUID,Inc_Synth_Nat,short,incongruent,n,n,False
4482,Trial Sequence,flow.Sequence,12_1_0_7,completion,1850.0,243174.0,243176.0,243193.0,245043.0,245008.0,2024-09-12T08:27:09.647Z,245026.0,,,rail,SQUID,Inc_Synth_Nat,short,incongruent,n,,
4482,fixation,canvas.Screen,12_1_0_8_0,timeout,533.0,245009.0,245010.0,245026.0,245543.0,245544.0,2024-09-12T08:27:10.182Z,245559.0,,,cobra,TWIG,Inc_Nat_Nat,short,incongruent,n,,
4482,mask1,canvas.Screen,12_1_0_8_1,timeout,33.0,245544.0,245543.0,245559.0,245576.0,245577.0,2024-09-12T08:27:10.215Z,245592.0,,,cobra,TWIG,Inc_Nat_Nat,short,incongruent,n,,
4482,prime,canvas.Screen,12_1_0_8_2,timeout,34.0,245577.0,245576.0,245592.0,245610.0,245610.0,2024-09-12T08:27:10.249Z,245626.0,,,cobra,TWIG,Inc_Nat_Nat,short,incongruent,n,,
4482,mask2,canvas.Screen,12_1_0_8_3,timeout,34.0,245611.00000000003,245610.0,245626.0,245643.0,245643.0,2024-09-12T08:27:10.281Z,245660.0,,,cobra,TWIG,Inc_Nat_Nat,short,incongruent,n,,
4482,target,canvas.Screen,12_1_0_8_4,response,1157.0,245643.0,245643.0,245660.0,246800.0,246764.0,2024-09-12T08:27:11.402Z,246776.0,response_natural,keypress(n),cobra,TWIG,Inc_Nat_Nat,short,incongruent,n,n,False
4482,Trial Sequence,flow.Sequence,12_1_0_8,completion,1774.0,245009.0,245010.0,245026.0,246800.0,246764.0,2024-09-12T08:27:11.402Z,246776.0,,,cobra,TWIG,Inc_Nat_Nat,short,incongruent,n,,
4482,fixation,canvas.Screen,12_1_0_9_0,timeout,534.0,246764.0,246766.0,246776.0,247293.0,247294.0,2024-09-12T08:27:11.932Z,247310.0,,,tower,TOWER,Con_Synth,short,congruent,m,,
4482,mask1,canvas.Screen,12_1_0_9_1,timeout,33.0,247294.0,247293.0,247310.0,247326.0,247327.0,2024-09-12T08:27:11.965Z,247343.0,,,tower,TOWER,Con_Synth,short,congruent,m,,
4482,prime,canvas.Screen,12_1_0_9_2,timeout,33.0,247327.0,247326.0,247343.0,247360.0,247360.0,2024-09-12T08:27:11.999Z,247376.0,,,tower,TOWER,Con_Synth,short,congruent,m,,
4482,mask2,canvas.Screen,12_1_0_9_3,timeout,34.0,247361.00000000003,247360.0,247376.0,247393.0,247393.0,2024-09-12T08:27:12.032Z,247410.0,,,tower,TOWER,Con_Synth,short,congruent,m,,
4482,target,canvas.Screen,12_1_0_9_4,response,731.0,247394.0,247393.0,247410.0,248124.0,248088.0,2024-09-12T08:27:12.726Z,248110.0,response_manmade,keypress(m),tower,TOWER,Con_Synth,short,congruent,m,m,False
4482,Trial Sequence,flow.Sequence,12_1_0_9,completion,1348.0,246764.0,246766.0,246776.0,248124.0,248088.0,2024-09-12T08:27:12.727Z,248110.0,,,tower,TOWER,Con_Synth,short,congruent,m,,
4482,fixation,canvas.Screen,12_1_0_10_0,timeout,533.0,248089.0,248090.0,248110.0,248626.0,248627.0,2024-09-12T08:27:13.265Z,248643.0,,,kiosk,SOFA,Inc_Synth_Synth,short,incongruent,m,,
4482,mask1,canvas.Screen,12_1_0_10_1,timeout,33.0,248627.0,248626.0,248643.0,248660.0,248660.0,2024-09-12T08:27:13.298Z,248676.0,,,kiosk,SOFA,Inc_Synth_Synth,short,incongruent,m,,
4482,prime,canvas.Screen,12_1_0_10_2,timeout,34.0,248660.0,248660.0,248676.0,248693.0,248694.00000000003,2024-09-12T08:27:13.332Z,248710.0,,,kiosk,SOFA,Inc_Synth_Synth,short,incongruent,m,,
4482,mask2,canvas.Screen,12_1_0_10_3,timeout,33.0,248694.00000000003,248693.0,248710.0,248726.0,248727.0,2024-09-12T08:27:13.365Z,248743.0,,,kiosk,SOFA,Inc_Synth_Synth,short,incongruent,m,,
4482,target,canvas.Screen,12_1_0_10_4,response,752.0,248727.0,248726.0,248743.0,249478.0,249440.0,2024-09-12T08:27:14.079Z,249460.0,response_manmade,keypress(m),kiosk,SOFA,Inc_Synth_Synth,short,incongruent,m,m,False
4482,Trial Sequence,flow.Sequence,12_1_0_10,completion,1368.0,248088.0,248090.0,248110.0,249478.0,249441.0,2024-09-12T08:27:14.079Z,249460.0,,,kiosk,SOFA,Inc_Synth_Synth,short,incongruent,m,,
4482,fixation,canvas.Screen,12_1_0_11_0,timeout,533.0,249441.0,249442.0,249460.0,249976.0,249977.0,2024-09-12T08:27:14.615Z,249993.0,,,sword,SWORD,Con_Synth,short,congruent,m,,
4482,mask1,canvas.Screen,12_1_0_11_1,timeout,33.0,249977.0,249976.0,249993.0,250010.0,250010.00000000003,2024-09-12T08:27:14.648Z,250026.0,,,sword,SWORD,Con_Synth,short,congruent,m,,
4482,prime,canvas.Screen,12_1_0_11_2,timeout,34.0,250011.0,250010.0,250026.0,250043.0,250044.0,2024-09-12T08:27:14.682Z,250060.0,,,sword,SWORD,Con_Synth,short,congruent,m,,
4482,mask2,canvas.Screen,12_1_0_11_3,timeout,33.0,250044.0,250043.0,250060.0,250076.0,250077.0,2024-09-12T08:27:14.715Z,250093.0,,,sword,SWORD,Con_Synth,short,congruent,m,,
4482,target,canvas.Screen,12_1_0_11_4,response,818.0,250077.0,250076.0,250093.0,250894.0,250857.0,2024-09-12T08:27:15.495Z,250876.0,response_manmade,keypress(m),sword,SWORD,Con_Synth,short,congruent,m,m,False
4482,Trial Sequence,flow.Sequence,12_1_0_11,completion,1434.0,249441.0,249442.0,249460.0,250894.0,250857.0,2024-09-12T08:27:15.495Z,250876.0,,,sword,SWORD,Con_Synth,short,congruent,m,,
4482,fixation,canvas.Screen,12_1_0_12_0,timeout,534.0,250858.0,250859.0,250876.0,251393.0,251394.0,2024-09-12T08:27:16.032Z,251410.0,,,patio,SPOON,Inc_Synth_Synth,short,incongruent,m,,
4482,mask1,canvas.Screen,12_1_0_12_1,timeout,33.0,251394.0,251393.0,251410.0,251426.0,251427.0,2024-09-12T08:27:16.065Z,251443.0,,,patio,SPOON,Inc_Synth_Synth,short,incongruent,m,,
4482,prime,canvas.Screen,12_1_0_12_2,timeout,33.0,251427.0,251426.0,251443.0,251460.0,251460.0,2024-09-12T08:27:16.099Z,251476.0,,,patio,SPOON,Inc_Synth_Synth,short,incongruent,m,,
4482,mask2,canvas.Screen,12_1_0_12_3,timeout,34.0,251461.0,251460.0,251476.0,251493.0,251494.0,2024-09-12T08:27:16.132Z,251510.0,,,patio,SPOON,Inc_Synth_Synth,short,incongruent,m,,
4482,target,canvas.Screen,12_1_0_12_4,response,1015.0,251494.0,251493.0,251510.0,252508.0,252472.0,2024-09-12T08:27:17.110Z,252492.0,response_manmade,keypress(m),patio,SPOON,Inc_Synth_Synth,short,incongruent,m,m,False
4482,Trial Sequence,flow.Sequence,12_1_0_12,completion,1632.0,250857.0,250859.0,250876.0,252508.0,252473.0,2024-09-12T08:27:17.111Z,252492.0,,,patio,SPOON,Inc_Synth_Synth,short,incongruent,m,,
4482,fixation,canvas.Screen,12_1_0_13_0,timeout,534.0,252473.0,252475.0,252492.0,253010.0,253010.00000000003,2024-09-12T08:27:17.648Z,253026.0,,,spade,SHELF,Inc_Synth_Synth,short,incongruent,m,,
4482,mask1,canvas.Screen,12_1_0_13_1,timeout,34.0,253011.0,253010.0,253026.0,253043.0,253044.0,2024-09-12T08:27:17.682Z,253060.0,,,spade,SHELF,Inc_Synth_Synth,short,incongruent,m,,
4482,prime,canvas.Screen,12_1_0_13_2,timeout,33.0,253044.0,253043.0,253060.0,253076.0,253076.0,2024-09-12T08:27:17.714Z,253093.0,,,spade,SHELF,Inc_Synth_Synth,short,incongruent,m,,
4482,mask2,canvas.Screen,12_1_0_13_3,timeout,33.0,253077.0,253076.0,253093.0,253110.0,253110.0,2024-09-12T08:27:17.748Z,253126.0,,,spade,SHELF,Inc_Synth_Synth,short,incongruent,m,,
4482,target,canvas.Screen,12_1_0_13_4,response,675.0,253111.00000000003,253110.0,253126.0,253785.0,253749.0,2024-09-12T08:27:18.387Z,253777.0,response_manmade,keypress(m),spade,SHELF,Inc_Synth_Synth,short,incongruent,m,m,False
4482,Trial Sequence,flow.Sequence,12_1_0_13,completion,1293.0,252473.0,252475.0,252492.0,253785.0,253749.0,2024-09-12T08:27:18.387Z,253777.0,,,spade,SHELF,Inc_Synth_Synth,short,incongruent,m,,
4482,fixation,canvas.Screen,12_1_0_14_0,timeout,533.0,253749.0,253751.0,253777.0,254293.0,254294.0,2024-09-12T08:27:18.932Z,254310.0,,,creek,CREEK,Con_Nat,short,congruent,n,,
4482,mask1,canvas.Screen,12_1_0_14_1,timeout,33.0,254294.0,254293.0,254310.0,254327.0,254327.0,2024-09-12T08:27:18.965Z,254343.0,,,creek,CREEK,Con_Nat,short,congruent,n,,
4482,prime,canvas.Screen,12_1_0_14_2,timeout,33.0,254327.0,254327.0,254343.0,254360.0,254361.00000000003,2024-09-12T08:27:18.999Z,254376.0,,,creek,CREEK,Con_Nat,short,congruent,n,,
4482,mask2,canvas.Screen,12_1_0_14_3,timeout,34.0,254361.00000000003,254360.0,254376.0,254393.0,254394.0,2024-09-12T08:27:19.032Z,254410.0,,,creek,CREEK,Con_Nat,short,congruent,n,,
