,ID,sender,sender_type,sender_id,ended_on,duration,time_run,time_render,time_show,time_end,time_commit,timestamp,time_switch,response,response_action,prime,target,condition,soa_condition,congruence,correct_response,correctResponse,correct
41,4482,target,canvas.Screen,12_0_0_0_5,response,1097.0,94022.0,94021.0,94037.0,95118.0,95087.0,2024-09-12T08:24:39.732Z,95104.0,response_manmade,m,storm,LAND,Inc_Nat_Nat,long,incongruent,m,m,True
48,4482,target,canvas.Screen,12_0_0_1_5,response,905.0,95805.0,95804.0,95821.0,96709.0,96678.0,2024-09-12T08:24:41.323Z,96704.0,response_manmade,m,jeans,JEANS,Con_Synth,long,congruent,m,m,True
55,4482,target,canvas.Screen,12_0_0_2_5,response,954.0,97405.0,97404.0,97427.0,98358.0,98328.0,2024-09-12T08:24:42.972Z,98354.0,response_natural,n,stone,STONE,Con_Nat,long,congruent,n,n,True
62,4482,target,canvas.Screen,12_0_0_3_5,response,1051.0,99055.0,99054.0,99071.0,100105.0,100075.0,2024-09-12T08:24:44.719Z,100087.0,response_manmade,m,taxi,CHAIN,Inc_Synth_Synth,long,incongruent,m,m,True
69,4482,target,canvas.Screen,12_0_0_4_5,response,679.0,100789.0,100788.0,100804.0,101467.0,101438.0,2024-09-12T08:24:46.082Z,101454.0,response_natural,n,crab,CRAB,Con_Nat,long,congruent,n,n,True
76,4482,target,canvas.Screen,12_0_0_5_5,response,993.0,102155.0,102154.0,102171.0,103147.0,103118.00000000001,2024-09-12T08:24:47.762Z,103138.0,response_natural,n,stick,STICK,Con_Nat,long,congruent,n,n,True
83,4482,target,canvas.Screen,12_0_0_6_5,response,1010.0,103839.0,103838.0,103854.0,104848.0,104817.0,2024-09-12T08:24:49.461Z,104838.0,response_manmade,m,bell,WHEEL,Inc_Synth_Synth,long,incongruent,m,m,True
90,4482,target,canvas.Screen,12_0_0_7_5,response,908.0,105538.0,105538.0,105554.0,106446.0,106415.0,2024-09-12T08:24:51.059Z,106437.0,response_manmade,m,cake,TRASH,Inc_Synth_Synth,long,incongruent,m,m,True
97,4482,target,canvas.Screen,12_0_0_8_5,response,698.0,107139.0,107138.0,107154.0,107836.0,107806.0,2024-09-12T08:24:52.450Z,107821.0,response_natural,n,fruit,BEAR,Inc_Nat_Nat,long,incongruent,m,m,False
104,4482,target,canvas.Screen,12_0_0_9_5,response,1313.0,108522.0,108521.0,108538.0,109834.0,109803.0,2024-09-12T08:24:54.447Z,109821.0,response_manmade,m,plum,PLUM,Con_Nat,long,congruent,n,n,False
111,4482,target,canvas.Screen,12_0_0_10_5,response,868.0,110508.0,110507.0,110521.0,111375.0,111344.00000000001,2024-09-12T08:24:55.988Z,111355.0,response_natural,n,swan,SWAN,Con_Nat,long,congruent,n,n,True
118,4482,target,canvas.Screen,12_0_0_11_5,response,911.0,112055.0,112054.0,112071.0,112965.0,112936.0,2024-09-12T08:24:57.580Z,112955.0,response_natural,n,ferry,FERRY,Con_Synth,long,congruent,m,m,False
125,4482,target,canvas.Screen,12_0_0_12_5,response,1306.0,113655.0,113655.0,113671.0,114961.0,114931.0,2024-09-12T08:24:59.575Z,114955.0,response_manmade,m,wire,CABIN,Inc_Synth_Synth,long,incongruent,m,m,True
132,4482,target,canvas.Screen,12_0_0_13_5,response,1094.0000000000146,115655.0,115655.0,115672.0,116749.00000000001,116719.00000000001,2024-09-12T08:25:01.362Z,116738.0,response_manmade,m,deck,PLATE,Inc_Synth_Synth,long,incongruent,m,m,True
139,4482,target,canvas.Screen,12_0_0_14_5,response,1623.0,117439.0,117438.0,117455.0,119061.0,119029.0,2024-09-12T08:25:03.673Z,119054.0,response_natural,n,clam,CLAM,Con_Nat,long,congruent,n,n,True
146,4482,target,canvas.Screen,12_0_0_15_5,response,1146.0,119756.0,119755.0,119772.0,120901.0,120869.0,2024-09-12T08:25:05.513Z,120888.0,response_natural,n,hare,HARE,Con_Nat,long,congruent,n,n,True
153,4482,target,canvas.Screen,12_0_0_16_5,response,766.0,121588.00000000001,121588.0,121605.0,122354.0,122323.00000000001,2024-09-12T08:25:06.966Z,122338.0,response_natural,n,pipe,LION,Inc_Synth_Nat,long,incongruent,n,n,True
160,4482,target,canvas.Screen,12_0_0_17_5,response,1272.0,123038.0,123038.0,123055.0,124310.0,124278.0,2024-09-12T08:25:08.921Z,124305.0,response_manmade,m,wasp,WASP,Con_Nat,long,congruent,n,n,False
167,4482,target,canvas.Screen,12_0_0_18_5,response,1258.0,125006.0,125005.0,125022.0,126263.0,126231.00000000001,2024-09-12T08:25:10.874Z,126255.0,response_manmade,m,eagle,WAGON,Inc_Nat_Synth,long,incongruent,m,m,True
174,4482,target,canvas.Screen,12_0_0_19_5,response,1205.0,126956.0,126955.0,126971.0,128160.0,128128.99999999999,2024-09-12T08:25:12.772Z,128155.0,response_manmade,m,stair,STAIR,Con_Synth,long,congruent,m,m,True
181,4482,target,canvas.Screen,12_0_0_20_5,response,1010.0000000000146,128854.99999999999,128855.0,128872.0,129865.00000000001,129830.99999999999,2024-09-12T08:25:14.474Z,129855.0,response_natural,n,flute,FLUTE,Con_Synth,long,congruent,m,m,False
188,4482,target,canvas.Screen,12_0_0_21_5,response,1223.0,130556.00000000001,130555.0,130572.0,131778.0,131747.0,2024-09-12T08:25:16.390Z,131772.0,response_natural,n,roof,PIANO,Inc_Synth_Synth,long,incongruent,m,m,False
195,4482,target,canvas.Screen,12_0_0_22_5,response,816.0,132473.0,132472.0,132489.0,133288.0,133255.0,2024-09-12T08:25:17.898Z,133271.0,response_natural,n,sink,LAMB,Inc_Synth_Nat,long,incongruent,n,n,True
202,4482,target,canvas.Screen,12_0_0_23_5,response,1741.0,133973.0,133972.0,133989.0,135713.0,135680.0,2024-09-12T08:25:20.323Z,135705.0,response_natural,n,canon,CANON,Con_Synth,long,congruent,m,m,False
209,4482,target,canvas.Screen,12_0_0_24_5,response,757.0,136391.0,136391.0,136405.0,137148.0,137117.0,2024-09-12T08:25:21.759Z,137139.0,response_natural,n,shark,HILL,Inc_Nat_Nat,long,incongruent,m,m,False
216,4482,target,canvas.Screen,12_0_0_25_5,response,642.0,137840.0,137839.0,137856.0,138481.0,138450.00000000003,2024-09-12T08:25:23.093Z,138472.0,response_natural,n,pear,PEAR,Con_Nat,long,congruent,n,n,True
223,4482,target,canvas.Screen,12_0_0_26_5,response,951.0,139173.0,139172.0,139189.0,140123.0,140090.0,2024-09-12T08:25:24.733Z,140105.0,response_manmade,m,slug,SLUG,Con_Nat,long,congruent,n,n,False
230,4482,target,canvas.Screen,12_0_0_27_5,response,921.0,140806.0,140806.0,140822.0,141727.0,141700.00000000003,2024-09-12T08:25:26.343Z,141722.0,response_manmade,m,flask,FLASK,Con_Synth,long,congruent,m,m,True
237,4482,target,canvas.Screen,12_0_0_28_5,response,882.0,142423.0,142422.0,142439.0,143304.0,143272.0,2024-09-12T08:25:27.914Z,143289.0,response_natural,n,desk,CANDY,Inc_Synth_Synth,long,incongruent,m,m,False
244,4482,target,canvas.Screen,12_0_0_29_5,response,1373.0,143990.0,143989.0,144006.0,145362.0,145330.0,2024-09-12T08:25:29.973Z,145355.0,response_manmade,m,broom,BROOM,Con_Synth,long,congruent,m,m,True
251,4482,target,canvas.Screen,12_0_0_30_5,response,1187.0,146057.00000000003,146056.0,146073.0,147243.0,147212.0,2024-09-12T08:25:31.854Z,147239.0,response_manmade,m,fort,GOAT,Inc_Synth_Nat,long,incongruent,n,n,False
258,4482,target,canvas.Screen,12_0_0_31_5,response,1119.0,147940.0,147939.0,147956.0,149058.0,149026.0,2024-09-12T08:25:33.668Z,149039.0,response_manmade,m,canoe,CANOE,Con_Synth,long,congruent,m,m,True
265,4482,target,canvas.Screen,12_0_0_32_5,response,750.0,149740.0,149739.0,149756.0,150489.0,150457.0,2024-09-12T08:25:35.099Z,150472.0,response_natural,n,bunny,ROSE,Inc_Nat_Nat,long,incongruent,m,m,False
272,4482,target,canvas.Screen,12_0_0_33_5,response,959.0,151174.0,151173.0,151189.0,152132.0,152100.0,2024-09-12T08:25:36.742Z,152123.0,response_natural,n,linen,LINEN,Con_Synth,long,congruent,m,m,False
279,4482,target,canvas.Screen,12_0_0_34_5,response,1103.000000000029,152824.0,152823.0,152839.0,153926.00000000003,153895.0,2024-09-12T08:25:38.537Z,153905.0,response_manmade,m,apron,APRON,Con_Synth,long,congruent,m,m,True
286,4482,target,canvas.Screen,12_0_0_35_5,response,931.0,154607.0,154606.0,154623.0,155537.0,155504.0,2024-09-12T08:25:40.146Z,155523.0,response_manmade,m,tongs,TONGS,Con_Synth,long,congruent,m,m,True
293,4482,target,canvas.Screen,12_0_0_36_5,response,973.0,156224.0,156223.0,156240.0,157196.0,157163.0,2024-09-12T08:25:41.805Z,157190.0,response_natural,n,earth,EARTH,Con_Nat,long,congruent,n,n,True
300,4482,target,canvas.Screen,12_0_0_37_5,response,978.0,157891.0,157890.0,157906.0,158868.0,158836.0,2024-09-12T08:25:43.478Z,158857.0,response_manmade,m,arrow,ARROW,Con_Synth,long,congruent,m,m,True
307,4482,target,canvas.Screen,12_0_0_38_5,response,1247.0,159557.00000000003,159556.0,159573.0,160803.0,160772.0,2024-09-12T08:25:45.413Z,160789.0,response_natural,n,barn,TUNA,Inc_Synth_Nat,long,incongruent,n,n,True
314,4482,target,canvas.Screen,12_0_0_39_5,response,1163.0,161490.0,161490.0,161507.0,162653.0,162621.0,2024-09-12T08:25:47.262Z,162640.0,response_manmade,m,scarf,SCARF,Con_Synth,long,congruent,m,m,True
321,4482,target,canvas.Screen,12_0_0_40_5,response,1069.0,163341.0,163340.0,163357.0,164409.0,164375.0,2024-09-12T08:25:49.017Z,164390.0,response_manmade,m,flood,SKIRT,Inc_Nat_Synth,long,incongruent,m,m,True
328,4482,target,canvas.Screen,12_0_0_41_5,response,1053.0,165091.0,165090.0,165106.0,166143.0,166111.0,2024-09-12T08:25:50.753Z,166123.0,response_manmade,m,cloud,MOTEL,Inc_Nat_Synth,long,incongruent,m,m,True
335,4482,target,canvas.Screen,12_0_0_42_5,response,790.0,166824.0,166823.0,166840.0,167613.0,167581.00000000003,2024-09-12T08:25:52.222Z,167607.0,response_natural,n,lemon,DUCK,Inc_Nat_Nat,long,incongruent,m,m,False
342,4482,target,canvas.Screen,12_0_0_43_5,response,938.0,168308.0,168307.0,168323.0,169245.0,169212.00000000003,2024-09-12T08:25:53.854Z,169241.0,response_manmade,m,swamp,DRILL,Inc_Nat_Synth,long,incongruent,m,m,True
349,4482,target,canvas.Screen,12_0_0_44_5,response,1050.0,169941.0,169940.0,169957.0,170990.0,170958.0,2024-09-12T08:25:55.599Z,170973.0,response_natural,n,stove,STOVE,Con_Synth,long,congruent,m,m,False
356,4482,target,canvas.Screen,12_0_0_45_5,response,983.0,171674.0,171673.0,171690.0,172656.0,172625.0,2024-09-12T08:25:57.266Z,172639.0,response_manmade,m,reef,REEF,Con_Nat,long,congruent,n,n,False
363,4482,target,canvas.Screen,12_0_0_46_5,response,1133.0,173341.0,173340.0,173357.0,174473.0,174440.0,2024-09-12T08:25:59.081Z,174456.0,response_manmade,m,shoe,COUCH,Inc_Synth_Synth,long,incongruent,m,m,True
370,4482,target,canvas.Screen,12_0_0_47_5,response,1024.0,175158.00000000003,175157.0,175174.0,176181.0,176148.0,2024-09-12T08:26:00.789Z,176174.0,response_natural,n,wheat,BRICK,Inc_Nat_Synth,long,incongruent,m,m,False
377,4482,target,canvas.Screen,12_0_0_48_5,response,977.0,176874.0,176874.0,176891.0,177851.0,177817.0,2024-09-12T08:26:02.458Z,177841.0,response_natural,n,bowl,WOLF,Inc_Synth_Nat,long,incongruent,n,n,True
384,4482,target,canvas.Screen,12_0_0_49_5,response,945.0,178541.0,178540.0,178556.0,179485.0,179452.0,2024-09-12T08:26:04.093Z,179474.0,response_natural,n,mall,BUSH,Inc_Synth_Nat,long,incongruent,n,n,True
391,4482,target,canvas.Screen,12_0_0_50_5,response,940.0,180175.0,180174.0,180191.0,181114.0,181082.0,2024-09-12T08:26:05.722Z,181107.0,response_manmade,m,crate,CRATE,Con_Synth,long,congruent,m,m,True
398,4482,target,canvas.Screen,12_0_0_51_5,response,1711.0,181808.0,181807.0,181823.0,183518.0,183483.0,2024-09-12T08:26:08.124Z,183506.0,response_natural,n,olive,MOTOR,Inc_Nat_Synth,long,incongruent,m,m,False
405,4482,target,canvas.Screen,12_0_0_52_5,response,1145.0,184208.0,184207.0,184224.0,185352.0,185318.0,2024-09-12T08:26:09.959Z,185341.0,response_manmade,m,boar,BOAR,Con_Nat,long,congruent,n,n,False
412,4482,target,canvas.Screen,12_0_0_53_5,response,910.0,186042.0,186041.0,186057.0,186951.0,186919.0,2024-09-12T08:26:11.559Z,186941.0,response_manmade,m,moose,PORCH,Inc_Nat_Synth,long,incongruent,m,m,True
419,4482,target,canvas.Screen,12_0_0_54_5,response,634.0,187642.0,187641.0,187658.0,188275.0,188242.0,2024-09-12T08:26:12.882Z,188257.0,response_natural,n,ocean,TREE,Inc_Nat_Nat,long,incongruent,m,m,False
426,4482,target,canvas.Screen,12_0_0_55_5,response,807.0,188975.0,188974.0,188991.0,189781.0,189747.0,2024-09-12T08:26:14.388Z,189757.0,response_manmade,m,shell,DIRT,Inc_Nat_Nat,long,incongruent,m,m,True
433,4482,target,canvas.Screen,12_0_0_56_5,response,1607.0,190457.0,190457.0,190474.0,192064.0,192031.0,2024-09-12T08:26:16.671Z,192057.0,response_manmade,m,sheep,BULL,Inc_Nat_Nat,long,incongruent,m,m,True
440,4482,target,canvas.Screen,12_0_0_57_5,response,785.0,192758.0,192757.0,192774.0,193542.0,193509.0,2024-09-12T08:26:18.149Z,193523.0,response_manmade,m,soap,PONY,Inc_Synth_Nat,long,incongruent,n,n,False
447,4482,target,canvas.Screen,12_0_0_58_5,response,1054.0,194225.0,194224.0,194241.0,195278.0,195245.0,2024-09-12T08:26:19.886Z,195257.0,response_manmade,m,moss,MOSS,Con_Nat,long,congruent,n,n,False
454,4482,target,canvas.Screen,12_0_0_59_5,response,1037.0,195959.0,195958.0,195974.0,196995.0,196961.0,2024-09-12T08:26:21.601Z,196974.0,response_natural,n,peas,PEAS,Con_Nat,long,congruent,n,n,True
463,4482,target,canvas.Screen,12_1_0_0_4,response,1064.0,232694.00000000003,232692.0,232709.0,233756.0,233719.0,2024-09-12T08:26:58.357Z,233742.0,response_manmade,m,cave,CAVE,Con_Nat,short,congruent,n,n,False
469,4482,target,canvas.Screen,12_1_0_1_4,response,1033.0,234360.0,234359.0,234376.0,235392.0,235356.0,2024-09-12T08:26:59.994Z,235376.0,response_natural,n,arena,VINE,Inc_Synth_Nat,short,incongruent,n,n,True
475,4482,target,canvas.Screen,12_1_0_2_4,response,866.0,235993.0,235993.0,236009.0,236859.0,236823.0,2024-09-12T08:27:01.462Z,236842.0,response_natural,n,grape,LLAMA,Inc_Nat_Nat,short,incongruent,n,n,True
481,4482,target,canvas.Screen,12_1_0_3_4,response,992.0,237461.0,237460.0,237476.0,238452.0,238416.0,2024-09-12T08:27:03.055Z,238443.0,response_manmade,m,toad,GLOVE,Inc_Nat_Synth,short,incongruent,m,m,True
487,4482,target,canvas.Screen,12_1_0_4_4,response,1012.0,239060.0,239059.0,239076.0,240071.0,240035.0,2024-09-12T08:27:04.673Z,240060.0,response_natural,n,puppy,PUPPY,Con_Nat,short,congruent,n,n,True
493,4482,target,canvas.Screen,12_1_0_5_4,response,999.0,240677.0,240676.0,240693.0,241675.0,241640.00000000003,2024-09-12T08:27:06.279Z,241659.0,response_manmade,m,toast,TOAST,Con_Synth,short,congruent,m,m,True
499,4482,target,canvas.Screen,12_1_0_6_4,response,932.0,242277.00000000003,242276.0,242293.0,243208.0,243173.0,2024-09-12T08:27:07.812Z,243193.0,response_manmade,m,coat,COAT,Con_Synth,short,congruent,m,m,True
505,4482,target,canvas.Screen,12_1_0_7_4,response,1233.0,243810.0,243810.0,243826.0,245043.0,245008.0,2024-09-12T08:27:09.646Z,245026.0,response_natural,n,rail,SQUID,Inc_Synth_Nat,short,incongruent,n,n,True
511,4482,target,canvas.Screen,12_1_0_8_4,response,1157.0,245643.0,245643.0,245660.0,246800.0,246764.0,2024-09-12T08:27:11.402Z,246776.0,response_natural,n,cobra,TWIG,Inc_Nat_Nat,short,incongruent,n,n,True
517,4482,target,canvas.Screen,12_1_0_9_4,response,731.0,247394.0,247393.0,247410.0,248124.0,248088.0,2024-09-12T08:27:12.726Z,248110.0,response_manmade,m,tower,TOWER,Con_Synth,short,congruent,m,m,True
523,4482,target,canvas.Screen,12_1_0_10_4,response,752.0,248727.0,248726.0,248743.0,249478.0,249440.0,2024-09-12T08:27:14.079Z,249460.0,response_manmade,m,kiosk,SOFA,Inc_Synth_Synth,short,incongruent,m,m,True
529,4482,target,canvas.Screen,12_1_0_11_4,response,818.0,250077.0,250076.0,250093.0,250894.0,250857.0,2024-09-12T08:27:15.495Z,250876.0,response_manmade,m,sword,SWORD,Con_Synth,short,congruent,m,m,True
535,4482,target,canvas.Screen,12_1_0_12_4,response,1015.0,251494.0,251493.0,251510.0,252508.0,252472.0,2024-09-12T08:27:17.110Z,252492.0,response_manmade,m,patio,SPOON,Inc_Synth_Synth,short,incongruent,m,m,True
541,4482,target,canvas.Screen,12_1_0_13_4,response,675.0,253111.00000000003,253110.0,253126.0,253785.0,253749.0,2024-09-12T08:27:18.387Z,253777.0,response_manmade,m,spade,SHELF,Inc_Synth_Synth,short,incongruent,m,m,True
547,4482,target,canvas.Screen,12_1_0_14_4,response,1948.999999999971,254394.0,254393.0,254410.0,256341.99999999997,256305.0,2024-09-12T08:27:20.943Z,256326.0,response_natural,n,creek,CREEK,Con_Nat,short,congruent,n,n,True
553,4482,target,canvas.Screen,12_1_0_15_4,response,828.0000000000291,256994.00000000003,256993.0,257010.0,257821.00000000003,257785.00000000003,2024-09-12T08:27:22.423Z,257810.0,response_manmade,m,belt,BELT,Con_Synth,short,congruent,m,m,True
559,4482,target,canvas.Screen,12_1_0_16_4,response,1030.0,258478.0,258477.0,258493.0,259507.0,259471.0,2024-09-12T08:27:24.109Z,259493.0,response_manmade,m,fern,PETAL,Inc_Nat_Nat,short,incongruent,n,n,False
565,4482,target,canvas.Screen,12_1_0_17_4,response,1258.0,260161.0,260160.0,260177.0,261418.0,261381.00000000003,2024-09-12T08:27:26.019Z,261410.0,response_manmade,m,ruler,PANSY,Inc_Synth_Nat,short,incongruent,n,n,False
571,4482,target,canvas.Screen,12_1_0_18_4,response,708.0,262078.00000000003,262077.0,262094.0,262785.0,262748.0,2024-09-12T08:27:27.386Z,262759.0,response_natural,n,melon,HOSE,Inc_Nat_Synth,short,incongruent,m,m,False
577,4482,target,canvas.Screen,12_1_0_19_4,response,738.0,263428.0,263427.0,263444.0,264165.0,264128.0,2024-09-12T08:27:28.766Z,264143.0,response_manmade,m,gate,GATE,Con_Synth,short,congruent,m,m,True
583,4482,target,canvas.Screen,12_1_0_20_4,response,1516.0,264828.00000000006,264827.0,264843.0,266343.0,266306.0,2024-09-12T08:27:30.944Z,266326.0,response_manmade,m,berry,OTTER,Inc_Nat_Nat,short,incongruent,n,n,False
589,4482,target,canvas.Screen,12_1_0_21_4,response,1125.0,266994.0,266994.0,267010.0,268119.0,268081.0,2024-09-12T08:27:32.718Z,268111.0,response_natural,n,spear,MOTH,Inc_Synth_Nat,short,incongruent,n,n,True
595,4482,target,canvas.Screen,12_1_0_22_4,response,964.0,268778.0,268777.0,268794.0,269741.0,269703.00000000006,2024-09-12T08:27:34.340Z,269727.0,response_manmade,m,cable,CABLE,Con_Synth,short,congruent,m,m,True
601,4482,target,canvas.Screen,12_1_0_23_4,response,1091.0,270395.0,270394.0,270410.0,271485.0,271449.0,2024-09-12T08:27:36.086Z,271477.0,response_manmade,m,seed,SEED,Con_Nat,short,congruent,n,n,False
607,4482,target,canvas.Screen,12_1_0_24_4,response,1008.0,272145.0,272144.0,272161.0,273152.0,273114.00000000006,2024-09-12T08:27:37.751Z,273127.0,response_manmade,m,torch,CHIMP,Inc_Synth_Nat,short,incongruent,n,n,False
613,4482,target,canvas.Screen,12_1_0_25_4,response,1147.0000000000582,273795.0,273794.0,273811.0,274941.00000000006,274904.0,2024-09-12T08:27:39.541Z,274927.0,response_natural,n,soil,SOIL,Con_Nat,short,congruent,n,n,True
619,4482,target,canvas.Screen,12_1_0_26_4,response,610.0,275595.0,275594.0,275611.0,276204.0,276166.0,2024-09-12T08:27:40.803Z,276194.0,response_natural,n,goose,GOOSE,Con_Nat,short,congruent,n,n,True
625,4482,target,canvas.Screen,12_1_0_27_4,response,709.0,276862.0,276861.0,276877.0,277570.0,277532.0,2024-09-12T08:27:42.169Z,277543.0,response_manmade,m,bread,BREAD,Con_Synth,short,congruent,m,m,True
631,4482,target,canvas.Screen,12_1_0_28_4,response,1100.0,278211.0,278211.0,278227.0,279311.0,279273.0,2024-09-12T08:27:43.910Z,279294.0,response_manmade,m,rope,ROPE,Con_Synth,short,congruent,m,m,True
637,4482,target,canvas.Screen,12_1_0_29_4,response,831.0000000000582,279961.0,279961.0,279977.0,280792.00000000006,280753.0,2024-09-12T08:27:45.390Z,280778.0,response_natural,n,whale,WHALE,Con_Nat,short,congruent,n,n,True
643,4482,target,canvas.Screen,12_1_0_30_4,response,637.0,281445.0,281444.0,281461.0,282081.0,282042.00000000006,2024-09-12T08:27:46.679Z,282061.0,response_manmade,m,mail,MAIL,Con_Synth,short,congruent,m,m,True
649,4482,target,canvas.Screen,12_1_0_31_4,response,947.0,282728.0,282728.0,282744.0,283675.0,283637.0,2024-09-12T08:27:48.274Z,283660.0,response_natural,n,wharf,RAZOR,Inc_Synth_Synth,short,incongruent,m,m,False
655,4482,target,canvas.Screen,12_1_0_32_4,response,632.0,284328.00000000006,284328.0,284344.0,284960.0,284922.0,2024-09-12T08:27:49.558Z,284944.0,response_manmade,m,bike,BIKE,Con_Synth,short,congruent,m,m,True
661,4482,target,canvas.Screen,12_1_0_33_4,response,1147.0,285612.0,285611.0,285628.0,286758.0,286719.0,2024-09-12T08:27:51.356Z,286745.0,response_natural,n,peach,SHED,Inc_Nat_Synth,short,incongruent,m,m,False
667,4482,target,canvas.Screen,12_1_0_34_4,response,894.0,287412.0,287411.0,287428.0,288305.0,288266.0,2024-09-12T08:27:52.903Z,288295.0,response_natural,n,frog,FROG,Con_Nat,short,congruent,n,n,True
673,4482,target,canvas.Screen,12_1_0_35_4,response,788.0,288962.0,288961.0,288978.0,289749.0,289710.0,2024-09-12T08:27:54.347Z,289728.0,response_natural,n,worm,WORM,Con_Nat,short,congruent,n,n,True
679,4482,target,canvas.Screen,12_1_0_36_4,response,1027.0,290395.0,290395.0,290410.0,291422.0,291389.0,2024-09-12T08:27:56.025Z,291410.0,response_manmade,m,sewer,CORAL,Inc_Synth_Nat,short,incongruent,n,n,False
685,4482,target,canvas.Screen,12_1_0_37_4,response,1252.0,292079.0,292078.0,292094.0,293330.0,293291.0,2024-09-12T08:27:57.928Z,293311.0,response_manmade,m,sash,CLOTH,Inc_Synth_Synth,short,incongruent,m,m,True
691,4482,target,canvas.Screen,12_1_0_38_4,response,631.0,293979.0,293978.0,293995.0,294609.0,294572.0,2024-09-12T08:27:59.208Z,294595.0,response_natural,n,deer,DEER,Con_Nat,short,congruent,n,n,True
697,4482,target,canvas.Screen,12_1_0_39_4,response,614.0,295262.0,295261.0,295278.0,295875.0,295836.0,2024-09-12T08:28:00.472Z,295862.0,response_natural,n,tiger,TIGER,Con_Nat,short,congruent,n,n,True
703,4482,target,canvas.Screen,12_1_0_40_4,response,952.0,296529.0,296528.0,296545.0,297480.0,297442.0,2024-09-12T08:28:02.078Z,297461.0,response_manmade,m,camel,BENCH,Inc_Nat_Synth,short,incongruent,m,m,True
709,4482,target,canvas.Screen,12_1_0_41_4,response,1123.0000000000582,298129.0,298128.0,298145.0,299251.00000000006,299213.0,2024-09-12T08:28:03.849Z,299228.0,response_natural,n,daisy,DAISY,Con_Nat,short,congruent,n,n,True
715,4482,target,canvas.Screen,12_1_0_42_4,response,814.0,299896.0,299895.0,299912.0,300709.0,300671.0,2024-09-12T08:28:05.307Z,300695.0,response_manmade,m,finch,SLOTH,Inc_Nat_Nat,short,incongruent,m,m,True
721,4482,target,canvas.Screen,12_1_0_43_4,response,953.0,301362.0,301361.0,301378.0,302314.0,302276.0,2024-09-12T08:28:06.912Z,302295.0,response_manmade,m,tank,TANK,Con_Synth,short,congruent,m,m,True
727,4482,target,canvas.Screen,12_1_0_44_4,response,941.0,302963.0,302962.0,302978.0,303903.0,303864.00000000006,2024-09-12T08:28:08.500Z,303878.0,response_natural,n,grass,GRASS,Con_Nat,short,congruent,n,n,True
733,4482,target,canvas.Screen,12_1_0_45_4,response,1195.0,304546.0,304545.0,304562.0,305740.0,305702.0,2024-09-12T08:28:10.337Z,305728.0,response_natural,n,corn,CORN,Con_Nat,short,congruent,n,n,True
739,4482,target,canvas.Screen,12_1_0_46_4,response,1100.0,306396.0,306395.0,306412.0,307495.0,307456.0,2024-09-12T08:28:12.092Z,307478.0,response_manmade,m,crow,YACHT,Inc_Nat_Synth,short,incongruent,m,m,True
745,4482,target,canvas.Screen,12_1_0_47_4,response,1126.0,308146.0,308145.0,308161.0,309271.0,309232.0,2024-09-12T08:28:13.868Z,309262.0,response_manmade,m,silo,PLAZA,Inc_Synth_Synth,short,incongruent,m,m,True
751,4482,target,canvas.Screen,12_1_0_48_4,response,701.0,309929.00000000006,309928.0,309945.0,310629.0,310591.0,2024-09-12T08:28:15.226Z,310611.0,response_manmade,m,water,MEDAL,Inc_Nat_Synth,short,incongruent,m,m,True
757,4482,target,canvas.Screen,12_1_0_49_4,response,895.0,311279.0,311279.0,311295.0,312174.0,312134.0,2024-09-12T08:28:16.770Z,312145.0,response_manmade,m,poppy,DINGO,Inc_Nat_Nat,short,incongruent,n,n,False
763,4482,target,canvas.Screen,12_1_0_50_4,response,1027.0,312813.0,312812.0,312829.0,313839.0,313801.0,2024-09-12T08:28:18.437Z,313829.0,response_manmade,m,hawk,HAWK,Con_Nat,short,congruent,n,n,False
769,4482,target,canvas.Screen,12_1_0_51_4,response,1423.0,314496.0,314495.0,314512.0,315918.0,315879.0,2024-09-12T08:28:20.515Z,315895.0,response_natural,n,rake,HUSKY,Inc_Synth_Nat,short,incongruent,n,n,True
775,4482,target,canvas.Screen,12_1_0_52_4,response,1606.0,316563.0,316562.0,316579.0,318168.0,318130.0,2024-09-12T08:28:22.765Z,318145.0,response_manmade,m,drug,DRUG,Con_Synth,short,congruent,m,m,True
781,4482,target,canvas.Screen,12_1_0_53_4,response,1061.0,318813.0,318812.0,318828.0,319873.0,319835.0,2024-09-12T08:28:24.470Z,319862.0,response_manmade,m,mice,TOOLS,Inc_Nat_Synth,short,incongruent,m,m,True
787,4482,target,canvas.Screen,12_1_0_54_4,response,1115.0,320530.00000000006,320529.0,320545.0,321644.0,321610.0,2024-09-12T08:28:26.245Z,321629.0,response_manmade,m,doll,DOLL,Con_Synth,short,congruent,m,m,True
793,4482,target,canvas.Screen,12_1_0_55_4,response,1096.0,322297.0,322296.0,322312.0,323392.0,323354.0,2024-09-12T08:28:27.989Z,323379.0,response_natural,n,harp,SNAIL,Inc_Synth_Nat,short,incongruent,n,n,True
799,4482,target,canvas.Screen,12_1_0_56_4,response,744.0,324047.0,324046.0,324063.0,324790.0,324751.00000000006,2024-09-12T08:28:29.386Z,324762.0,response_manmade,m,ladle,CAFÉ,Inc_Synth_Synth,short,incongruent,m,m,True
805,4482,target,canvas.Screen,12_1_0_57_4,response,1296.0,325430.0,325429.0,325446.0,326725.0,326686.0,2024-09-12T08:28:31.321Z,326712.0,response_manmade,m,lime,GULLY,Inc_Nat_Nat,short,incongruent,n,n,False
811,4482,target,canvas.Screen,12_1_0_58_4,response,1140.0,327380.0,327379.0,327396.0,328519.0,328479.0,2024-09-12T08:28:33.114Z,328496.0,response_manmade,m,leaf,COIN,Inc_Nat_Synth,short,incongruent,m,m,True
817,4482,target,canvas.Screen,12_1_0_59_4,response,637.0,329163.0,329163.0,329179.0,329800.0,329760.0,2024-09-12T08:28:34.395Z,329779.0,response_manmade,m,paint,PAINT,Con_Synth,short,congruent,m,m,True
41,4481,target,canvas.Screen,12_0_0_0_5,response,592.8999999761581,73263.60000002384,73262.5,73279.0,73871.89999997616,73872.89999997616,2024-09-12T08:23:56.970Z,73878.9,response_manmade,m,apron,APRON,Con_Synth,long,congruent,m,m,True
48,4481,target,canvas.Screen,12_0_0_1_5,response,1054.6000000000058,74580.20000004768,74578.9,74595.4,75650.0,75651.10000002384,2024-09-12T08:23:58.748Z,75661.7,response_manmade,m,flask,FLASK,Con_Synth,long,congruent,m,m,True
55,4481,target,canvas.Screen,12_0_0_2_5,response,651.7000000476837,76345.39999997616,76344.9,76361.5,77013.20000004768,77013.79999995232,2024-09-12T08:24:00.111Z,77028.0,response_natural,n,earth,EARTH,Con_Nat,long,congruent,n,n,True
62,4481,target,canvas.Screen,12_0_0_3_5,response,595.5,77728.89999997616,77727.9,77744.5,78340.0,78341.39999997616,2024-09-12T08:24:01.438Z,78344.4,response_natural,n,pipe,LION,Inc_Synth_Nat,long,incongruent,n,n,True
69,4481,target,canvas.Screen,12_0_0_4_5,response,596.9000000476808,79045.10000002384,79044.1,79060.8,79657.70000004768,79658.60000002384,2024-09-12T08:24:02.756Z,79660.6,response_manmade,m,stove,STOVE,Con_Synth,long,congruent,m,m,True
76,4481,target,canvas.Screen,12_0_0_5_5,response,1120.2999999761523,80361.60000002384,80360.5,80377.1,81497.39999997616,81497.89999997616,2024-09-12T08:24:04.595Z,81510.1,response_natural,n,stick,STICK,Con_Nat,long,congruent,n,n,True
83,4481,target,canvas.Screen,12_0_0_6_5,response,731.4999999523134,82210.60000002384,82209.9,82226.8,82958.29999995232,82959.0,2024-09-12T08:24:06.056Z,82976.6,response_manmade,m,cloud,MOTEL,Inc_Nat_Synth,long,incongruent,m,m,True
90,4481,target,canvas.Screen,12_0_0_7_5,response,838.3000000000029,83660.20000004768,83659.5,83676.2,84514.5,84515.79999995232,2024-09-12T08:24:07.613Z,84526.166,response_natural,n,bunny,ROSE,Inc_Nat_Nat,long,incongruent,m,m,False
97,4481,target,canvas.Screen,12_0_0_8_5,response,809.7000000476837,85227.20000004768,85225.8,85242.5,86052.20000004768,86052.89999997616,2024-09-12T08:24:09.150Z,86058.8,response_manmade,m,ferry,FERRY,Con_Synth,long,congruent,m,m,True
104,4481,target,canvas.Screen,12_0_0_9_5,response,1508.4000000476808,86760.0,86759.0,86775.3,88283.70000004768,88284.79999995232,2024-09-12T08:24:11.382Z,88291.906,response_natural,n,moss,MOSS,Con_Nat,long,congruent,n,n,True
111,4481,target,canvas.Screen,12_0_0_10_5,response,737.6000000238419,88992.70000004768,88991.6,89008.0,89745.60000002384,89746.70000004768,2024-09-12T08:24:12.844Z,89757.9,response_manmade,m,flute,FLUTE,Con_Synth,long,congruent,m,m,True
118,4481,target,canvas.Screen,12_0_0_11_5,response,717.7000000238477,90458.79999995232,90457.7,90474.4,91192.10000002384,91192.79999995232,2024-09-12T08:24:14.290Z,91207.4,response_natural,n,stone,STONE,Con_Nat,long,congruent,n,n,True
125,4481,target,canvas.Screen,12_0_0_12_5,response,720.3000000476895,91908.89999997616,91907.5,91923.9,92644.20000004768,92645.39999997616,2024-09-12T08:24:15.742Z,92657.1,response_natural,n,hare,HARE,Con_Nat,long,congruent,n,n,True
132,4481,target,canvas.Screen,12_0_0_13_5,response,626.2999999761523,93358.29999995232,93356.9,93373.6,93999.89999997616,94000.60000002384,2024-09-12T08:24:17.098Z,94006.6,response_manmade,m,flood,SKIRT,Inc_Nat_Synth,long,incongruent,m,m,True
139,4481,target,canvas.Screen,12_0_0_14_5,response,535.1000000476779,94707.70000004768,94706.6,94723.1,95258.20000004768,95258.70000004768,2024-09-12T08:24:18.356Z,95272.9,response_natural,n,storm,LAND,Inc_Nat_Nat,long,incongruent,m,m,False
146,4481,target,canvas.Screen,12_0_0_15_5,response,531.1999999523105,95974.39999997616,95973.0,95989.6,96520.79999995232,96521.89999997616,2024-09-12T08:24:19.619Z,96539.4,response_natural,n,ocean,TREE,Inc_Nat_Nat,long,incongruent,m,m,False
153,4481,target,canvas.Screen,12_0_0_16_5,response,829.5999999761552,97241.20000004768,97239.1,97255.8,98085.39999997616,98086.5,2024-09-12T08:24:21.184Z,98107.2,response_manmade,m,wire,CABIN,Inc_Synth_Synth,long,incongruent,m,m,True
160,4481,target,canvas.Screen,12_0_0_17_5,response,799.6000000476779,98806.5,98805.3,98822.1,99621.70000004768,99622.70000004768,2024-09-12T08:24:22.720Z,99638.5,response_natural,n,peas,PEAS,Con_Nat,long,congruent,n,n,True
167,4481,target,canvas.Screen,12_0_0_18_5,response,753.5999999761552,100339.0,100338.2,100354.8,101108.39999997616,101109.39999997616,2024-09-12T08:24:24.207Z,101121.436,response_natural,n,lemon,DUCK,Inc_Nat_Nat,long,incongruent,m,m,False
174,4481,target,canvas.Screen,12_0_0_19_5,response,1205.6000000000058,101822.60000002384,101821.3,101837.9,103043.5,103044.5,2024-09-12T08:24:26.142Z,103054.2,response_natural,n,sheep,BULL,Inc_Nat_Nat,long,incongruent,m,m,False
181,4481,target,canvas.Screen,12_0_0_20_5,response,657.9999999523134,103754.89999997616,103753.9,103770.8,104428.79999995232,104429.79999995232,2024-09-12T08:24:27.527Z,104437.44,response_natural,n,swan,SWAN,Con_Nat,long,congruent,n,n,True
188,4481,target,canvas.Screen,12_0_0_21_5,response,743.9000000476808,105138.10000002384,105137.0,105153.8,105897.70000004768,105898.39999997616,2024-09-12T08:24:28.995Z,105903.4,response_manmade,m,canon,CANON,Con_Synth,long,congruent,m,m,True
195,4481,target,canvas.Screen,12_0_0_22_5,response,713.1000000000058,106603.70000004768,106603.1,106619.9,107333.0,107334.29999995232,2024-09-12T08:24:30.431Z,107354.1,response_manmade,m,eagle,WAGON,Inc_Nat_Synth,long,incongruent,m,m,True
202,4481,target,canvas.Screen,12_0_0_23_5,response,715.000000023836,108053.89999997616,108052.8,108069.6,108784.60000002384,108785.60000002384,2024-09-12T08:24:31.883Z,108802.904,response_manmade,m,roof,PIANO,Inc_Synth_Synth,long,incongruent,m,m,True
209,4481,target,canvas.Screen,12_0_0_24_5,response,802.1000000476779,109503.60000002384,109502.4,109519.1,110321.20000004768,110322.0,2024-09-12T08:24:33.419Z,110335.8,response_manmade,m,bell,WHEEL,Inc_Synth_Synth,long,incongruent,m,m,True
216,4481,target,canvas.Screen,12_0_0_25_5,response,674.1000000476779,111036.79999995232,111035.6,111052.1,111726.20000004768,111727.20000004768,2024-09-12T08:24:34.824Z,111751.8,response_manmade,m,broom,BROOM,Con_Synth,long,congruent,m,m,True
223,4481,target,canvas.Screen,12_0_0_26_5,response,823.4000000476808,112452.79999995232,112451.6,112468.3,113291.70000004768,113292.29999995232,2024-09-12T08:24:36.389Z,113301.4,response_manmade,m,wheat,BRICK,Inc_Nat_Synth,long,incongruent,m,m,True
230,4481,target,canvas.Screen,12_0_0_27_5,response,781.4999999523134,114002.5,114001.4,114017.8,114799.29999995232,114807.79999995232,2024-09-12T08:24:37.905Z,114817.5,response_manmade,m,moose,PORCH,Inc_Nat_Synth,long,incongruent,m,m,True
237,4481,target,canvas.Screen,12_0_0_28_5,response,835.000000023836,115518.60000002384,115517.4,115534.1,116369.10000002384,116375.29999995232,2024-09-12T08:24:39.472Z,116383.8,response_natural,n,reef,REEF,Con_Nat,long,congruent,n,n,True
244,4481,target,canvas.Screen,12_0_0_29_5,response,591.8000000476895,117085.20000004768,117083.9,117100.4,117692.20000004768,117694.20000004768,2024-09-12T08:24:40.791Z,117700.1,response_manmade,m,arrow,ARROW,Con_Synth,long,congruent,m,m,True
251,4481,target,canvas.Screen,12_0_0_30_5,response,731.3999999999942,118401.39999997616,118400.1,118416.6,119148.0,119149.10000002384,2024-09-12T08:24:42.246Z,119183.1,response_manmade,m,crate,CRATE,Con_Synth,long,congruent,m,m,True
258,4481,target,canvas.Screen,12_0_0_31_5,response,612.1000000476779,119884.60000002384,119883.2,119899.6,120511.70000004768,120513.70000004768,2024-09-12T08:24:43.611Z,120516.1,response_manmade,m,shoe,COUCH,Inc_Synth_Synth,long,incongruent,m,m,True
265,4481,target,canvas.Screen,12_0_0_32_5,response,941.8999999761581,121216.5,121215.8,121232.5,122174.39999997616,122175.5,2024-09-12T08:24:45.273Z,122182.1,response_manmade,m,linen,LINEN,Con_Synth,long,congruent,m,m,True
272,4481,target,canvas.Screen,12_0_0_33_5,response,685.199999976161,122882.60000002384,122882.0,122898.7,123583.89999997616,123584.5,2024-09-12T08:24:46.682Z,123598.5,response_natural,n,bowl,WOLF,Inc_Synth_Nat,long,incongruent,n,n,True
279,4481,target,canvas.Screen,12_0_0_34_5,response,631.3999999761581,124298.89999997616,124298.2,124315.0,124946.39999997616,124946.89999997616,2024-09-12T08:24:48.044Z,124948.1,response_natural,n,boar,BOAR,Con_Nat,long,congruent,n,n,True
286,4481,target,canvas.Screen,12_0_0_35_5,response,703.8000000000029,125649.20000004768,125647.9,125664.7,126368.5,126369.29999995232,2024-09-12T08:24:49.466Z,126381.0,response_manmade,m,deck,PLATE,Inc_Synth_Synth,long,incongruent,m,m,True
293,4481,target,canvas.Screen,12_0_0_36_5,response,658.3999999761581,127081.60000002384,127080.9,127097.5,127755.89999997616,127756.5,2024-09-12T08:24:50.853Z,127764.0,response_natural,n,shell,DIRT,Inc_Nat_Nat,long,incongruent,m,m,False
300,4481,target,canvas.Screen,12_0_0_37_5,response,549.5,128464.5,128463.8,128480.5,129030.0,129031.20000004768,2024-09-12T08:24:52.128Z,129047.0,response_natural,n,clam,CLAM,Con_Nat,long,congruent,n,n,True
307,4481,target,canvas.Screen,12_0_0_38_5,response,552.1999999523105,129748.0,129746.9,129763.6,130315.79999995232,130316.79999995232,2024-09-12T08:24:53.414Z,130330.0,response_manmade,m,tongs,TONGS,Con_Synth,long,congruent,m,m,True
314,4481,target,canvas.Screen,12_0_0_39_5,response,568.8000000476895,131030.89999997616,131029.8,131046.4,131615.20000004768,131616.39999997616,2024-09-12T08:24:54.713Z,131629.6,response_manmade,m,desk,CANDY,Inc_Synth_Synth,long,incongruent,m,m,True
321,4481,target,canvas.Screen,12_0_0_40_5,response,1234.3999999761581,132314.0,132312.8,132329.5,133563.89999997616,133564.39999997616,2024-09-12T08:24:56.661Z,133579.1,response_manmade,m,cake,TRASH,Inc_Synth_Synth,long,incongruent,m,m,True
328,4481,target,canvas.Screen,12_0_0_41_5,response,639.6999999761465,134280.20000004768,134279.0,134295.7,134935.39999997616,134936.70000004768,2024-09-12T08:24:58.033Z,134945.674,response_natural,n,pear,PEAR,Con_Nat,long,congruent,n,n,True
335,4481,target,canvas.Screen,12_0_0_42_5,response,968.8000000476895,135646.60000002384,135645.3,135661.9,136630.70000004768,136631.70000004768,2024-09-12T08:24:59.729Z,136644.9,response_natural,n,shark,HILL,Inc_Nat_Nat,long,incongruent,m,m,False
342,4481,target,canvas.Screen,12_0_0_43_5,response,1647.8000000476895,137346.20000004768,137345.1,137361.4,139009.20000004768,139010.20000004768,2024-09-12T08:25:02.107Z,139027.6,response_natural,n,crab,CRAB,Con_Nat,long,congruent,n,n,True
349,4481,target,canvas.Screen,12_0_0_44_5,response,631.1000000238419,139728.70000004768,139727.4,139744.0,140375.10000002384,140376.20000004768,2024-09-12T08:25:03.473Z,140393.9,response_natural,n,plum,PLUM,Con_Nat,long,congruent,n,n,True
356,4481,target,canvas.Screen,12_0_0_45_5,response,908.1000000238419,141094.60000002384,141093.9,141110.5,142018.60000002384,142019.60000002384,2024-09-12T08:25:05.116Z,142026.8,response_manmade,m,taxi,CHAIN,Inc_Synth_Synth,long,incongruent,m,m,True
363,4481,target,canvas.Screen,12_0_0_46_5,response,614.499999976164,142694.0,142693.2,142709.9,143324.39999997616,143325.10000002384,2024-09-12T08:25:06.422Z,143343.9,response_natural,n,soap,PONY,Inc_Synth_Nat,long,incongruent,n,n,True
370,4481,target,canvas.Screen,12_0_0_47_5,response,717.3999999761581,144044.10000002384,144042.9,144059.5,144776.89999997616,144778.0,2024-09-12T08:25:07.875Z,144792.7,response_natural,n,mall,BUSH,Inc_Synth_Nat,long,incongruent,n,n,True
377,4481,target,canvas.Screen,12_0_0_48_5,response,637.8000000238535,145493.60000002384,145492.6,145509.3,146147.10000002384,146147.70000004768,2024-09-12T08:25:09.244Z,146159.0,response_manmade,m,swamp,DRILL,Inc_Nat_Synth,long,incongruent,m,m,True
384,4481,target,canvas.Screen,12_0_0_49_5,response,542.4000000476954,146843.20000004768,146842.2,146858.8,147401.20000004768,147402.20000004768,2024-09-12T08:25:10.499Z,147408.7,response_natural,n,fruit,BEAR,Inc_Nat_Nat,long,incongruent,m,m,False
391,4481,target,canvas.Screen,12_0_0_50_5,response,1355.3999999999942,148109.20000004768,148108.4,148125.1,149480.5,149481.60000002384,2024-09-12T08:25:12.578Z,149491.4,response_manmade,m,jeans,JEANS,Con_Synth,long,congruent,m,m,True
398,4481,target,canvas.Screen,12_0_0_51_5,response,540.0999999523046,150175.89999997616,150174.6,150191.2,150731.29999995232,150732.29999995232,2024-09-12T08:25:13.829Z,150741.1,response_natural,n,wasp,WASP,Con_Nat,long,congruent,n,n,True
405,4481,target,canvas.Screen,12_0_0_52_5,response,710.7000000476837,151442.10000002384,151440.9,151457.5,152168.20000004768,152169.70000004768,2024-09-12T08:25:15.267Z,152173.9,response_manmade,m,olive,MOTOR,Inc_Nat_Synth,long,incongruent,m,m,True
412,4481,target,canvas.Screen,12_0_0_53_5,response,589.5999999761698,152875.0,152873.8,152890.3,153479.89999997616,153481.10000002384,2024-09-12T08:25:16.578Z,153490.4,response_natural,n,barn,TUNA,Inc_Synth_Nat,long,incongruent,n,n,True
419,4481,target,canvas.Screen,12_0_0_54_5,response,550.0000000476721,154191.39999997616,154190.1,154206.7,154756.70000004768,154757.70000004768,2024-09-12T08:25:17.854Z,154773.3,response_manmade,m,scarf,SCARF,Con_Synth,long,congruent,m,m,True
426,4481,target,canvas.Screen,12_0_0_55_5,response,610.1999999523105,155457.70000004768,155456.7,155473.1,156083.29999995232,156084.5,2024-09-12T08:25:19.181Z,156089.6,response_natural,n,sink,LAMB,Inc_Synth_Nat,long,incongruent,n,n,True
433,4481,target,canvas.Screen,12_0_0_56_5,response,569.2000000476837,156790.60000002384,156789.4,156806.0,157375.20000004768,157376.20000004768,2024-09-12T08:25:20.473Z,157389.2,response_natural,n,fort,GOAT,Inc_Synth_Nat,long,incongruent,n,n,True
440,4481,target,canvas.Screen,12_0_0_57_5,response,825.3000000238535,158090.29999995232,158089.2,158105.8,158931.10000002384,158932.0,2024-09-12T08:25:22.029Z,158955.4,response_manmade,m,stair,STAIR,Con_Synth,long,congruent,m,m,True
447,4481,target,canvas.Screen,12_0_0_58_5,response,523.8999999999942,159656.39999997616,159655.2,159672.1,160196.0,160197.20000004768,2024-09-12T08:25:23.294Z,160205.1,response_manmade,m,canoe,CANOE,Con_Synth,long,congruent,m,m,True
454,4481,target,canvas.Screen,12_0_0_59_5,response,632.1999999523105,160906.10000002384,160905.0,160921.6,161553.79999995232,161554.89999997616,2024-09-12T08:25:24.652Z,161571.574,response_natural,n,slug,SLUG,Con_Nat,long,congruent,n,n,True
463,4481,target,canvas.Screen,12_1_0_0_4,response,609.999999976164,169003.29999995232,169002.6,169019.4,169629.39999997616,169630.60000002384,2024-09-12T08:25:32.728Z,169635.8,response_natural,n,berry,OTTER,Inc_Nat_Nat,short,incongruent,n,n,True
469,4481,target,canvas.Screen,12_1_0_1_4,response,574.3999999761581,170253.89999997616,170252.3,170269.0,170843.39999997616,170845.10000002384,2024-09-12T08:25:33.942Z,170852.1,response_natural,n,grass,GRASS,Con_Nat,short,congruent,n,n,True
475,4481,target,canvas.Screen,12_1_0_2_4,response,959.7999999523163,171469.79999995232,171468.6,171485.5,172445.29999995232,172446.39999997616,2024-09-12T08:25:35.543Z,172451.7,response_manmade,m,crow,YACHT,Inc_Nat_Synth,short,incongruent,m,m,True
481,4481,target,canvas.Screen,12_1_0_3_4,response,664.7000000238477,173069.60000002384,173068.4,173084.9,173749.60000002384,173750.5,2024-09-12T08:25:36.847Z,173768.0,response_manmade,m,paint,PAINT,Con_Synth,short,congruent,m,m,True
487,4481,target,canvas.Screen,12_1_0_4_4,response,565.1999999523105,174385.89999997616,174384.6,174401.1,174966.29999995232,174967.29999995232,2024-09-12T08:25:38.064Z,174984.6,response_manmade,m,camel,BENCH,Inc_Nat_Synth,short,incongruent,m,m,True
493,4481,target,canvas.Screen,12_1_0_5_4,response,639.3999999761581,175602.39999997616,175600.9,175617.5,176256.89999997616,176258.10000002384,2024-09-12T08:25:39.355Z,176267.4,response_natural,n,seed,SEED,Con_Nat,short,congruent,n,n,True
499,4481,target,canvas.Screen,12_1_0_6_4,response,665.9000000238302,176884.60000002384,176883.8,176900.7,177566.60000002384,177567.79999995232,2024-09-12T08:25:40.665Z,177583.6,response_manmade,m,cable,CABLE,Con_Synth,short,congruent,m,m,True
505,4481,target,canvas.Screen,12_1_0_7_4,response,807.7999999999884,178201.10000002384,178200.1,178216.7,179024.5,179025.10000002384,2024-09-12T08:25:42.122Z,179033.2,response_natural,n,ruler,PANSY,Inc_Synth_Nat,short,incongruent,n,n,True
511,4481,target,canvas.Screen,12_1_0_8_4,response,655.5999999761698,179650.60000002384,179649.8,179666.3,180321.89999997616,180322.89999997616,2024-09-12T08:25:43.420Z,180332.9,response_manmade,m,melon,HOSE,Inc_Nat_Synth,short,incongruent,m,m,True
517,4481,target,canvas.Screen,12_1_0_9_4,response,674.6000000238419,180951.10000002384,180949.7,180966.0,181640.60000002384,181641.29999995232,2024-09-12T08:25:44.738Z,181649.2,response_natural,n,worm,WORM,Con_Nat,short,congruent,n,n,True
523,4481,target,canvas.Screen,12_1_0_10_4,response,533.1000000000058,182266.60000002384,182265.9,182282.4,182815.5,182816.20000004768,2024-09-12T08:25:45.913Z,182832.2,response_manmade,m,kiosk,SOFA,Inc_Synth_Synth,short,incongruent,m,m,True
529,4481,target,canvas.Screen,12_1_0_11_4,response,659.4999999523279,183449.89999997616,183448.7,183465.3,184124.79999995232,184125.5,2024-09-12T08:25:47.222Z,184148.5,response_manmade,m,gate,GATE,Con_Synth,short,congruent,m,m,True
535,4481,target,canvas.Screen,12_1_0_12_4,response,630.3999999999942,184765.79999995232,184764.9,184781.6,185412.0,185413.29999995232,2024-09-12T08:25:48.511Z,185431.4,response_natural,n,rail,SQUID,Inc_Synth_Nat,short,incongruent,n,n,True
541,4481,target,canvas.Screen,12_1_0_13_4,response,687.6000000476779,186049.29999995232,186048.1,186064.6,186752.20000004768,186753.29999995232,2024-09-12T08:25:49.850Z,186764.4,response_manmade,m,rope,ROPE,Con_Synth,short,congruent,m,m,True
547,4481,target,canvas.Screen,12_1_0_14_4,response,588.4000000476954,187382.29999995232,187381.0,187397.8,187986.20000004768,187989.39999997616,2024-09-12T08:25:51.087Z,187997.3,response_natural,n,deer,DEER,Con_Nat,short,congruent,n,n,True
553,4481,target,canvas.Screen,12_1_0_15_4,response,840.7999999761523,188614.70000004768,188613.8,188630.6,189471.39999997616,189472.39999997616,2024-09-12T08:25:52.570Z,189480.4,response_natural,n,cobra,TWIG,Inc_Nat_Nat,short,incongruent,n,n,True
559,4481,target,canvas.Screen,12_1_0_16_4,response,783.5,190098.0,190097.1,190113.5,190897.0,190897.89999997616,2024-09-12T08:25:53.995Z,190913.4,response_natural,n,grape,LLAMA,Inc_Nat_Nat,short,incongruent,n,n,True
565,4481,target,canvas.Screen,12_1_0_17_4,response,718.8999999523221,191530.89999997616,191529.8,191546.4,192265.29999995232,192266.20000004768,2024-09-12T08:25:55.363Z,192279.704,response_natural,n,cave,CAVE,Con_Nat,short,congruent,n,n,True
571,4481,target,canvas.Screen,12_1_0_18_4,response,710.1999999761465,192897.39999997616,192896.4,192912.7,193622.89999997616,193623.60000002384,2024-09-12T08:25:56.721Z,193629.2,response_natural,n,fern,PETAL,Inc_Nat_Nat,short,incongruent,n,n,True
577,4481,target,canvas.Screen,12_1_0_19_4,response,608.0,194246.60000002384,194245.8,194262.5,194870.5,194871.20000004768,2024-09-12T08:25:57.968Z,194878.9,response_manmade,m,leaf,COIN,Inc_Nat_Synth,short,incongruent,m,m,True
583,4481,target,canvas.Screen,12_1_0_20_4,response,666.8999999999942,195496.79999995232,195495.4,195512.1,196179.0,196179.89999997616,2024-09-12T08:25:59.277Z,196195.1,response_natural,n,harp,SNAIL,Inc_Synth_Nat,short,incongruent,n,n,True
589,4481,target,canvas.Screen,12_1_0_21_4,response,786.2999999999884,196815.29999995232,196814.5,196811.7,197598.0,197599.39999997616,2024-09-12T08:26:00.697Z,197611.5,response_natural,n,sewer,CORAL,Inc_Synth_Nat,short,incongruent,n,n,True
595,4481,target,canvas.Screen,12_1_0_22_4,response,625.1000000476779,198228.60000002384,198227.9,198244.6,198869.70000004768,198870.29999995232,2024-09-12T08:26:01.967Z,198877.7,response_manmade,m,mail,MAIL,Con_Synth,short,congruent,m,m,True
601,4481,target,canvas.Screen,12_1_0_23_4,response,630.1999999523105,199495.10000002384,199494.2,199511.1,200141.29999995232,200141.89999997616,2024-09-12T08:26:03.239Z,200144.0,response_manmade,m,toad,GLOVE,Inc_Nat_Synth,short,incongruent,m,m,True
607,4481,target,canvas.Screen,12_1_0_24_4,response,740.5999999523046,200761.5,200760.7,200777.2,201517.79999995232,201518.29999995232,2024-09-12T08:26:04.615Z,201527.0,response_manmade,m,sash,CLOTH,Inc_Synth_Synth,short,incongruent,m,m,True
613,4481,target,canvas.Screen,12_1_0_25_4,response,1412.500000023836,202144.20000004768,202143.5,202160.1,203572.60000002384,203573.20000004768,2024-09-12T08:26:06.670Z,203576.4,response_manmade,m,lime,GULLY,Inc_Nat_Nat,short,incongruent,n,n,False
619,4481,target,canvas.Screen,12_1_0_26_4,response,1454.1000000238419,204193.60000002384,204192.9,204209.5,205663.60000002384,205664.5,2024-09-12T08:26:08.762Z,205675.9,response_natural,n,bread,BREAD,Con_Synth,short,congruent,m,m,False
625,4481,target,canvas.Screen,12_1_0_27_4,response,1154.0,206293.29999995232,206292.4,206309.0,207463.0,207463.70000004768,2024-09-12T08:26:10.561Z,207475.4,response_natural,n,goose,GOOSE,Con_Nat,short,congruent,n,n,True
631,4481,target,canvas.Screen,12_1_0_28_4,response,630.2000000476837,208092.60000002384,208091.8,208108.5,208738.70000004768,208739.79999995232,2024-09-12T08:26:11.837Z,208758.9,response_natural,n,hawk,HAWK,Con_Nat,short,congruent,n,n,True
637,4481,target,canvas.Screen,12_1_0_29_4,response,741.7000000238477,209376.20000004768,209374.9,209391.4,210133.10000002384,210133.89999997616,2024-09-12T08:26:13.231Z,210141.7,response_manmade,m,peach,SHED,Inc_Nat_Synth,short,incongruent,m,m,True
643,4481,target,canvas.Screen,12_1_0_30_4,response,685.5,210759.29999995232,210757.9,210774.5,211460.0,211460.89999997616,2024-09-12T08:26:14.558Z,211474.3,response_natural,n,soil,SOIL,Con_Nat,short,congruent,n,n,True
649,4481,target,canvas.Screen,12_1_0_31_4,response,658.2000000238477,212091.5,212090.8,212107.4,212765.60000002384,212766.70000004768,2024-09-12T08:26:15.864Z,212790.5,response_manmade,m,sword,SWORD,Con_Synth,short,congruent,m,m,True
655,4481,target,canvas.Screen,12_1_0_32_4,response,582.5999999523046,213407.79999995232,213407.0,213423.7,214006.29999995232,214007.29999995232,2024-09-12T08:26:17.104Z,214023.6,response_natural,n,frog,FROG,Con_Nat,short,congruent,n,n,True
661,4481,target,canvas.Screen,12_1_0_33_4,response,699.2999999999884,214641.5,214640.1,214656.7,215356.0,215357.10000002384,2024-09-12T08:26:18.454Z,215373.2,response_manmade,m,patio,SPOON,Inc_Synth_Synth,short,incongruent,m,m,True
667,4481,target,canvas.Screen,12_1_0_34_4,response,683.2000000000116,215990.60000002384,215989.7,216006.3,216689.5,216690.20000004768,2024-09-12T08:26:19.787Z,216706.1,response_natural,n,puppy,PUPPY,Con_Nat,short,congruent,n,n,True
673,4481,target,canvas.Screen,12_1_0_35_4,response,718.2000000000116,217323.60000002384,217322.8,217339.3,218057.5,218058.39999997616,2024-09-12T08:26:21.156Z,218072.5,response_manmade,m,toast,TOAST,Con_Synth,short,congruent,m,m,True
679,4481,target,canvas.Screen,12_1_0_36_4,response,916.3999999999942,218689.79999995232,218689.1,218705.6,219622.0,219622.70000004768,2024-09-12T08:26:22.720Z,219638.7,response_manmade,m,ladle,CAFÉ,Inc_Synth_Synth,short,incongruent,m,m,True
685,4481,target,canvas.Screen,12_1_0_37_4,response,704.9999999523279,220255.89999997616,220255.2,220271.8,220976.79999995232,220977.60000002384,2024-09-12T08:26:24.075Z,220988.3,response_manmade,m,drug,DRUG,Con_Synth,short,congruent,m,m,True
691,4481,target,canvas.Screen,12_1_0_38_4,response,717.8000000476895,221606.20000004768,221605.1,221621.4,222339.20000004768,222339.89999997616,2024-09-12T08:26:25.437Z,222354.6,response_manmade,m,doll,DOLL,Con_Synth,short,congruent,m,m,True
697,4481,target,canvas.Screen,12_1_0_39_4,response,543.3000000238535,222972.60000002384,222971.2,222987.8,223531.10000002384,223532.0,2024-09-12T08:26:26.629Z,223537.6,response_natural,n,whale,WHALE,Con_Nat,short,congruent,n,n,True
703,4481,target,canvas.Screen,12_1_0_40_4,response,614.9999999523279,224155.70000004768,224154.2,224170.8,224785.79999995232,224786.70000004768,2024-09-12T08:26:27.884Z,224803.9,response_manmade,m,tank,TANK,Con_Synth,short,congruent,m,m,True
709,4481,target,canvas.Screen,12_1_0_41_4,response,728.7999999523163,225421.39999997616,225420.5,225437.0,226165.79999995232,226166.39999997616,2024-09-12T08:26:29.264Z,226170.2,response_natural,n,creek,CREEK,Con_Nat,short,congruent,n,n,True
715,4481,target,canvas.Screen,12_1_0_42_4,response,943.5999999761698,226787.39999997616,226786.7,226803.3,227746.89999997616,227747.89999997616,2024-09-12T08:26:30.845Z,227753.1,response_natural,n,corn,CORN,Con_Nat,short,congruent,n,n,True
721,4481,target,canvas.Screen,12_1_0_43_4,response,693.7999999999884,228371.20000004768,228369.7,228386.2,229080.0,229080.60000002384,2024-09-12T08:26:32.178Z,229086.0,response_natural,n,torch,CHIMP,Inc_Synth_Nat,short,incongruent,n,n,True
727,4481,target,canvas.Screen,12_1_0_44_4,response,1034.9000000238302,229703.20000004768,229702.5,229719.2,230754.10000002384,230756.70000004768,2024-09-12T08:26:33.854Z,230769.0,response_natural,n,rake,HUSKY,Inc_Synth_Nat,short,incongruent,n,n,True
733,4481,target,canvas.Screen,12_1_0_45_4,response,657.2999999761523,231386.29999995232,231385.6,231402.1,232059.39999997616,232061.89999997616,2024-09-12T08:26:35.159Z,232068.6,response_natural,n,tiger,TIGER,Con_Nat,short,congruent,n,n,True
739,4481,target,canvas.Screen,12_1_0_46_4,response,1017.6000000238419,232688.70000004768,232688.0,232685.0,233702.60000002384,233703.5,2024-09-12T08:26:36.801Z,233718.2,response_manmade,m,spade,SHELF,Inc_Synth_Synth,short,incongruent,m,m,True
745,4481,target,canvas.Screen,12_1_0_47_4,response,1074.5999999761698,234336.29999995232,234334.7,234351.3,235425.89999997616,235427.0,2024-09-12T08:26:38.524Z,235434.3,response_manmade,m,mice,TOOLS,Inc_Nat_Synth,short,incongruent,m,m,True
751,4481,target,canvas.Screen,12_1_0_48_4,response,652.7000000238477,236052.39999997616,236050.9,236067.4,236720.10000002384,236721.10000002384,2024-09-12T08:26:39.818Z,236734.0,response_natural,n,spear,MOTH,Inc_Synth_Nat,short,incongruent,n,n,True
757,4481,target,canvas.Screen,12_1_0_49_4,response,549.9000000476954,237328.0,237327.29999995232,237333.8,237883.70000004768,237884.70000004768,2024-09-12T08:26:40.982Z,237900.4,response_manmade,m,belt,BELT,Con_Synth,short,congruent,m,m,True
763,4481,target,canvas.Screen,12_1_0_50_4,response,691.1999999761465,238494.79999995232,238494.10000002384,238500.2,239191.39999997616,239191.79999995232,2024-09-12T08:26:42.289Z,239199.9,response_manmade,m,bike,BIKE,Con_Synth,short,congruent,m,m,True
769,4481,target,canvas.Screen,12_1_0_51_4,response,576.5999999523046,239817.29999995232,239816.4,239833.2,240409.79999995232,240410.29999995232,2024-09-12T08:26:43.507Z,240416.2,response_natural,n,daisy,DAISY,Con_Nat,short,congruent,n,n,True
775,4481,target,canvas.Screen,12_1_0_52_4,response,843.8999999523221,241033.29999995232,241032.8,241049.4,241893.29999995232,241894.5,2024-09-12T08:26:44.992Z,241899.2,response_natural,n,poppy,DINGO,Inc_Nat_Nat,short,incongruent,n,n,True
781,4481,target,canvas.Screen,12_1_0_53_4,response,653.9000000476954,242516.60000002384,242515.7,242532.3,243186.20000004768,243186.89999997616,2024-09-12T08:26:46.284Z,243198.9,response_natural,n,finch,SLOTH,Inc_Nat_Nat,short,incongruent,m,m,False
787,4481,target,canvas.Screen,12_1_0_54_4,response,599.1000000238419,243816.0,243815.4,243832.0,244431.10000002384,244431.60000002384,2024-09-12T08:26:47.529Z,244448.5,response_manmade,m,silo,PLAZA,Inc_Synth_Synth,short,incongruent,m,m,True
793,4481,target,canvas.Screen,12_1_0_55_4,response,741.000000023836,245065.89999997616,245065.0,245081.6,245822.60000002384,245823.20000004768,2024-09-12T08:26:48.920Z,245831.5,response_manmade,m,coat,COAT,Con_Synth,short,congruent,m,m,True
799,4481,target,canvas.Screen,12_1_0_56_4,response,650.1000000476779,246448.60000002384,246447.9,246464.6,247114.70000004768,247115.29999995232,2024-09-12T08:26:50.212Z,247131.0,response_manmade,m,wharf,RAZOR,Inc_Synth_Synth,short,incongruent,m,m,True
805,4481,target,canvas.Screen,12_1_0_57_4,response,512.1999999761465,247749.10000002384,247747.8,247764.2,248276.39999997616,248277.60000002384,2024-09-12T08:26:51.374Z,248280.8,response_manmade,m,tower,TOWER,Con_Synth,short,congruent,m,m,True
811,4481,target,canvas.Screen,12_1_0_58_4,response,731.3999999999942,248897.89999997616,248897.2,248914.1,249645.5,249646.89999997616,2024-09-12T08:26:52.744Z,249663.7,response_natural,n,arena,VINE,Inc_Synth_Nat,short,incongruent,n,n,True
817,4481,target,canvas.Screen,12_1_0_59_4,response,593.4999999523279,250281.20000004768,250280.3,250296.8,250890.29999995232,250891.20000004768,2024-09-12T08:26:53.988Z,250896.7,response_manmade,m,water,MEDAL,Inc_Nat_Synth,short,incongruent,m,m,True
40,4480,target,canvas.Screen,12_0_0_0_4,response,950.0,83162.0,83161.0,83195.0,84111.0,84116.0,2024-09-12T08:22:48.985Z,84161.0,response_natural,n,mail,MAIL,Con_Synth,short,congruent,m,m,False
46,4480,target,canvas.Screen,12_0_0_1_4,timeout,1982.0,84862.0,84861.0,84895.0,86845.0,86845.0,2024-09-12T08:22:51.714Z,86877.0,,,camel,BENCH,Inc_Nat_Synth,short,incongruent,m,,False
52,4480,target,canvas.Screen,12_0_0_2_4,response,863.0,87578.0,87577.0,87611.0,88440.0,88445.00000000001,2024-09-12T08:22:53.314Z,88495.0,response_natural,n,puppy,PUPPY,Con_Nat,short,congruent,n,n,True
58,4480,target,canvas.Screen,12_0_0_3_4,response,1029.0,89195.00000000001,89195.0,89228.0,90224.0,90228.00000000001,2024-09-12T08:22:55.097Z,90277.0,response_manmade,m,grass,GRASS,Con_Nat,short,congruent,n,n,False
64,4480,target,canvas.Screen,12_0_0_4_4,response,1321.0,90978.00000000001,90978.0,91010.0,92299.0,92304.0,2024-09-12T08:22:57.173Z,92344.0,response_manmade,m,ladle,CAFÉ,Inc_Synth_Synth,short,incongruent,m,m,True
70,4480,target,canvas.Screen,12_0_0_5_4,response,754.0,93045.0,93044.0,93077.0,93798.0,93803.0,2024-09-12T08:22:58.672Z,93844.0,response_natural,n,tiger,TIGER,Con_Nat,short,congruent,n,n,True
76,4480,target,canvas.Screen,12_0_0_6_4,response,727.0,94544.0,94544.0,94578.0,95271.0,95276.0,2024-09-12T08:23:00.145Z,95327.0,response_manmade,m,toast,TOAST,Con_Synth,short,congruent,m,m,True
82,4480,target,canvas.Screen,12_0_0_7_4,response,1337.0000000000146,96028.0,96028.0,96061.0,97365.00000000001,97369.0,2024-09-12T08:23:02.238Z,97410.0,response_manmade,m,gate,GATE,Con_Synth,short,congruent,m,m,True
88,4480,target,canvas.Screen,12_0_0_8_4,response,894.0,98179.0,98178.0,98210.0,99072.0,99076.00000000001,2024-09-12T08:23:03.945Z,99127.0,response_manmade,m,cable,CABLE,Con_Synth,short,congruent,m,m,True
94,4480,target,canvas.Screen,12_0_0_9_4,response,1014.0000000000146,99828.0,99827.0,99861.0,100841.00000000001,100846.0,2024-09-12T08:23:05.715Z,100894.0,response_natural,n,water,MEDAL,Inc_Nat_Synth,short,incongruent,m,m,False
100,4480,target,canvas.Screen,12_0_0_10_4,response,1256.0000000000146,101595.0,101594.0,101630.0,102850.00000000001,102855.0,2024-09-12T08:23:07.724Z,102894.0,response_natural,n,goose,GOOSE,Con_Nat,short,congruent,n,n,True
106,4480,target,canvas.Screen,12_0_0_11_4,response,1242.0,103595.0,103594.0,103627.0,104836.0,104840.0,2024-09-12T08:23:09.710Z,104893.0,response_manmade,m,silo,PLAZA,Inc_Synth_Synth,short,incongruent,m,m,True
112,4480,target,canvas.Screen,12_0_0_12_4,response,761.0,105594.00000000001,105593.0,105628.0,106354.0,106359.00000000001,2024-09-12T08:23:11.228Z,106410.0,response_manmade,m,kiosk,SOFA,Inc_Synth_Synth,short,incongruent,m,m,True
118,4480,target,canvas.Screen,12_0_0_13_4,response,1640.0,107112.00000000001,107111.0,107144.0,108751.0,108756.0,2024-09-12T08:23:13.625Z,108794.0,response_manmade,m,peach,SHED,Inc_Nat_Synth,short,incongruent,m,m,True
124,4480,target,canvas.Screen,12_0_0_14_4,response,1355.0,109495.0,109494.0,109527.0,110849.0,110854.0,2024-09-12T08:23:15.723Z,110894.0,response_natural,n,hawk,HAWK,Con_Nat,short,congruent,n,n,True
130,4480,target,canvas.Screen,12_0_0_15_4,response,1738.0,111594.00000000001,111593.0,111628.0,113331.0,113336.0,2024-09-12T08:23:18.205Z,113377.0,response_manmade,m,melon,HOSE,Inc_Nat_Synth,short,incongruent,m,m,True
136,4480,target,canvas.Screen,12_0_0_16_4,response,1032.0000000000146,114078.0,114077.0,114111.0,115109.00000000001,115114.0,2024-09-12T08:23:19.983Z,115160.0,response_natural,n,daisy,DAISY,Con_Nat,short,congruent,n,n,True
142,4480,target,canvas.Screen,12_0_0_17_4,response,750.0,115861.0,115861.0,115894.0,116611.0,116616.0,2024-09-12T08:23:21.485Z,116660.0,response_natural,n,grape,LLAMA,Inc_Nat_Nat,short,incongruent,n,n,True
148,4480,target,canvas.Screen,12_0_0_18_4,response,1180.0,117361.0,117361.0,117394.0,118541.0,118546.0,2024-09-12T08:23:23.415Z,118593.0,response_manmade,m,worm,WORM,Con_Nat,short,congruent,n,n,False
154,4480,target,canvas.Screen,12_0_0_19_4,response,951.0,119295.0,119294.0,119328.0,120245.0,120250.0,2024-09-12T08:23:25.119Z,120293.0,response_manmade,m,cave,CAVE,Con_Nat,short,congruent,n,n,False
160,4480,target,canvas.Screen,12_0_0_20_4,response,878.0,120995.0,120994.0,121027.0,121872.0,121877.00000000001,2024-09-12T08:23:26.746Z,121928.0,response_manmade,m,bike,BIKE,Con_Synth,short,congruent,m,m,True
166,4480,target,canvas.Screen,12_0_0_21_4,response,1293.0,122628.0,122627.0,122661.0,123920.0,123925.0,2024-09-12T08:23:28.794Z,123977.0,response_manmade,m,bread,BREAD,Con_Synth,short,congruent,m,m,True
172,4480,target,canvas.Screen,12_0_0_22_4,response,895.0,124677.0,124677.0,124711.0,125572.0,125577.0,2024-09-12T08:23:30.446Z,125627.0,response_natural,n,rail,SQUID,Inc_Synth_Nat,short,incongruent,n,n,True
178,4480,target,canvas.Screen,12_0_0_23_4,response,750.0,126328.0,126327.0,126361.0,127077.0,127083.0,2024-09-12T08:23:31.952Z,127127.0,response_manmade,m,belt,BELT,Con_Synth,short,congruent,m,m,True
184,4480,target,canvas.Screen,12_0_0_24_4,response,1581.0000000000146,127828.0,127827.0,127861.0,129408.00000000001,129413.00000000001,2024-09-12T08:23:34.282Z,129461.0,response_manmade,m,finch,SLOTH,Inc_Nat_Nat,short,incongruent,m,m,True
190,4480,target,canvas.Screen,12_0_0_25_4,response,1496.0,130161.0,130161.0,130194.0,131657.0,131662.0,2024-09-12T08:23:36.531Z,131711.0,response_natural,n,seed,SEED,Con_Nat,short,congruent,n,n,True
196,4480,target,canvas.Screen,12_0_0_26_4,response,1097.0,132411.0,132410.0,132444.0,133507.0,133512.0,2024-09-12T08:23:38.381Z,133561.0,response_manmade,m,rope,ROPE,Con_Synth,short,congruent,m,m,True
202,4480,target,canvas.Screen,12_0_0_27_4,response,841.0,134261.0,134261.0,134294.0,135102.0,135107.0,2024-09-12T08:23:39.976Z,135161.0,response_natural,n,rake,HUSKY,Inc_Synth_Nat,short,incongruent,n,n,True
208,4480,target,canvas.Screen,12_0_0_28_4,response,695.0,135861.0,135861.0,135894.0,136556.0,136561.0,2024-09-12T08:23:41.430Z,136610.0,response_manmade,m,mice,TOOLS,Inc_Nat_Synth,short,incongruent,m,m,True
214,4480,target,canvas.Screen,12_0_0_29_4,response,1123.0,137311.0,137310.0,137343.0,138433.0,138438.00000000003,2024-09-12T08:23:43.307Z,138477.0,response_manmade,m,drug,DRUG,Con_Synth,short,congruent,m,m,True
220,4480,target,canvas.Screen,12_0_0_30_4,response,1609.0,139178.0,139177.0,139210.0,140786.0,140790.0,2024-09-12T08:23:45.659Z,140844.0,response_natural,n,creek,CREEK,Con_Nat,short,congruent,n,n,True
226,4480,target,canvas.Screen,12_0_0_31_4,response,1405.0,141543.0,141543.0,141577.0,142948.0,142953.0,2024-09-12T08:23:47.822Z,142993.0,response_manmade,m,berry,OTTER,Inc_Nat_Nat,short,incongruent,n,n,False
232,4480,target,canvas.Screen,12_0_0_32_4,response,1001.0,143694.00000000003,143694.0,143727.0,144695.0,144699.0,2024-09-12T08:23:49.568Z,144743.0,response_natural,n,corn,CORN,Con_Nat,short,congruent,n,n,True
238,4480,target,canvas.Screen,12_0_0_33_4,response,951.0,145445.0,145444.0,145477.0,146395.0,146400.0,2024-09-12T08:23:51.269Z,146444.0,response_natural,n,sewer,CORAL,Inc_Synth_Nat,short,incongruent,n,n,True
244,4480,target,canvas.Screen,12_0_0_34_4,timeout,1983.0,147143.0,147143.0,147177.0,149127.0,149128.0,2024-09-12T08:23:53.997Z,149160.0,,,cobra,TWIG,Inc_Nat_Nat,short,incongruent,n,,False
250,4480,target,canvas.Screen,12_0_0_35_4,response,756.0,149861.0,149860.0,149893.0,150616.0,150621.0,2024-09-12T08:23:55.490Z,150660.0,response_manmade,m,patio,SPOON,Inc_Synth_Synth,short,incongruent,m,m,True
256,4480,target,canvas.Screen,12_0_0_36_4,response,1133.0,151361.0,151360.0,151394.0,152493.0,152498.0,2024-09-12T08:23:57.367Z,152543.0,response_manmade,m,coat,COAT,Con_Synth,short,congruent,m,m,True
262,4480,target,canvas.Screen,12_0_0_37_4,response,822.0,153243.0,153243.0,153276.0,154065.0,154071.0,2024-09-12T08:23:58.940Z,154110.0,response_manmade,m,doll,DOLL,Con_Synth,short,congruent,m,m,True
268,4480,target,canvas.Screen,12_0_0_38_4,response,914.0,154810.0,154810.0,154844.0,155724.0,155729.0,2024-09-12T08:24:00.598Z,155776.0,response_natural,n,harp,SNAIL,Inc_Synth_Nat,short,incongruent,n,n,True
274,4480,target,canvas.Screen,12_0_0_39_4,response,1373.0,156477.0,156476.0,156510.0,157849.0,157854.0,2024-09-12T08:24:02.723Z,157893.0,response_manmade,m,poppy,DINGO,Inc_Nat_Nat,short,incongruent,n,n,False
280,4480,target,canvas.Screen,12_0_0_40_4,response,735.0,158594.0,158594.0,158627.0,159329.0,159333.0,2024-09-12T08:24:04.202Z,159377.0,response_manmade,m,sash,CLOTH,Inc_Synth_Synth,short,incongruent,m,m,True
286,4480,target,canvas.Screen,12_0_0_41_4,response,733.0,160077.0,160076.0,160110.0,160809.0,160814.0,2024-09-12T08:24:05.683Z,160860.0,response_manmade,m,leaf,COIN,Inc_Nat_Synth,short,incongruent,m,m,True
292,4480,target,canvas.Screen,12_0_0_42_4,response,614.0,161561.0,161560.0,161593.0,162174.0,162179.0,2024-09-12T08:24:07.048Z,162226.0,response_natural,n,whale,WHALE,Con_Nat,short,congruent,n,n,True
298,4480,target,canvas.Screen,12_0_0_43_4,response,1015.0,162927.0,162927.0,162960.0,163942.0,163946.0,2024-09-12T08:24:08.815Z,163993.0,response_manmade,m,crow,YACHT,Inc_Nat_Synth,short,incongruent,m,m,True
304,4480,target,canvas.Screen,12_0_0_44_4,response,1215.000000000029,164694.00000000003,164693.0,164727.0,165908.00000000003,165913.0,2024-09-12T08:24:10.782Z,165960.0,response_manmade,m,sword,SWORD,Con_Synth,short,congruent,m,m,True
310,4480,target,canvas.Screen,12_0_0_45_4,response,881.0,166660.0,166660.0,166692.0,167541.0,167546.0,2024-09-12T08:24:12.415Z,167593.0,response_manmade,m,spade,SHELF,Inc_Synth_Synth,short,incongruent,m,m,True
316,4480,target,canvas.Screen,12_0_0_46_4,response,651.0000000000291,168293.0,168293.0,168327.0,168944.00000000003,168949.0,2024-09-12T08:24:13.818Z,168994.0,response_manmade,m,paint,PAINT,Con_Synth,short,congruent,m,m,True
322,4480,target,canvas.Screen,12_0_0_47_4,response,1383.000000000029,169693.0,169692.0,169727.0,171075.00000000003,171080.0,2024-09-12T08:24:15.949Z,171127.0,response_manmade,m,toad,GLOVE,Inc_Nat_Synth,short,incongruent,m,m,True
328,4480,target,canvas.Screen,12_0_0_48_4,response,1020.0,171826.0,171826.0,171860.0,172846.0,172851.0,2024-09-12T08:24:17.720Z,172893.0,response_manmade,m,arena,VINE,Inc_Synth_Nat,short,incongruent,n,n,False
334,4480,target,canvas.Screen,12_0_0_49_4,response,924.0,173594.0,173593.0,173627.0,174517.0,174522.0,2024-09-12T08:24:19.391Z,174560.0,response_manmade,m,tower,TOWER,Con_Synth,short,congruent,m,m,True
340,4480,target,canvas.Screen,12_0_0_50_4,response,691.0,175261.0,175260.0,175293.0,175951.0,175956.00000000003,2024-09-12T08:24:20.825Z,176010.0,response_natural,n,frog,FROG,Con_Nat,short,congruent,n,n,True
346,4480,target,canvas.Screen,12_0_0_51_4,response,890.0,176710.0,176709.0,176743.0,177599.0,177604.0,2024-09-12T08:24:22.473Z,177643.0,response_manmade,m,tank,TANK,Con_Synth,short,congruent,m,m,True
352,4480,target,canvas.Screen,12_0_0_52_4,response,706.0,178343.00000000003,178343.0,178377.0,179049.0,179053.0,2024-09-12T08:24:23.923Z,179093.0,response_natural,n,deer,DEER,Con_Nat,short,congruent,n,n,True
358,4480,target,canvas.Screen,12_0_0_53_4,response,1427.0,179794.0,179793.0,179827.0,181220.0,181224.00000000003,2024-09-12T08:24:26.093Z,181276.0,response_natural,n,spear,MOTH,Inc_Synth_Nat,short,incongruent,n,n,True
364,4480,target,canvas.Screen,12_0_0_54_4,response,1531.0,181977.0,181977.0,182009.0,183508.0,183512.0,2024-09-12T08:24:28.381Z,183559.0,response_natural,n,lime,GULLY,Inc_Nat_Nat,short,incongruent,n,n,True
370,4480,target,canvas.Screen,12_0_0_55_4,response,884.0,184298.0,184260.0,184311.0,185144.0,185149.0,2024-09-12T08:24:30.018Z,185193.0,response_natural,n,wharf,RAZOR,Inc_Synth_Synth,short,incongruent,m,m,False
376,4480,target,canvas.Screen,12_0_0_56_4,response,1817.0,185894.0,185893.0,185927.0,187710.0,187714.0,2024-09-12T08:24:32.583Z,187760.0,response_manmade,m,ruler,PANSY,Inc_Synth_Nat,short,incongruent,n,n,False
382,4480,target,canvas.Screen,12_0_0_57_4,response,1370.0,188460.0,188460.0,188493.0,189830.0,189835.0,2024-09-12T08:24:34.704Z,189876.0,response_natural,n,fern,PETAL,Inc_Nat_Nat,short,incongruent,n,n,True
388,4480,target,canvas.Screen,12_0_0_58_4,timeout,1984.0,190577.0,190577.0,190609.0,192560.0,192560.0,2024-09-12T08:24:37.429Z,192593.0,,,soil,SOIL,Con_Nat,short,congruent,n,,False
394,4480,target,canvas.Screen,12_0_0_59_4,response,780.0,193294.0,193293.0,193326.0,194073.0,194078.0,2024-09-12T08:24:38.947Z,194126.0,response_natural,n,torch,CHIMP,Inc_Synth_Nat,short,incongruent,n,n,True
404,4480,target,canvas.Screen,12_1_0_0_5,response,1183.000000000029,224392.0,224392.0,224425.0,225575.00000000003,225580.0,2024-09-12T08:25:10.449Z,225625.0,response_manmade,m,flute,FLUTE,Con_Synth,long,congruent,m,m,True
411,4480,target,canvas.Screen,12_1_0_1_5,response,1788.0,226427.0,226426.0,226459.0,228214.0,228218.00000000003,2024-09-12T08:25:13.087Z,228259.0,response_natural,n,wasp,WASP,Con_Nat,long,congruent,n,n,True
418,4480,target,canvas.Screen,12_1_0_2_5,response,576.0,229060.0,229059.0,229092.0,229635.0,229639.0,2024-09-12T08:25:14.509Z,229693.0,response_natural,n,pipe,LION,Inc_Synth_Nat,long,incongruent,n,n,True
425,4480,target,canvas.Screen,12_1_0_3_5,response,936.0,230492.00000000003,230492.0,230526.0,231428.0,231434.0,2024-09-12T08:25:16.303Z,231475.0,response_natural,n,stone,STONE,Con_Nat,long,congruent,n,n,True
432,4480,target,canvas.Screen,12_1_0_4_5,response,1406.000000000029,232276.0,232276.0,232309.0,233682.00000000003,233688.00000000003,2024-09-12T08:25:18.557Z,233726.0,response_manmade,m,boar,BOAR,Con_Nat,long,congruent,n,n,False
439,4480,target,canvas.Screen,12_1_0_5_5,response,1350.0,234527.00000000003,234526.0,234558.0,235876.0,235881.0,2024-09-12T08:25:20.750Z,235925.0,response_natural,n,mall,BUSH,Inc_Synth_Nat,long,incongruent,n,n,True
446,4480,target,canvas.Screen,12_1_0_6_5,response,986.0000000000291,236726.0,236726.0,236758.0,237712.00000000003,237719.0,2024-09-12T08:25:22.588Z,237758.0,response_manmade,m,wire,CABIN,Inc_Synth_Synth,long,incongruent,m,m,True
453,4480,target,canvas.Screen,12_1_0_7_5,response,1047.000000000029,238559.0,238558.0,238592.0,239605.00000000003,239610.0,2024-09-12T08:25:24.479Z,239658.0,response_manmade,m,apron,APRON,Con_Synth,long,congruent,m,m,True
460,4480,target,canvas.Screen,12_1_0_8_5,response,609.0,240460.0,240459.0,240491.0,241068.0,241073.0,2024-09-12T08:25:25.942Z,241126.0,response_manmade,m,swamp,DRILL,Inc_Nat_Synth,long,incongruent,m,m,True
467,4480,target,canvas.Screen,12_1_0_9_5,response,829.0,241926.00000000003,241926.0,241959.0,242755.0,242760.0,2024-09-12T08:25:27.629Z,242809.0,response_manmade,m,crate,CRATE,Con_Synth,long,congruent,m,m,True
474,4480,target,canvas.Screen,12_1_0_10_5,response,1214.0,243609.0,243609.0,243642.0,244823.0,244828.0,2024-09-12T08:25:29.697Z,244876.0,response_natural,n,crab,CRAB,Con_Nat,long,congruent,n,n,True
481,4480,target,canvas.Screen,12_1_0_11_5,response,796.0,245676.00000000003,245675.0,245708.0,246471.0,246476.0,2024-09-12T08:25:31.345Z,246525.0,response_natural,n,storm,LAND,Inc_Nat_Nat,long,incongruent,m,m,False
488,4480,target,canvas.Screen,12_1_0_12_5,response,799.0,247326.0,247325.0,247358.0,248124.0,248129.00000000003,2024-09-12T08:25:32.998Z,248175.0,response_manmade,m,broom,BROOM,Con_Synth,long,congruent,m,m,True
495,4480,target,canvas.Screen,12_1_0_13_5,response,877.0,248977.0,248976.0,249008.0,249853.0,249858.0,2024-09-12T08:25:34.727Z,249909.0,response_natural,n,plum,PLUM,Con_Nat,long,congruent,n,n,True
502,4480,target,canvas.Screen,12_1_0_14_5,response,803.0,250710.0,250709.0,250742.0,251512.0,251517.0,2024-09-12T08:25:36.386Z,251558.0,response_manmade,m,cloud,MOTEL,Inc_Nat_Synth,long,incongruent,m,m,True
509,4480,target,canvas.Screen,12_1_0_15_5,response,712.0,252358.0,252358.0,252392.0,253070.0,253075.00000000003,2024-09-12T08:25:37.944Z,253125.0,response_natural,n,bunny,ROSE,Inc_Nat_Nat,long,incongruent,m,m,False
516,4480,target,canvas.Screen,12_1_0_16_5,response,945.0,253925.0,253925.0,253959.0,254870.0,254874.0,2024-09-12T08:25:39.743Z,254925.0,response_manmade,m,bell,WHEEL,Inc_Synth_Synth,long,incongruent,m,m,True
523,4480,target,canvas.Screen,12_1_0_17_5,response,1291.0,255726.0,255726.0,255758.0,257017.0,257021.00000000003,2024-09-12T08:25:41.890Z,257075.0,response_manmade,m,clam,CLAM,Con_Nat,long,congruent,n,n,False
530,4480,target,canvas.Screen,12_1_0_18_5,response,700.0,257875.0,257875.0,257909.0,258575.0,258579.99999999997,2024-09-12T08:25:43.449Z,258625.0,response_natural,n,ocean,TREE,Inc_Nat_Nat,long,incongruent,m,m,False
537,4480,target,canvas.Screen,12_1_0_19_5,response,1101.0,259425.0,259425.0,259459.0,260526.0,260530.00000000003,2024-09-12T08:25:45.399Z,260575.0,response_manmade,m,taxi,CHAIN,Inc_Synth_Synth,long,incongruent,m,m,True
544,4480,target,canvas.Screen,12_1_0_20_5,response,702.0000000000291,261377.0,261376.0,261409.0,262078.00000000003,262082.0,2024-09-12T08:25:46.951Z,262126.0,response_natural,n,earth,EARTH,Con_Nat,long,congruent,n,n,True
551,4480,target,canvas.Screen,12_1_0_21_5,response,682.0,262927.0,262926.0,262958.0,263608.0,263613.0,2024-09-12T08:25:48.482Z,263659.0,response_manmade,m,roof,PIANO,Inc_Synth_Synth,long,incongruent,m,m,True
558,4480,target,canvas.Screen,12_1_0_22_5,response,738.0,264458.0,264458.0,264491.0,265196.0,265201.0,2024-09-12T08:25:50.070Z,265242.0,response_manmade,m,ferry,FERRY,Con_Synth,long,congruent,m,m,True
565,4480,target,canvas.Screen,12_1_0_23_5,response,746.0,266043.0,266042.0,266075.0,266788.0,266792.00000000006,2024-09-12T08:25:51.662Z,266842.0,response_manmade,m,linen,LINEN,Con_Synth,long,congruent,m,m,True
572,4480,target,canvas.Screen,12_1_0_24_5,response,1018.0,267643.0,267642.0,267675.0,268660.0,268665.0,2024-09-12T08:25:53.534Z,268709.0,response_natural,n,pear,PEAR,Con_Nat,long,congruent,n,n,True
579,4480,target,canvas.Screen,12_1_0_25_5,response,862.0,269509.0,269509.0,269542.0,270371.0,270375.0,2024-09-12T08:25:55.244Z,270425.0,response_natural,n,shark,HILL,Inc_Nat_Nat,long,incongruent,m,m,False
586,4480,target,canvas.Screen,12_1_0_26_5,response,652.0,271225.0,271225.0,271259.0,271877.0,271882.0,2024-09-12T08:25:56.751Z,271925.0,response_manmade,m,stair,STAIR,Con_Synth,long,congruent,m,m,True
593,4480,target,canvas.Screen,12_1_0_27_5,response,636.0,272726.0,272725.0,272758.0,273361.0,273366.0,2024-09-12T08:25:58.235Z,273408.0,response_natural,n,soap,PONY,Inc_Synth_Nat,long,incongruent,n,n,True
600,4480,target,canvas.Screen,12_1_0_28_5,response,858.0000000000582,274209.0,274208.0,274242.0,275066.00000000006,275071.0,2024-09-12T08:25:59.940Z,275125.0,response_natural,n,fruit,BEAR,Inc_Nat_Nat,long,incongruent,m,m,False
607,4480,target,canvas.Screen,12_1_0_29_5,response,1093.0,275925.0,275924.0,275958.0,277017.0,277022.0,2024-09-12T08:26:01.891Z,277075.0,response_manmade,m,desk,CANDY,Inc_Synth_Synth,long,incongruent,m,m,True
614,4480,target,canvas.Screen,12_1_0_30_5,response,1307.0,277876.00000000006,277875.0,277909.0,279182.0,279188.0,2024-09-12T08:26:04.057Z,279242.0,response_natural,n,tongs,TONGS,Con_Synth,long,congruent,m,m,False
621,4480,target,canvas.Screen,12_1_0_31_5,response,693.0,280042.00000000006,280042.0,280075.0,280735.0,280740.0,2024-09-12T08:26:05.609Z,280792.0,response_manmade,m,jeans,JEANS,Con_Synth,long,congruent,m,m,True
628,4480,target,canvas.Screen,12_1_0_32_5,response,797.0000000000582,281591.0,281591.0,281624.0,282388.00000000006,282393.0,2024-09-12T08:26:07.262Z,282441.0,response_natural,n,swan,SWAN,Con_Nat,long,congruent,n,n,True
635,4480,target,canvas.Screen,12_1_0_33_5,response,700.0,283243.0,283242.0,283274.0,283942.0,283947.0,2024-09-12T08:26:08.816Z,283992.0,response_manmade,m,hare,HARE,Con_Nat,long,congruent,n,n,False
642,4480,target,canvas.Screen,12_1_0_34_5,response,713.0,284793.0,284792.0,284824.0,285505.0,285510.0,2024-09-12T08:26:10.379Z,285558.0,response_manmade,m,flood,SKIRT,Inc_Nat_Synth,long,incongruent,m,m,True
649,4480,target,canvas.Screen,12_1_0_35_5,response,1589.0,286358.0,286358.0,286392.0,287947.0,287952.0,2024-09-12T08:26:12.821Z,287992.0,response_manmade,m,eagle,WAGON,Inc_Nat_Synth,long,incongruent,m,m,True
656,4480,target,canvas.Screen,12_1_0_36_5,response,925.0,288793.0,288792.0,288824.0,289717.0,289722.0,2024-09-12T08:26:14.591Z,289775.0,response_manmade,m,stick,STICK,Con_Nat,long,congruent,n,n,False
663,4480,target,canvas.Screen,12_1_0_37_5,response,629.0,290576.0,290575.0,290608.0,291204.0,291209.0,2024-09-12T08:26:16.078Z,291258.0,response_natural,n,fort,GOAT,Inc_Synth_Nat,long,incongruent,n,n,True
670,4480,target,canvas.Screen,12_1_0_38_5,response,1046.0,292058.0,292057.0,292091.0,293103.0,293108.0,2024-09-12T08:26:17.977Z,293157.0,response_natural,n,peas,PEAS,Con_Nat,long,congruent,n,n,True
677,4480,target,canvas.Screen,12_1_0_39_5,response,591.0,293958.0,293958.0,293992.0,294549.0,294554.00000000006,2024-09-12T08:26:19.423Z,294608.0,response_natural,n,stove,STOVE,Con_Synth,long,congruent,m,m,False
684,4480,target,canvas.Screen,12_1_0_40_5,response,753.0,295409.0,295408.0,295442.0,296161.0,296166.0,2024-09-12T08:26:21.035Z,296208.0,response_natural,n,barn,TUNA,Inc_Synth_Nat,long,incongruent,n,n,True
691,4480,target,canvas.Screen,12_1_0_41_5,timeout,2017.0,297009.0,297009.0,297041.0,299024.0,299025.00000000006,2024-09-12T08:26:23.894Z,299058.0,,,bowl,WOLF,Inc_Synth_Nat,long,incongruent,n,,False
698,4480,target,canvas.Screen,12_1_0_42_5,response,734.0,299859.0,299858.0,299891.0,300592.0,300596.0,2024-09-12T08:26:25.465Z,300641.0,response_manmade,m,wheat,BRICK,Inc_Nat_Synth,long,incongruent,m,m,True
705,4480,target,canvas.Screen,12_1_0_43_5,response,1182.0,301442.0,301441.0,301475.0,302623.0,302628.0,2024-09-12T08:26:27.497Z,302675.0,response_manmade,m,canon,CANON,Con_Synth,long,congruent,m,m,True
712,4480,target,canvas.Screen,12_1_0_44_5,response,780.0,303475.0,303475.0,303508.0,304255.0,304259.0,2024-09-12T08:26:29.129Z,304308.0,response_natural,n,lemon,DUCK,Inc_Nat_Nat,long,incongruent,m,m,False
719,4480,target,canvas.Screen,12_1_0_45_5,response,818.0,305109.0,305108.0,305141.0,305926.0,305931.0,2024-09-12T08:26:30.800Z,305975.0,response_manmade,m,arrow,ARROW,Con_Synth,long,congruent,m,m,True
726,4480,target,canvas.Screen,12_1_0_46_5,response,1317.0,306775.00000000006,306774.0,306808.0,308091.0,308095.0,2024-09-12T08:26:32.964Z,308141.0,response_manmade,m,moss,MOSS,Con_Nat,long,congruent,n,n,False
733,4480,target,canvas.Screen,12_1_0_47_5,response,1576.0,308942.0,308942.0,308975.0,310518.0,310522.0,2024-09-12T08:26:35.391Z,310574.0,response_manmade,m,shell,DIRT,Inc_Nat_Nat,long,incongruent,m,m,True
740,4480,target,canvas.Screen,12_1_0_48_5,response,529.0,311375.0,311375.0,311408.0,311904.0,311908.0,2024-09-12T08:26:36.777Z,311957.0,response_natural,n,reef,REEF,Con_Nat,long,congruent,n,n,True
747,4480,target,canvas.Screen,12_1_0_49_5,response,1089.0,312758.0,312757.0,312791.0,313846.0,313850.0,2024-09-12T08:26:38.719Z,313891.0,response_natural,n,sheep,BULL,Inc_Nat_Nat,long,incongruent,m,m,False
754,4480,target,canvas.Screen,12_1_0_50_5,response,1106.0,314691.00000000006,314691.0,314725.0,315797.0,315802.0,2024-09-12T08:26:40.671Z,315841.0,response_manmade,m,moose,PORCH,Inc_Nat_Synth,long,incongruent,m,m,True
761,4480,target,canvas.Screen,12_1_0_51_5,response,598.0000000000582,316641.0,316641.0,316675.0,317239.00000000006,317244.0,2024-09-12T08:26:42.113Z,317290.0,response_manmade,m,deck,PLATE,Inc_Synth_Synth,long,incongruent,m,m,True
768,4480,target,canvas.Screen,12_1_0_52_5,response,759.0,318091.0,318091.0,318124.0,318850.0,318854.0,2024-09-12T08:26:43.723Z,318907.0,response_manmade,m,flask,FLASK,Con_Synth,long,congruent,m,m,True
775,4480,target,canvas.Screen,12_1_0_53_5,response,1519.0,319710.0,319709.0,319741.0,321228.0,321233.0,2024-09-12T08:26:46.102Z,321274.0,response_manmade,m,cake,TRASH,Inc_Synth_Synth,long,incongruent,m,m,True
782,4480,target,canvas.Screen,12_1_0_54_5,response,1329.0,322075.0,322075.0,322108.0,323404.0,323409.0,2024-09-12T08:26:48.278Z,323458.0,response_manmade,m,canoe,CANOE,Con_Synth,long,congruent,m,m,True
789,4480,target,canvas.Screen,12_1_0_55_5,response,582.0000000000582,324259.0,324258.0,324290.0,324840.00000000006,324845.0,2024-09-12T08:26:49.714Z,324890.0,response_manmade,m,olive,MOTOR,Inc_Nat_Synth,long,incongruent,m,m,True
796,4480,target,canvas.Screen,12_1_0_56_5,response,572.0,325691.00000000006,325690.0,325724.0,326262.0,326267.0,2024-09-12T08:26:51.136Z,326308.0,response_natural,n,sink,LAMB,Inc_Synth_Nat,long,incongruent,n,n,True
803,4480,target,canvas.Screen,12_1_0_57_5,response,587.0,327109.0,327108.0,327140.0,327695.0,327700.0,2024-09-12T08:26:52.569Z,327741.0,response_manmade,m,scarf,SCARF,Con_Synth,long,congruent,m,m,True
810,4480,target,canvas.Screen,12_1_0_58_5,response,1111.0,328542.00000000006,328541.0,328575.0,329652.0,329657.0,2024-09-12T08:26:54.526Z,329708.0,response_natural,n,slug,SLUG,Con_Nat,long,congruent,n,n,True
817,4480,target,canvas.Screen,12_1_0_59_5,response,863.0,330509.0,330508.0,330541.0,331371.0,331376.00000000006,2024-09-12T08:26:56.245Z,331424.0,response_manmade,m,shoe,COUCH,Inc_Synth_Synth,long,incongruent,m,m,True
41,4479,target,canvas.Screen,12_0_0_0_5,response,947.5000000476866,41372.0,41370.9,41387.2,42334.700000047684,42335.59999990463,2024-09-12T08:23:58.097Z,42357.3,response_natural,n,stick,STICK,Con_Nat,long,congruent,n,n,True
48,4479,target,canvas.Screen,12_0_0_1_5,response,595.0999999523192,43071.09999990463,43070.4,43087.7,43682.799999952316,43684.5,2024-09-12T08:23:59.446Z,43687.0,response_natural,n,shark,HILL,Inc_Nat_Nat,long,incongruent,m,m,False
55,4479,target,canvas.Screen,12_0_0_2_5,response,546.5999998569459,44387.59999990463,44387.0,44403.8,44950.39999985695,44950.89999985695,2024-09-12T08:24:00.712Z,44953.6,response_natural,n,earth,EARTH,Con_Nat,long,congruent,n,n,True
62,4479,target,canvas.Screen,12_0_0_3_5,response,727.9000000476808,45654.0,45653.7,45670.3,46398.200000047684,46400.200000047684,2024-09-12T08:24:02.162Z,46403.6,response_natural,n,pipe,LION,Inc_Synth_Nat,long,incongruent,n,n,True
69,4479,target,canvas.Screen,12_0_0_4_5,response,607.0999999523192,47110.799999952316,47103.6,47120.2,47727.299999952316,47728.39999985695,2024-09-12T08:24:03.490Z,47737.1,response_manmade,m,wire,CABIN,Inc_Synth_Synth,long,incongruent,m,m,True
76,4479,target,canvas.Screen,12_0_0_5_5,response,686.3000000000029,48437.89999985695,48437.0,48453.7,49140.0,49140.89999985695,2024-09-12T08:24:04.902Z,49153.6,response_manmade,m,flute,FLUTE,Con_Synth,long,congruent,m,m,True
83,4479,target,canvas.Screen,12_0_0_6_5,response,671.2999999523163,49854.299999952316,49853.6,49870.5,50541.799999952316,50542.39999985695,2024-09-12T08:24:06.304Z,50553.7,response_manmade,m,deck,PLATE,Inc_Synth_Synth,long,incongruent,m,m,True
90,4479,target,canvas.Screen,12_0_0_7_5,response,743.5000000476866,51254.39999985695,51253.5,51270.2,52013.700000047684,52014.5,2024-09-12T08:24:07.776Z,52020.2,response_manmade,m,desk,CANDY,Inc_Synth_Synth,long,incongruent,m,m,True
97,4479,target,canvas.Screen,12_0_0_8_5,response,797.7999998569503,52721.09999990463,52720.4,52737.1,53534.89999985695,53535.89999985695,2024-09-12T08:24:09.297Z,53559.0,response_natural,n,plum,PLUM,Con_Nat,long,congruent,n,n,True
104,4479,target,canvas.Screen,12_0_0_9_5,response,1075.0999999523192,54271.0,54270.2,54286.7,55361.799999952316,55362.59999990463,2024-09-12T08:24:11.124Z,55370.1,response_natural,n,soap,PONY,Inc_Synth_Nat,long,incongruent,n,n,True
111,4479,target,canvas.Screen,12_0_0_10_5,response,813.3000000000029,56071.0,56070.4,56086.7,56900.0,56901.799999952316,2024-09-12T08:24:12.663Z,56925.7,response_manmade,m,canoe,CANOE,Con_Synth,long,congruent,m,m,True
118,4479,target,canvas.Screen,12_0_0_11_5,response,672.4999999523134,57640.700000047684,57636.8,57653.3,58325.799999952316,58326.799999952316,2024-09-12T08:24:14.088Z,58336.8,response_natural,n,sink,LAMB,Inc_Synth_Nat,long,incongruent,n,n,True
125,4479,target,canvas.Screen,12_0_0_12_5,response,591.0999999999985,59038.09999990463,59037.0,59053.4,59644.5,59645.700000047684,2024-09-12T08:24:15.407Z,59653.3,response_manmade,m,apron,APRON,Con_Synth,long,congruent,m,m,True
132,4479,target,canvas.Screen,12_0_0_13_5,response,552.499999904634,60354.200000047684,60353.4,60370.1,60922.59999990463,60923.799999952316,2024-09-12T08:24:16.689Z,60936.7,response_natural,n,stone,STONE,Con_Nat,long,congruent,n,n,True
139,4479,target,canvas.Screen,12_0_0_14_5,response,598.3999999523148,61642.5,61636.6,61653.4,62251.799999952316,62253.09999990463,2024-09-12T08:24:18.018Z,62286.7,response_manmade,m,roof,PIANO,Inc_Synth_Synth,long,incongruent,m,m,True
146,4479,target,canvas.Screen,12_0_0_15_5,response,536.6999999523177,63021.799999952316,63020.0,63036.6,63573.299999952316,63574.09999990463,2024-09-12T08:24:19.339Z,63586.6,response_manmade,m,flask,FLASK,Con_Synth,long,congruent,m,m,True
153,4479,target,canvas.Screen,12_0_0_16_5,response,692.5,64321.0,64320.1,64337.0,65029.5,65030.59999990463,2024-09-12T08:24:20.796Z,65036.6,response_natural,n,mall,BUSH,Inc_Synth_Nat,long,incongruent,n,n,True
160,4479,target,canvas.Screen,12_0_0_17_5,response,614.5999999523192,65789.79999995232,65786.8,65805.7,66420.29999995232,66421.5,2024-09-12T08:24:22.187Z,66436.8,response_manmade,m,arrow,ARROW,Con_Synth,long,congruent,m,m,True
167,4479,target,canvas.Screen,12_0_0_18_5,response,695.2000000476837,67187.5,67186.7,67203.5,67898.70000004768,67899.70000004768,2024-09-12T08:24:23.665Z,67903.2,response_natural,n,bunny,ROSE,Inc_Nat_Nat,long,incongruent,m,m,False
174,4479,target,canvas.Screen,12_0_0_19_5,response,562.1999999999971,68637.29999995232,68636.6,68653.3,69215.5,69216.20000004768,2024-09-12T08:24:24.981Z,69219.9,response_manmade,m,broom,BROOM,Con_Synth,long,congruent,m,m,True
181,4479,target,canvas.Screen,12_0_0_20_5,response,628.4999999046267,69970.79999995232,69970.0,69986.6,70615.09999990463,70616.20000004768,2024-09-12T08:24:26.381Z,70620.0,response_natural,n,moss,MOSS,Con_Nat,long,congruent,n,n,True
188,4479,target,canvas.Screen,12_0_0_21_5,response,632.9999998569547,71370.89999985695,71370.1,71386.4,72019.39999985695,72020.5,2024-09-12T08:24:27.786Z,72037.2,response_manmade,m,cake,TRASH,Inc_Synth_Synth,long,incongruent,m,m,True
195,4479,target,canvas.Screen,12_0_0_22_5,response,856.0000000476866,72771.20000004768,72770.1,72786.7,73642.70000004768,73643.89999985695,2024-09-12T08:24:29.409Z,73653.8,response_manmade,m,stove,STOVE,Con_Synth,long,congruent,m,m,True
202,4479,target,canvas.Screen,12_0_0_23_5,response,652.5000000476866,74404.0,74403.2,74419.7,75072.20000004768,75073.09999990463,2024-09-12T08:24:30.838Z,75086.6,response_manmade,m,olive,MOTOR,Inc_Nat_Synth,long,incongruent,m,m,True
209,4479,target,canvas.Screen,12_0_0_24_5,response,746.3999999046355,75837.39999985695,75836.6,75853.2,76599.59999990463,76600.59999990463,2024-09-12T08:24:32.366Z,76603.0,response_natural,n,bowl,WOLF,Inc_Synth_Nat,long,incongruent,n,n,True
216,4479,target,canvas.Screen,12_0_0_25_5,response,948.0999999523192,77362.39999985695,77353.2,77369.7,78317.79999995232,78318.70000004768,2024-09-12T08:24:34.084Z,78343.9,response_manmade,m,canon,CANON,Con_Synth,long,congruent,m,m,True
223,4479,target,canvas.Screen,12_0_0_26_5,response,783.0000000476866,79103.70000004768,79102.9,79119.7,79902.70000004768,79903.59999990463,2024-09-12T08:24:35.669Z,79919.6,response_natural,n,crate,CRATE,Con_Synth,long,congruent,m,m,False
230,4479,target,canvas.Screen,12_0_0_27_5,response,582.4999998569547,80670.79999995232,80670.0,80686.4,81268.89999985695,81270.20000004768,2024-09-12T08:24:37.035Z,81286.5,response_manmade,m,sheep,BULL,Inc_Nat_Nat,long,incongruent,m,m,True
237,4479,target,canvas.Screen,12_0_0_28_5,response,673.3000000000029,82037.39999985695,82036.3,82053.2,82726.5,82728.70000004768,2024-09-12T08:24:38.494Z,82736.2,response_manmade,m,stair,STAIR,Con_Synth,long,congruent,m,m,True
244,4479,target,canvas.Screen,12_0_0_29_5,response,610.2999999523163,83487.20000004768,83486.5,83503.5,84113.79999995232,84114.89999985695,2024-09-12T08:24:39.880Z,84119.5,response_natural,n,clam,CLAM,Con_Nat,long,congruent,n,n,True
251,4479,target,canvas.Screen,12_0_0_30_5,response,615.3000000476895,84870.89999985695,84869.8,84886.4,85501.70000004768,85507.09999990463,2024-09-12T08:24:41.272Z,85519.6,response_manmade,m,shoe,COUCH,Inc_Synth_Synth,long,incongruent,m,m,True
258,4479,target,canvas.Screen,12_0_0_31_5,response,532.3999999523221,86254.0,86253.2,86269.4,86801.79999995232,86802.89999985695,2024-09-12T08:24:42.568Z,86820.3,response_natural,n,boar,BOAR,Con_Nat,long,congruent,n,n,True
265,4479,target,canvas.Screen,12_0_0_32_5,response,639.3000000000029,87570.70000004768,87569.8,87586.2,88225.5,88226.29999995232,2024-09-12T08:24:43.991Z,88236.6,response_manmade,m,eagle,WAGON,Inc_Nat_Synth,long,incongruent,m,m,True
272,4479,target,canvas.Screen,12_0_0_33_5,response,753.3999999523221,88987.20000004768,88986.4,89002.9,89756.29999995232,89757.89999985695,2024-09-12T08:24:45.523Z,89769.6,response_manmade,m,scarf,SCARF,Con_Synth,long,congruent,m,m,True
279,4479,target,canvas.Screen,12_0_0_34_5,response,652.7999999046297,90487.70000004768,90486.3,90502.8,91155.59999990463,91156.79999995232,2024-09-12T08:24:46.922Z,91169.6,response_manmade,m,moose,PORCH,Inc_Nat_Synth,long,incongruent,m,m,True
286,4479,target,canvas.Screen,12_0_0_35_5,response,577.2999999523163,91920.89999985695,91920.0,91936.0,92513.29999995232,92514.79999995232,2024-09-12T08:24:48.280Z,92519.4,response_manmade,m,flood,SKIRT,Inc_Nat_Synth,long,incongruent,m,m,True
293,4479,target,canvas.Screen,12_0_0_36_5,response,422.69999985695176,93270.5,93269.5,93286.2,93708.89999985695,93709.79999995232,2024-09-12T08:24:49.475Z,93719.5,response_natural,n,hare,HARE,Con_Nat,long,congruent,n,n,True
300,4479,target,canvas.Screen,12_0_0_37_5,response,575.6999998569518,94470.20000004768,94469.5,94487.2,95062.89999985695,95064.09999990463,2024-09-12T08:24:50.829Z,95069.9,response_manmade,m,barn,TUNA,Inc_Synth_Nat,long,incongruent,n,n,False
307,4479,target,canvas.Screen,12_0_0_38_5,response,469.29999985694303,95804.29999995232,95803.1,95819.6,96288.89999985695,96289.79999995232,2024-09-12T08:24:52.055Z,96302.9,response_manmade,m,linen,LINEN,Con_Synth,long,congruent,m,m,True
314,4479,target,canvas.Screen,12_0_0_39_5,response,553.0999998569459,97054.39999985695,97053.6,97069.3,97622.39999985695,97623.39999985695,2024-09-12T08:24:53.388Z,97636.0,response_natural,n,fort,GOAT,Inc_Synth_Nat,long,incongruent,n,n,True
321,4479,target,canvas.Screen,12_0_0_40_5,response,550.9999999523134,98390.89999985695,98385.9,98403.3,98954.29999995232,98955.09999990463,2024-09-12T08:24:54.720Z,98969.5,response_manmade,m,fruit,BEAR,Inc_Nat_Nat,long,incongruent,m,m,True
328,4479,target,canvas.Screen,12_0_0_41_5,response,682.0999999046326,99720.70000004768,99719.8,99736.0,100418.09999990463,100419.5,2024-09-12T08:24:56.184Z,100436.0,response_natural,n,pear,PEAR,Con_Nat,long,congruent,n,n,True
335,4479,target,canvas.Screen,12_0_0_42_5,response,926.1999998569518,101186.59999990463,101186.1,101202.7,102128.89999985695,102130.20000004768,2024-09-12T08:24:57.895Z,102135.9,response_natural,n,shell,DIRT,Inc_Nat_Nat,long,incongruent,m,m,False
342,4479,target,canvas.Screen,12_0_0_43_5,response,472.99999990462675,102886.79999995232,102886.1,102902.6,103375.59999990463,103376.39999985695,2024-09-12T08:24:59.141Z,103385.9,response_natural,n,lemon,DUCK,Inc_Nat_Nat,long,incongruent,m,m,False
349,4479,target,canvas.Screen,12_0_0_44_5,response,579.0999999046326,104136.70000004768,104136.0,104152.5,104731.59999990463,104732.59999990463,2024-09-12T08:25:00.498Z,104735.7,response_natural,n,reef,REEF,Con_Nat,long,congruent,n,n,True
356,4479,target,canvas.Screen,12_0_0_45_5,response,504.1000000000058,105486.79999995232,105486.0,105502.4,106006.5,106006.89999985695,2024-09-12T08:25:01.772Z,106019.1,response_manmade,m,jeans,JEANS,Con_Synth,long,congruent,m,m,True
363,4479,target,canvas.Screen,12_0_0_46_5,response,679.5999999046326,106770.0,106769.2,106786.0,107465.59999990463,107467.20000004768,2024-09-12T08:25:03.232Z,107493.2,response_manmade,m,taxi,CHAIN,Inc_Synth_Synth,long,incongruent,m,m,True
370,4479,target,canvas.Screen,12_0_0_47_5,response,468.5,108261.59999990463,108252.3,108269.0,108737.5,108738.39999985695,2024-09-12T08:25:04.503Z,108752.4,response_natural,n,wasp,WASP,Con_Nat,long,congruent,n,n,True
377,4479,target,canvas.Screen,12_0_0_48_5,response,562.1000000000058,109503.39999985695,109502.6,109519.4,110081.5,110082.70000004768,2024-09-12T08:25:05.848Z,110085.7,response_natural,n,slug,SLUG,Con_Nat,long,congruent,n,n,True
384,4479,target,canvas.Screen,12_0_0_49_5,response,726.4999999523134,110836.70000004768,110835.9,110852.3,111578.79999995232,111579.79999995232,2024-09-12T08:25:07.345Z,111585.7,response_manmade,m,peas,PEAS,Con_Nat,long,congruent,n,n,False
391,4479,target,canvas.Screen,12_0_0_50_5,response,448.99999990462675,112336.59999990463,112335.8,112352.6,112801.59999990463,112802.5,2024-09-12T08:25:08.568Z,112819.3,response_natural,n,crab,CRAB,Con_Nat,long,congruent,n,n,True
398,4479,target,canvas.Screen,12_0_0_51_5,response,701.3999999046355,113569.89999985695,113569.1,113585.7,114287.09999990463,114288.29999995232,2024-09-12T08:25:10.053Z,114302.3,response_manmade,m,bell,WHEEL,Inc_Synth_Synth,long,incongruent,m,m,True
405,4479,target,canvas.Screen,12_0_0_52_5,response,710.2000000476837,115053.29999995232,115052.5,115069.0,115779.20000004768,115780.20000004768,2024-09-12T08:25:11.545Z,115785.7,response_natural,n,ocean,TREE,Inc_Nat_Nat,long,incongruent,m,m,False
412,4479,target,canvas.Screen,12_0_0_53_5,response,620.0999999046326,116536.5,116535.6,116552.5,117172.59999990463,117173.09999990463,2024-09-12T08:25:12.938Z,117185.8,response_manmade,m,cloud,MOTEL,Inc_Nat_Synth,long,incongruent,m,m,True
419,4479,target,canvas.Screen,12_0_0_54_5,response,813.9000000476808,117936.5,117935.8,117952.3,118766.20000004768,118767.0,2024-09-12T08:25:14.532Z,118768.9,response_manmade,m,wheat,BRICK,Inc_Nat_Synth,long,incongruent,m,m,True
426,4479,target,canvas.Screen,12_0_0_55_5,response,618.8999999999942,119769.70000004768,119769.0,119785.6,120404.5,120405.70000004768,2024-09-12T08:25:16.169Z,120418.9,response_manmade,m,swamp,DRILL,Inc_Nat_Synth,long,incongruent,m,m,True
433,4479,target,canvas.Screen,12_0_0_56_5,response,476.9999999523134,121169.79999995232,121169.1,121185.8,121662.79999995232,121663.79999995232,2024-09-12T08:25:17.427Z,121668.9,response_manmade,m,ferry,FERRY,Con_Synth,long,congruent,m,m,True
440,4479,target,canvas.Screen,12_0_0_57_5,response,423.8999999523221,122419.89999985695,122418.9,122435.4,122859.29999995232,122860.20000004768,2024-09-12T08:25:18.623Z,122869.0,response_manmade,m,swan,SWAN,Con_Nat,long,congruent,n,n,False
447,4479,target,canvas.Screen,12_0_0_58_5,response,558.3999999046355,123619.70000004768,123619.1,123635.7,124194.09999990463,124195.0,2024-09-12T08:25:19.958Z,124202.2,response_natural,n,storm,LAND,Inc_Nat_Nat,long,incongruent,m,m,False
454,4479,target,canvas.Screen,12_0_0_59_5,response,793.6999998569518,124953.29999995232,124952.4,124968.7,125762.39999985695,125763.29999995232,2024-09-12T08:25:21.526Z,125768.7,response_manmade,m,tongs,TONGS,Con_Synth,long,congruent,m,m,True
463,4479,target,canvas.Screen,12_1_0_0_4,response,515.8999998569489,134936.09999990463,134935.3,134952.0,135467.89999985695,135468.70000004768,2024-09-12T08:25:31.232Z,135485.5,response_manmade,m,drug,DRUG,Con_Synth,short,congruent,m,m,True
469,4479,target,canvas.Screen,12_1_0_1_4,response,748.7999999046442,136153.09999990463,136152.2,136168.8,136917.59999990463,136918.39999985695,2024-09-12T08:25:32.682Z,136935.4,response_natural,n,torch,CHIMP,Inc_Synth_Nat,short,incongruent,n,n,True
475,4479,target,canvas.Screen,12_1_0_2_4,response,571.3999999999942,137602.39999985695,137601.8,137618.6,138190.0,138190.89999985695,2024-09-12T08:25:33.954Z,138201.9,response_manmade,m,crow,YACHT,Inc_Nat_Synth,short,incongruent,m,m,True
481,4479,target,canvas.Screen,12_1_0_3_4,response,930.0000000476721,138869.70000004768,138868.8,138885.2,139815.20000004768,139816.5,2024-09-12T08:25:35.580Z,139818.5,response_natural,n,finch,SLOTH,Inc_Nat_Nat,short,incongruent,m,m,False
487,4479,target,canvas.Screen,12_1_0_4_4,response,540.6999999523105,140486.39999985695,140485.5,140502.1,141042.79999995232,141043.70000004768,2024-09-12T08:25:36.807Z,141051.9,response_manmade,m,doll,DOLL,Con_Synth,short,congruent,m,m,True
493,4479,target,canvas.Screen,12_1_0_5_4,response,700.4000000476954,141719.39999985695,141718.7,141735.3,142435.70000004768,142436.89999985695,2024-09-12T08:25:38.200Z,142451.9,response_manmade,m,ladle,CAFÉ,Inc_Synth_Synth,short,incongruent,m,m,True
499,4479,target,canvas.Screen,12_1_0_6_4,response,530.5000000476721,143119.09999990463,143118.4,143135.2,143665.70000004768,143667.09999990463,2024-09-12T08:25:39.430Z,143687.6,response_manmade,m,tower,TOWER,Con_Synth,short,congruent,m,m,True
505,4479,target,canvas.Screen,12_1_0_7_4,response,743.6999999523105,144352.59999990463,144351.8,144368.6,145112.29999995232,145113.59999990463,2024-09-12T08:25:40.877Z,145119.5,response_manmade,m,peach,SHED,Inc_Nat_Synth,short,incongruent,m,m,True
511,4479,target,canvas.Screen,12_1_0_8_4,response,841.8999999999942,145786.5,145785.3,145802.1,146644.0,146645.39999985695,2024-09-12T08:25:42.409Z,146651.8,response_manmade,m,fern,PETAL,Inc_Nat_Nat,short,incongruent,n,n,False
517,4479,target,canvas.Screen,12_1_0_9_4,response,697.3999998569489,147319.5,147318.5,147335.0,148032.39999985695,148033.59999990463,2024-09-12T08:25:43.797Z,148058.5,response_natural,n,grape,LLAMA,Inc_Nat_Nat,short,incongruent,n,n,True
523,4479,target,canvas.Screen,12_1_0_10_4,response,804.3000000476895,148736.20000004768,148735.3,148751.9,149556.20000004768,149557.5,2024-09-12T08:25:45.321Z,149568.2,response_natural,n,cobra,TWIG,Inc_Nat_Nat,short,incongruent,n,n,True
529,4479,target,canvas.Screen,12_1_0_11_4,response,493.5,150236.20000004768,150235.2,150251.5,150745.0,150746.39999985695,2024-09-12T08:25:46.509Z,150752.0,response_natural,n,hawk,HAWK,Con_Nat,short,congruent,n,n,True
535,4479,target,canvas.Screen,12_1_0_12_4,response,586.8999999046209,151419.59999990463,151418.6,151435.2,152022.09999990463,152023.20000004768,2024-09-12T08:25:47.786Z,152035.1,response_manmade,m,harp,SNAIL,Inc_Synth_Nat,short,incongruent,n,n,False
541,4479,target,canvas.Screen,12_1_0_13_4,response,514.5999999523046,152702.59999990463,152701.8,152718.2,153232.79999995232,153233.70000004768,2024-09-12T08:25:48.997Z,153258.6,response_manmade,m,toast,TOAST,Con_Synth,short,congruent,m,m,True
547,4479,target,canvas.Screen,12_1_0_14_4,response,680.1000000476779,153935.89999985695,153935.0,153951.6,154631.70000004768,154632.89999985695,2024-09-12T08:25:50.396Z,154634.8,response_natural,n,rake,HUSKY,Inc_Synth_Nat,short,incongruent,n,n,True
553,4479,target,canvas.Screen,12_1_0_15_4,response,755.8999998569489,155302.79999995232,155301.8,155318.5,156074.39999985695,156075.59999990463,2024-09-12T08:25:51.839Z,156084.9,response_manmade,m,water,MEDAL,Inc_Nat_Synth,short,incongruent,m,m,True
559,4479,target,canvas.Screen,12_1_0_16_4,response,498.5999998569605,156752.39999985695,156751.8,156768.3,157266.89999985695,157268.09999990463,2024-09-12T08:25:53.031Z,157284.9,response_natural,n,bread,BREAD,Con_Synth,short,congruent,m,m,False
565,4479,target,canvas.Screen,12_1_0_17_4,response,720.7000000476837,157952.59999990463,157951.8,157968.5,158689.20000004768,158689.79999995232,2024-09-12T08:25:54.453Z,158701.4,response_manmade,m,tank,TANK,Con_Synth,short,congruent,m,m,True
571,4479,target,canvas.Screen,12_1_0_18_4,response,867.0999998569605,159368.70000004768,159368.2,159384.8,160251.89999985695,160252.29999995232,2024-09-12T08:25:56.015Z,160268.0,response_manmade,m,lime,GULLY,Inc_Nat_Nat,short,incongruent,n,n,False
577,4479,target,canvas.Screen,12_1_0_19_4,response,590.2000000476837,160935.89999985695,160934.8,160951.5,161541.70000004768,161542.20000004768,2024-09-12T08:25:57.305Z,161551.4,response_natural,n,seed,SEED,Con_Nat,short,congruent,n,n,True
583,4479,target,canvas.Screen,12_1_0_20_4,response,488.0000000476721,162218.79999995232,162218.1,162234.7,162722.70000004768,162724.09999990463,2024-09-12T08:25:58.487Z,162734.7,response_natural,n,worm,WORM,Con_Nat,short,congruent,n,n,True
589,4479,target,canvas.Screen,12_1_0_21_4,response,536.8999999523221,163402.79999995232,163401.9,163418.4,163955.29999995232,163955.89999985695,2024-09-12T08:25:59.719Z,163967.9,response_natural,n,cave,CAVE,Con_Nat,short,congruent,n,n,True
595,4479,target,canvas.Screen,12_1_0_22_4,response,592.6999999046384,164635.29999995232,164634.8,164651.4,165244.09999990463,165245.0,2024-09-12T08:26:01.008Z,165251.4,response_manmade,m,patio,SPOON,Inc_Synth_Synth,short,incongruent,m,m,True
601,4479,target,canvas.Screen,12_1_0_23_4,response,615.7999999999884,165919.20000004768,165918.2,165934.7,166550.5,166551.70000004768,2024-09-12T08:26:02.315Z,166568.0,response_natural,n,soil,SOIL,Con_Nat,short,congruent,n,n,True
607,4479,target,canvas.Screen,12_1_0_24_4,response,495.2999999046442,167235.29999995232,167234.5,167251.3,167746.59999990463,167747.79999995232,2024-09-12T08:26:03.511Z,167751.2,response_natural,n,deer,DEER,Con_Nat,short,congruent,n,n,True
613,4479,target,canvas.Screen,12_1_0_25_4,response,546.1999999046384,168418.79999995232,168418.0,168434.9,168981.09999990463,168982.20000004768,2024-09-12T08:26:04.745Z,168984.5,response_manmade,m,belt,BELT,Con_Synth,short,congruent,m,m,True
619,4479,target,canvas.Screen,12_1_0_26_4,response,680.3999999523221,169652.29999995232,169651.3,169667.9,170348.29999995232,170349.39999985695,2024-09-12T08:26:06.113Z,170351.1,response_manmade,m,spade,SHELF,Inc_Synth_Synth,short,incongruent,m,m,True
625,4479,target,canvas.Screen,12_1_0_27_4,response,742.4999998569547,171019.09999990463,171018.1,171034.9,171777.39999985695,171778.59999990463,2024-09-12T08:26:07.542Z,171784.6,response_natural,n,arena,VINE,Inc_Synth_Nat,short,incongruent,n,n,True
