acc,accuracy,average_response_time,avg_rt,background,bidi,browser_codename,browser_name,browser_version,canvas_backend,clock_backend,color_backend,compensation,condition,coordinates,correct,correct_keyboard_response,correct_response,count_ISI,count_block_one,count_block_two,count_break,count_experiment,count_fixation,count_instructions1,count_instructions2,count_instructions3,count_instructions4,count_keyboard_response,count_logger,count_new_inline_javascript,count_osweb,count_stim,count_trial_sequence,date_startdate,date_startdateUTC,date_starttime,datetime,description,disable_garbage_collection,experiment_debug,experiment_parameters,experiment_path,experiment_pilot,experiment_taskname,experiment_taskversion,false_response,font_bold,font_family,font_italic,font_size,font_underline,foreground,form_clicks,fullscreen,height,jatosStudyResultId,jatosVersion,keyboard_backend,mouse_backend,opensesame_codename,opensesame_version,penwidth,queryParams_batchId,queryParams_jatosWorkerId,repeat_cycle,response,response_break,response_instructions1,response_instructions2,response_instructions3,response_instructions4,response_keyboard_response,response_stim,response_time,response_time_break,response_time_instructions1,response_time_instructions2,response_time_instructions3,response_time_instructions4,response_time_keyboard_response,response_time_stim,round_decimals,sampler_backend,screen_availableHeight,screen_availableWidth,screen_colorDepth,screen_height,screen_pixelDepth,screen_screenX,screen_screenY,screen_width,sessionid,sound_buf_size,sound_channels,sound_freq,sound_sample_size,start,stim,subject_nr,subject_parity,system_os,time_ISI,time_block_one,time_block_two,time_break,time_fixation,time_instructions1,time_instructions2,time_instructions3,time_instructions4,time_keyboard_response,time_logger,time_new_inline_javascript,time_stim,title,total_correct,total_response_time,total_responses,true_false,true_response,uniform_coordinates,width
0,0,1017,1017,black,no,,,,legacy,legacy,legacy,0,P2,uniform,0,0,z,0,0,0,0,0,0,0,0,0,0,0,0,0,0,0,0,,,,Thu Nov 18 2021 08:24:55 GMT+0100 (CET),The main experiment item,yes,,,/Users/ethan/Documents/GitHub/OpenSesame/SentenceVerification,,,,z,no,mono,no,18,no,white,no,no,768,,,legacy,legacy,osweb,1.4.0,1,,,0,None,,right,right,right,right,None,z,1017,,5100,12374,7175,2105,1017,4054,2,legacy,,,,,,,,,1637220363788,1024,2,48000,-16,experiment,Bourbon is gritty.,0,even,,31444,47,47,,30939,47,5173,17559,24749,31649,32666,39,26874,Sentence_verification,0,1017,1,FALSE,m,yes,1024
0,0,1017,1017,black,no,,,,legacy,legacy,legacy,0,SO,uniform,0,0,z,1,0,0,0,0,1,0,0,0,0,1,1,0,0,1,1,,,,Thu Nov 18 2021 08:24:55 GMT+0100 (CET),The main experiment item,yes,,,/Users/ethan/Documents/GitHub/OpenSesame/SentenceVerification,,,,z,no,mono,no,18,no,white,no,no,768,,,legacy,legacy,osweb,1.4.0,1,,,0,None,,right,right,right,right,None,m,1017,,5100,12374,7175,2105,1017,3234,2,legacy,,,,,,,,,1637220363788,1024,2,48000,-16,experiment,A parakeet is an eagle.,0,even,,36429,47,47,,35924,47,5173,17559,24749,36634,37651,39,32674,Sentence_verification,0,2034,2,FALSE,m,yes,1024
0,0,1017,1017,black,no,,,,legacy,legacy,legacy,0,SO,uniform,0,0,z,2,0,0,0,0,2,0,0,0,0,2,2,0,0,2,2,,,,Thu Nov 18 2021 08:24:55 GMT+0100 (CET),The main experiment item,yes,,,/Users/ethan/Documents/GitHub/OpenSesame/SentenceVerification,,,,z,no,mono,no,18,no,white,no,no,768,,,legacy,legacy,osweb,1.4.0,1,,,0,None,,right,right,right,right,None,z,1017,,5100,12374,7175,2105,1017,3246,2,legacy,,,,,,,,,1637220363788,1024,2,48000,-16,experiment,Chicago is a state.,0,even,,41414,47,47,,40909,47,5173,17559,24749,41619,42636,39,37658,Sentence_verification,0,3051,3,FALSE,m,yes,1024
0,0,1017,1017,black,no,,,,legacy,legacy,legacy,0,PO,uniform,0,0,m,3,0,0,0,0,3,0,0,0,0,3,3,0,0,3,3,,,,Thu Nov 18 2021 08:24:55 GMT+0100 (CET),The main experiment item,yes,,,/Users/ethan/Documents/GitHub/OpenSesame/SentenceVerification,,,,z,no,mono,no,18,no,white,no,no,768,,,legacy,legacy,osweb,1.4.0,1,,,0,None,,right,right,right,right,None,m,1016,,5100,12374,7175,2105,1016,4086,2,legacy,,,,,,,,,1637220363788,1024,2,48000,-16,experiment,A canary can sing.,0,even,,47248,47,47,,46743,47,5173,17559,24749,47453,48469,39,42643,Sentence_verification,0,4067,4,TRUE,m,yes,1024
0,0,1017,1017,black,no,,,,legacy,legacy,legacy,0,P1,uniform,0,0,z,4,0,0,0,0,4,0,0,0,0,4,4,0,0,4,4,,,,Thu Nov 18 2021 08:24:55 GMT+0100 (CET),The main experiment item,yes,,,/Users/ethan/Documents/GitHub/OpenSesame/SentenceVerification,,,,z,no,mono,no,18,no,white,no,no,768,,,legacy,legacy,osweb,1.4.0,1,,,0,None,,right,right,right,right,None,z,1017,,5100,12374,7175,2105,1017,3957,2,legacy,,,,,,,,,1637220363788,1024,2,48000,-16,experiment,A canoe has a sail.,0,even,,52949,47,47,,52446,47,5173,17559,24749,53154,54171,39,48478,Sentence_verification,0,5084,5,FALSE,m,yes,1024
0,0,1017,1017,black,no,,,,legacy,legacy,legacy,0,PO,uniform,0,0,z,5,0,0,0,0,5,0,0,0,0,5,5,0,0,5,5,,,,Thu Nov 18 2021 08:24:55 GMT+0100 (CET),The main experiment item,yes,,,/Users/ethan/Documents/GitHub/OpenSesame/SentenceVerification,,,,z,no,mono,no,18,no,white,no,no,768,,,legacy,legacy,osweb,1.4.0,1,,,0,None,,right,right,right,right,None,m,1016,,5100,12374,7175,2105,1016,3696,2,legacy,,,,,,,,,1637220363788,1024,2,48000,-16,experiment,A rowboat has a motor.,0,even,,58384,47,47,,57879,47,5173,17559,24749,58591,59607,39,54179,Sentence_verification,0,6100,6,FALSE,m,yes,1024
0,0,1017,1017,black,no,,,,legacy,legacy,legacy,0,P1,uniform,0,0,m,6,0,0,0,0,6,0,0,0,0,6,6,0,0,6,6,,,,Thu Nov 18 2021 08:24:55 GMT+0100 (CET),The main experiment item,yes,,,/Users/ethan/Documents/GitHub/OpenSesame/SentenceVerification,,,,z,no,mono,no,18,no,white,no,no,768,,,legacy,legacy,osweb,1.4.0,1,,,0,None,,right,right,right,right,None,m,1016,,5100,12374,7175,2105,1016,4150,2,legacy,,,,,,,,,1637220363788,1024,2,48000,-16,experiment,A shark has gills. ,0,even,,64285,47,47,,63780,47,5173,17559,24749,64491,65507,39,59613,Sentence_verification,0,7116,7,TRUE,m,yes,1024
0,0,1017,1017,black,no,,,,legacy,legacy,legacy,0,PO,uniform,0,0,z,7,0,0,0,0,7,0,0,0,0,7,7,0,0,7,7,,,,Thu Nov 18 2021 08:24:55 GMT+0100 (CET),The main experiment item,yes,,,/Users/ethan/Documents/GitHub/OpenSesame/SentenceVerification,,,,z,no,mono,no,18,no,white,no,no,768,,,legacy,legacy,osweb,1.4.0,1,,,0,None,,right,right,right,right,None,z,1016,,5100,12374,7175,2105,1016,2256,2,legacy,,,,,,,,,1637220363788,1024,2,48000,-16,experiment,Miami has snow.,0,even,,68286,47,47,,67781,47,5173,17559,24749,68492,69509,39,65513,Sentence_verification,0,8132,8,FALSE,m,yes,1024
0,0,1017,1017,black,no,,,,legacy,legacy,legacy,0,P2,uniform,0,0,z,8,0,0,0,0,8,0,0,0,0,8,8,0,0,8,8,,,,Thu Nov 18 2021 08:24:55 GMT+0100 (CET),The main experiment item,yes,,,/Users/ethan/Documents/GitHub/OpenSesame/SentenceVerification,,,,z,no,mono,no,18,no,white,no,no,768,,,legacy,legacy,osweb,1.4.0,1,,,0,None,,right,right,right,right,None,m,1017,,5100,12374,7175,2105,1017,4836,2,legacy,,,,,,,,,1637220363788,1024,2,48000,-16,experiment,A brigade can fly.,0,even,,74871,47,47,,74366,47,5173,17559,24749,75076,76093,39,69515,Sentence_verification,0,9149,9,FALSE,m,yes,1024
0,0,1017,1017,black,no,,,,legacy,legacy,legacy,0,PO,uniform,0,0,m,9,0,0,0,0,9,0,0,0,0,9,9,0,0,9,9,,,,Thu Nov 18 2021 08:24:55 GMT+0100 (CET),The main experiment item,yes,,,/Users/ethan/Documents/GitHub/OpenSesame/SentenceVerification,,,,z,no,mono,no,18,no,white,no,no,768,,,legacy,legacy,osweb,1.4.0,1,,,0,None,,right,right,right,right,None,m,1016,,5100,12374,7175,2105,1016,4053,2,legacy,,,,,,,,,1637220363788,1024,2,48000,-16,experiment,Football has goals. ,0,even,,80673,47,47,,80167,47,5173,17559,24749,80878,81895,39,76099,Sentence_verification,0,10165,10,TRUE,m,yes,1024
0,0,1016,1016,black,no,,,,legacy,legacy,legacy,0,S2,uniform,0,0,m,10,0,0,0,0,10,0,0,0,0,10,10,0,0,10,10,,,,Thu Nov 18 2021 08:24:55 GMT+0100 (CET),The main experiment item,yes,,,/Users/ethan/Documents/GitHub/OpenSesame/SentenceVerification,,,,z,no,mono,no,18,no,white,no,no,768,,,legacy,legacy,osweb,1.4.0,1,,,0,None,,right,right,right,right,None,z,1016,,5100,12374,7175,2105,1016,2504,2,legacy,,,,,,,,,1637220363788,1024,2,48000,-16,experiment,Vermouth is liquid.,0,even,,84924,47,47,,84419,47,5173,17559,24749,85130,86146,39,81901,Sentence_verification,0,11181,11,TRUE,m,yes,1024
0,0,1017,1017,black,no,,,,legacy,legacy,legacy,0,P1,uniform,0,0,m,11,0,0,0,0,11,0,0,0,0,11,11,0,0,11,11,,,,Thu Nov 18 2021 08:24:55 GMT+0100 (CET),The main experiment item,yes,,,/Users/ethan/Documents/GitHub/OpenSesame/SentenceVerification,,,,z,no,mono,no,18,no,white,no,no,768,,,legacy,legacy,osweb,1.4.0,1,,,0,None,,right,right,right,right,None,m,1017,,5100,12374,7175,2105,1017,1950,2,legacy,,,,,,,,,1637220363788,1024,2,48000,-16,experiment,Basketball has rules. ,0,even,,88610,47,47,,88105,47,5173,17559,24749,88815,89832,39,86152,Sentence_verification,0,12198,12,TRUE,m,yes,1024
0,0,1016,1016,black,no,,,,legacy,legacy,legacy,0,P1,uniform,0,0,z,12,0,0,0,0,12,0,0,0,0,12,12,0,0,12,12,,,,Thu Nov 18 2021 08:24:55 GMT+0100 (CET),The main experiment item,yes,,,/Users/ethan/Documents/GitHub/OpenSesame/SentenceVerification,,,,z,no,mono,no,18,no,white,no,no,768,,,legacy,legacy,osweb,1.4.0,1,,,0,None,,right,right,right,right,None,m,1016,,5100,12374,7175,2105,1016,5078,2,legacy,,,,,,,,,1637220363788,1024,2,48000,-16,experiment,Satin is rough.,0,even,,95427,47,47,,94921,47,5173,17559,24749,95632,96649,39,89838,Sentence_verification,0,13214,13,FALSE,m,yes,1024
0,0,1017,1017,black,no,,,,legacy,legacy,legacy,0,PO,uniform,0,0,z,13,0,0,0,0,13,0,0,0,0,13,13,0,0,13,13,,,,Thu Nov 18 2021 08:24:55 GMT+0100 (CET),The main experiment item,yes,,,/Users/ethan/Documents/GitHub/OpenSesame/SentenceVerification,,,,z,no,mono,no,18,no,white,no,no,768,,,legacy,legacy,osweb,1.4.0,1,,,0,None,,right,right,right,right,None,z,1017,,5100,12374,7175,2105,1017,1740,2,legacy,,,,,,,,,1637220363788,1024,2,48000,-16,experiment,Russia is an island.,0,even,,98911,47,47,,98406,47,5173,17559,24749,99117,100134,39,96654,Sentence_verification,0,14231,14,FALSE,m,yes,1024
0,0,1017,1017,black,no,,,,legacy,legacy,legacy,0,S1,uniform,0,0,m,14,0,0,0,0,14,0,0,0,0,14,14,0,0,14,14,,,,Thu Nov 18 2021 08:24:55 GMT+0100 (CET),The main experiment item,yes,,,/Users/ethan/Documents/GitHub/OpenSesame/SentenceVerification,,,,z,no,mono,no,18,no,white,no,no,768,,,legacy,legacy,osweb,1.4.0,1,,,0,None,,right,right,right,right,None,z,1017,,5100,12374,7175,2105,1017,4811,2,legacy,,,,,,,,,1637220363788,1024,2,48000,-16,experiment,A gumdrop is candy.,0,even,,105463,47,47,,104958,47,5173,17559,24749,105668,106685,39,100140,Sentence_verification,0,15248,15,TRUE,m,yes,1024
0,0,1017,1017,black,no,,,,legacy,legacy,legacy,0,S1,uniform,0,0,z,15,0,0,0,0,15,0,0,0,0,15,15,0,0,15,15,,,,Thu Nov 18 2021 08:24:55 GMT+0100 (CET),The main experiment item,yes,,,/Users/ethan/Documents/GitHub/OpenSesame/SentenceVerification,,,,z,no,mono,no,18,no,white,no,no,768,,,legacy,legacy,osweb,1.4.0,1,,,0,None,,right,right,right,right,None,z,1017,,5100,12374,7175,2105,1017,1972,2,legacy,,,,,,,,,1637220363788,1024,2,48000,-16,experiment,Peru is a city.,0,even,,109181,47,47,,108676,47,5173,17559,24749,109386,110403,39,106691,Sentence_verification,0,16265,16,FALSE,m,yes,1024
0,0,1017,1017,black,no,,,,legacy,legacy,legacy,0,P2,uniform,0,0,m,16,0,0,0,0,16,0,0,0,0,16,16,0,0,16,16,,,,Thu Nov 18 2021 08:24:55 GMT+0100 (CET),The main experiment item,yes,,,/Users/ethan/Documents/GitHub/OpenSesame/SentenceVerification,,,,z,no,mono,no,18,no,white,no,no,768,,,legacy,legacy,osweb,1.4.0,1,,,0,None,,right,right,right,right,None,m,1016,,5100,12374,7175,2105,1016,3881,2,legacy,,,,,,,,,1637220363788,1024,2,48000,-16,experiment,A lieutenant can talk.,0,even,,114800,47,47,,114294,47,5173,17559,24749,115006,116023,39,110409,Sentence_verification,0,17281,17,TRUE,m,yes,1024
0,0,1017,1017,black,no,,,,legacy,legacy,legacy,0,S2,uniform,0,0,z,17,0,0,0,0,17,0,0,0,0,17,17,0,0,17,17,,,,Thu Nov 18 2021 08:24:55 GMT+0100 (CET),The main experiment item,yes,,,/Users/ethan/Documents/GitHub/OpenSesame/SentenceVerification,,,,z,no,mono,no,18,no,white,no,no,768,,,legacy,legacy,osweb,1.4.0,1,,,0,None,,right,right,right,right,None,m,1017,,5100,12374,7175,2105,1017,3555,2,legacy,,,,,,,,,1637220363788,1024,2,48000,-16,experiment,A mesquite is a mineral.,0,even,,120103,47,47,,119597,47,5173,17559,24749,120308,121325,39,116029,Sentence_verification,0,18298,18,FALSE,m,yes,1024
0,0,1017,1017,black,no,,,,legacy,legacy,legacy,0,SO,uniform,0,0,z,18,0,0,0,0,18,0,0,0,0,18,18,0,0,18,18,,,,Thu Nov 18 2021 08:24:55 GMT+0100 (CET),The main experiment item,yes,,,/Users/ethan/Documents/GitHub/OpenSesame/SentenceVerification,,,,z,no,mono,no,18,no,white,no,no,768,,,legacy,legacy,osweb,1.4.0,1,,,0,None,,right,right,right,right,None,z,1016,,5100,12374,7175,2105,1016,5484,2,legacy,,,,,,,,,1637220363788,1024,2,48000,-16,experiment,A petunia is thorny.,0,even,,127339,47,47,,126833,47,5173,17559,24749,127545,128562,39,121332,Sentence_verification,0,19314,19,FALSE,m,yes,1024
0,0,1017,1017,black,no,,,,legacy,legacy,legacy,0,S2,uniform,0,0,z,19,0,0,0,0,19,0,0,0,0,19,19,0,0,19,19,,,,Thu Nov 18 2021 08:24:55 GMT+0100 (CET),The main experiment item,yes,,,/Users/ethan/Documents/GitHub/OpenSesame/SentenceVerification,,,,z,no,mono,no,18,no,white,no,no,768,,,legacy,legacy,osweb,1.4.0,1,,,0,None,,right,right,right,right,None,z,1017,,5100,12374,7175,2105,1017,2797,2,legacy,,,,,,,,,1637220363788,1024,2,48000,-16,experiment,A general is a monkey.,0,even,,131875,47,47,,131370,47,5173,17559,24749,132081,133098,39,128568,Sentence_verification,0,20331,20,FALSE,m,yes,1024
0,0,1017,1017,black,no,,,,legacy,legacy,legacy,0,SO,uniform,0,0,z,20,0,0,0,0,20,0,0,0,0,20,20,0,0,20,20,,,,Thu Nov 18 2021 08:24:55 GMT+0100 (CET),The main experiment item,yes,,,/Users/ethan/Documents/GitHub/OpenSesame/SentenceVerification,,,,z,no,mono,no,18,no,white,no,no,768,,,legacy,legacy,osweb,1.4.0,1,,,0,None,,right,right,right,right,None,z,1016,,5100,12374,7175,2105,1016,3738,2,legacy,,,,,,,,,1637220363788,1024,2,48000,-16,experiment,A raft is an aircraft carrier.,0,even,,137362,47,47,,136856,47,5173,17559,24749,137568,138585,39,133105,Sentence_verification,0,21347,21,FALSE,m,yes,1024
0,0,1017,1017,black,no,,,,legacy,legacy,legacy,0,SO,uniform,0,0,m,21,0,0,0,0,21,0,0,0,0,21,21,0,0,21,21,,,,Thu Nov 18 2021 08:24:55 GMT+0100 (CET),The main experiment item,yes,,,/Users/ethan/Documents/GitHub/OpenSesame/SentenceVerification,,,,z,no,mono,no,18,no,white,no,no,768,,,legacy,legacy,osweb,1.4.0,1,,,0,None,,right,right,right,right,None,m,1017,,5100,12374,7175,2105,1017,2133,2,legacy,,,,,,,,,1637220363788,1024,2,48000,-16,experiment,A sailboat is a sailboat.,0,even,,141232,47,47,,140726,47,5173,17559,24749,141438,142455,39,138591,Sentence_verification,0,22364,22,TRUE,m,yes,1024
0,0,1017,1017,black,no,,,,legacy,legacy,legacy,0,S2,uniform,0,0,m,22,0,0,0,0,22,0,0,0,0,22,22,0,0,22,22,,,,Thu Nov 18 2021 08:24:55 GMT+0100 (CET),The main experiment item,yes,,,/Users/ethan/Documents/GitHub/OpenSesame/SentenceVerification,,,,z,no,mono,no,18,no,white,no,no,768,,,legacy,legacy,osweb,1.4.0,1,,,0,None,,right,right,right,right,None,z,1016,,5100,12374,7175,2105,1016,3480,2,legacy,,,,,,,,,1637220363788,1024,2,48000,-16,experiment,An elm is a plant.,0,even,,146451,47,47,,145945,47,5173,17559,24749,146657,147673,39,142462,Sentence_verification,0,23380,23,TRUE,m,yes,1024
0,0,1017,1017,black,no,,,,legacy,legacy,legacy,0,SO,uniform,0,0,m,23,0,0,0,0,23,0,0,0,0,23,23,0,0,23,23,,,,Thu Nov 18 2021 08:24:55 GMT+0100 (CET),The main experiment item,yes,,,/Users/ethan/Documents/GitHub/OpenSesame/SentenceVerification,,,,z,no,mono,no,18,no,white,no,no,768,,,legacy,legacy,osweb,1.4.0,1,,,0,None,,right,right,right,right,None,m,1016,,5100,12374,7175,2105,1016,2182,2,legacy,,,,,,,,,1637220363788,1024,2,48000,-16,experiment,A gardenia is a gardenia. ,0,even,,150370,47,47,,149864,47,5173,17559,24749,150577,151593,39,147680,Sentence_verification,0,24396,24,TRUE,m,yes,1024
0,0,1016,1016,black,no,,,,legacy,legacy,legacy,0,S1,uniform,0,0,z,24,0,0,0,0,24,0,0,0,0,24,24,0,0,24,24,,,,Thu Nov 18 2021 08:24:55 GMT+0100 (CET),The main experiment item,yes,,,/Users/ethan/Documents/GitHub/OpenSesame/SentenceVerification,,,,z,no,mono,no,18,no,white,no,no,768,,,legacy,legacy,osweb,1.4.0,1,,,0,None,,right,right,right,right,None,z,1016,,5100,12374,7175,2105,1016,1931,2,legacy,,,,,,,,,1637220363788,1024,2,48000,-16,experiment,Cremes are cookies.,0,even,,154040,47,47,,153534,47,5173,17559,24749,154247,155263,39,151600,Sentence_verification,0,25412,25,FALSE,m,yes,1024
0,0,1016,1016,black,no,,,,legacy,legacy,legacy,0,S2,uniform,0,0,m,25,0,0,0,0,25,0,0,0,0,25,25,0,0,25,25,,,,Thu Nov 18 2021 08:24:55 GMT+0100 (CET),The main experiment item,yes,,,/Users/ethan/Documents/GitHub/OpenSesame/SentenceVerification,,,,z,no,mono,no,18,no,white,no,no,768,,,legacy,legacy,osweb,1.4.0,1,,,0,None,,right,right,right,right,None,m,1016,,5100,12374,7175,2105,1016,1704,2,legacy,,,,,,,,,1637220363788,1024,2,48000,-16,experiment,A corporal is a person.,0,even,,157494,47,47,,156988,47,5173,17559,24749,157700,158717,39,155270,Sentence_verification,0,26428,26,TRUE,m,yes,1024
0,0,1016,1016,black,no,,,,legacy,legacy,legacy,0,P1,uniform,0,0,z,0,0,0,0,0,0,0,0,0,0,0,0,0,0,0,0,,,,Thu Nov 18 2021 08:22:21 GMT+0100 (Central European Standard Time),The main experiment item,yes,,,/Users/ethan/Documents/GitHub/OpenSesame/SentenceVerification,,,,m,no,mono,no,18,no,white,no,no,768,,,legacy,legacy,osweb,1.4.0,1,,,0,None,,down,z,z,z,None,m,1016,,5242,16556,6349,3147,1016,2689,2,legacy,,,,,,,,,1637220160839,1024,2,48000,-16,experiment,A wren can fly.,1,odd,,34666,76,76,,34151,76,5330,21903,28269,34882,35898,73,31445,Sentence_verification,0,1016,1,TRUE,z,yes,1024
0,0,1017,1017,black,no,,,,legacy,legacy,legacy,0,S2,uniform,0,0,z,1,0,0,0,0,1,0,0,0,0,1,1,0,0,1,1,,,,Thu Nov 18 2021 08:22:21 GMT+0100 (Central European Standard Time),The main experiment item,yes,,,/Users/ethan/Documents/GitHub/OpenSesame/SentenceVerification,,,,m,no,mono,no,18,no,white,no,no,768,,,legacy,legacy,osweb,1.4.0,1,,,0,None,,down,z,z,z,None,z,1017,,5242,16556,6349,3147,1017,1735,2,legacy,,,,,,,,,1637220160839,1024,2,48000,-16,experiment,A corporal is a person.,1,odd,,38148,76,76,,37644,76,5330,21903,28269,38364,39381,73,35906,Sentence_verification,0,2033,2,TRUE,z,yes,1024
0,0,1017,1017,black,no,,,,legacy,legacy,legacy,0,P1,uniform,0,0,z,2,0,0,0,0,2,0,0,0,0,2,2,0,0,2,2,,,,Thu Nov 18 2021 08:22:21 GMT+0100 (Central European Standard Time),The main experiment item,yes,,,/Users/ethan/Documents/GitHub/OpenSesame/SentenceVerification,,,,m,no,mono,no,18,no,white,no,no,768,,,legacy,legacy,osweb,1.4.0,1,,,0,None,,down,z,z,z,None,z,1017,,5242,16556,6349,3147,1017,1052,2,legacy,,,,,,,,,1637220160839,1024,2,48000,-16,experiment,A pistol can fire. ,1,odd,,40964,76,76,,40449,76,5330,21903,28269,41180,42197,73,39388,Sentence_verification,0,3050,3,TRUE,z,yes,1024
0,0,1017,1017,black,no,,,,legacy,legacy,legacy,0,P1,uniform,0,0,z,3,0,0,0,0,3,0,0,0,0,3,3,0,0,3,3,,,,Thu Nov 18 2021 08:22:21 GMT+0100 (Central European Standard Time),The main experiment item,yes,,,/Users/ethan/Documents/GitHub/OpenSesame/SentenceVerification,,,,m,no,mono,no,18,no,white,no,no,768,,,legacy,legacy,osweb,1.4.0,1,,,0,None,,down,z,z,z,None,z,1016,,5242,16556,6349,3147,1016,1276,2,legacy,,,,,,,,,1637220160839,1024,2,48000,-16,experiment,Silk is woven.,1,odd,,44013,76,76,,43498,76,5330,21903,28269,44230,45246,73,42205,Sentence_verification,0,4066,4,TRUE,z,yes,1024
0,0,1016,1016,black,no,,,,legacy,legacy,legacy,0,PO,uniform,0,0,m,4,0,0,0,0,4,0,0,0,0,4,4,0,0,4,4,,,,Thu Nov 18 2021 08:22:21 GMT+0100 (Central European Standard Time),The main experiment item,yes,,,/Users/ethan/Documents/GitHub/OpenSesame/SentenceVerification,,,,m,no,mono,no,18,no,white,no,no,768,,,legacy,legacy,osweb,1.4.0,1,,,0,None,,down,z,z,z,None,m,1016,,5242,16556,6349,3147,1016,1337,2,legacy,,,,,,,,,1637220160839,1024,2,48000,-16,experiment,A crow is green.,1,odd,,47112,76,76,,46598,76,5330,21903,28269,47329,48345,73,45252,Sentence_verification,0,5082,5,FALSE,z,yes,1024
0,0,1016,1016,black,no,,,,legacy,legacy,legacy,0,P2,uniform,0,0,z,5,0,0,0,0,5,0,0,0,0,5,5,0,0,5,5,,,,Thu Nov 18 2021 08:22:21 GMT+0100 (Central European Standard Time),The main experiment item,yes,,,/Users/ethan/Documents/GitHub/OpenSesame/SentenceVerification,,,,m,no,mono,no,18,no,white,no,no,768,,,legacy,legacy,osweb,1.4.0,1,,,0,None,,down,z,z,z,None,z,1016,,5242,16556,6349,3147,1016,1847,2,legacy,,,,,,,,,1637220160839,1024,2,48000,-16,experiment,Gin is wet.,1,odd,,50728,76,76,,50213,76,5330,21903,28269,50945,51962,73,48352,Sentence_verification,0,6098,6,TRUE,z,yes,1024
0,0,1016,1016,black,no,,,,legacy,legacy,legacy,0,S2,uniform,0,0,z,6,0,0,0,0,6,0,0,0,0,6,6,0,0,6,6,,,,Thu Nov 18 2021 08:22:21 GMT+0100 (Central European Standard Time),The main experiment item,yes,,,/Users/ethan/Documents/GitHub/OpenSesame/SentenceVerification,,,,m,no,mono,no,18,no,white,no,no,768,,,legacy,legacy,osweb,1.4.0,1,,,0,None,,down,z,z,z,None,m,1016,,5242,16556,6349,3147,1016,2344,2,legacy,,,,,,,,,1637220160839,1024,2,48000,-16,experiment,Vermouth is liquid.,1,odd,,54845,76,76,,54329,76,5330,21903,28269,55061,56078,73,51971,Sentence_verification,0,7114,7,TRUE,z,yes,1024
0,0,1016,1016,black,no,,,,legacy,legacy,legacy,0,S1,uniform,0,0,z,7,0,0,0,0,7,0,0,0,0,7,7,0,0,7,7,,,,Thu Nov 18 2021 08:22:21 GMT+0100 (Central European Standard Time),The main experiment item,yes,,,/Users/ethan/Documents/GitHub/OpenSesame/SentenceVerification,,,,m,no,mono,no,18,no,white,no,no,768,,,legacy,legacy,osweb,1.4.0,1,,,0,None,,down,z,z,z,None,z,1016,,5242,16556,6349,3147,1016,1740,2,legacy,,,,,,,,,1637220160839,1024,2,48000,-16,experiment,Belgium is a nation.,1,odd,,58394,76,76,,57878,76,5330,21903,28269,58610,59626,73,56135,Sentence_verification,0,8130,8,TRUE,z,yes,1024
0,0,1016,1016,black,no,,,,legacy,legacy,legacy,0,P1,uniform,0,0,m,8,0,0,0,0,8,0,0,0,0,8,8,0,0,8,8,,,,Thu Nov 18 2021 08:22:21 GMT+0100 (Central European Standard Time),The main experiment item,yes,,,/Users/ethan/Documents/GitHub/OpenSesame/SentenceVerification,,,,m,no,mono,no,18,no,white,no,no,768,,,legacy,legacy,osweb,1.4.0,1,,,0,None,,down,z,z,z,None,z,1017,,5242,16556,6349,3147,1017,3305,2,legacy,,,,,,,,,1637220160839,1024,2,48000,-16,experiment,Satin is rough.,1,odd,,63459,76,76,,62944,76,5330,21903,28269,63675,64692,73,59636,Sentence_verification,0,9147,9,FALSE,z,yes,1024
0,0,1016,1016,black,no,,,,legacy,legacy,legacy,0,S1,uniform,0,0,m,9,0,0,0,0,9,0,0,0,0,9,9,0,0,9,9,,,,Thu Nov 18 2021 08:22:21 GMT+0100 (Central European Standard Time),The main experiment item,yes,,,/Users/ethan/Documents/GitHub/OpenSesame/SentenceVerification,,,,m,no,mono,no,18,no,white,no,no,768,,,legacy,legacy,osweb,1.4.0,1,,,0,None,,down,z,z,z,None,m,1017,,5242,16556,6349,3147,1017,2088,2,legacy,,,,,,,,,1637220160839,1024,2,48000,-16,experiment,A violet is a mammal.,1,odd,,67308,76,76,,66792,76,5330,21903,28269,67524,68541,73,64701,Sentence_verification,0,10164,10,FALSE,z,yes,1024
0,0,1016,1016,black,no,,,,legacy,legacy,legacy,0,SO,uniform,0,0,z,10,0,0,0,0,10,0,0,0,0,10,10,0,0,10,10,,,,Thu Nov 18 2021 08:22:21 GMT+0100 (Central European Standard Time),The main experiment item,yes,,,/Users/ethan/Documents/GitHub/OpenSesame/SentenceVerification,,,,m,no,mono,no,18,no,white,no,no,768,,,legacy,legacy,osweb,1.4.0,1,,,0,None,,down,z,z,z,None,z,1016,,5242,16556,6349,3147,1016,1430,2,legacy,,,,,,,,,1637220160839,1024,2,48000,-16,experiment,A shotgun is a shotgun. ,1,odd,,70507,76,76,,69992,76,5330,21903,28269,70724,71740,73,68549,Sentence_verification,0,11180,11,TRUE,z,yes,1024
0,0,1016,1016,black,no,,,,legacy,legacy,legacy,0,PO,uniform,0,0,m,11,0,0,0,0,11,0,0,0,0,11,11,0,0,11,11,,,,Thu Nov 18 2021 08:22:21 GMT+0100 (Central European Standard Time),The main experiment item,yes,,,/Users/ethan/Documents/GitHub/OpenSesame/SentenceVerification,,,,m,no,mono,no,18,no,white,no,no,768,,,legacy,legacy,osweb,1.4.0,1,,,0,None,,down,z,z,z,None,m,1017,,5242,16556,6349,3147,1017,1984,2,legacy,,,,,,,,,1637220160839,1024,2,48000,-16,experiment,A rowboat has a motor.,1,odd,,74256,76,76,,73741,76,5330,21903,28269,74472,75489,73,71749,Sentence_verification,0,12197,12,FALSE,z,yes,1024
0,0,1016,1016,black,no,,,,legacy,legacy,legacy,0,SO,uniform,0,0,z,12,0,0,0,0,12,0,0,0,0,12,12,0,0,12,12,,,,Thu Nov 18 2021 08:22:21 GMT+0100 (Central European Standard Time),The main experiment item,yes,,,/Users/ethan/Documents/GitHub/OpenSesame/SentenceVerification,,,,m,no,mono,no,18,no,white,no,no,768,,,legacy,legacy,osweb,1.4.0,1,,,0,None,,down,z,z,z,None,z,1016,,5242,16556,6349,3147,1016,1064,2,legacy,,,,,,,,,1637220160839,1024,2,48000,-16,experiment,A robin is a robin.,1,odd,,77089,76,76,,76574,76,5330,21903,28269,77305,78322,73,75495,Sentence_verification,0,13213,13,TRUE,z,yes,1024
0,0,1016,1016,black,no,,,,legacy,legacy,legacy,0,PO,uniform,0,0,z,13,0,0,0,0,13,0,0,0,0,13,13,0,0,13,13,,,,Thu Nov 18 2021 08:22:21 GMT+0100 (Central European Standard Time),The main experiment item,yes,,,/Users/ethan/Documents/GitHub/OpenSesame/SentenceVerification,,,,m,no,mono,no,18,no,white,no,no,768,,,legacy,legacy,osweb,1.4.0,1,,,0,None,,down,z,z,z,None,m,1016,,5242,16556,6349,3147,1016,3574,2,legacy,,,,,,,,,1637220160839,1024,2,48000,-16,experiment,France has DeGaulle.,1,odd,,82437,76,76,,81922,76,5330,21903,28269,82654,83671,73,78333,Sentence_verification,0,14229,14,TRUE,z,yes,1024
0,0,1016,1016,black,no,,,,legacy,legacy,legacy,0,SO,uniform,0,0,m,14,0,0,0,0,14,0,0,0,0,14,14,0,0,14,14,,,,Thu Nov 18 2021 08:22:21 GMT+0100 (Central European Standard Time),The main experiment item,yes,,,/Users/ethan/Documents/GitHub/OpenSesame/SentenceVerification,,,,m,no,mono,no,18,no,white,no,no,768,,,legacy,legacy,osweb,1.4.0,1,,,0,None,,down,z,z,z,None,m,1016,,5242,16556,6349,3147,1016,1622,2,legacy,,,,,,,,,1637220160839,1024,2,48000,-16,experiment,A parakeet is an eagle.,1,odd,,85820,76,76,,85305,76,5330,21903,28269,86037,87053,73,83681,Sentence_verification,0,15245,15,FALSE,z,yes,1024
0,0,1016,1016,black,no,,,,legacy,legacy,legacy,0,PO,uniform,0,0,z,15,0,0,0,0,15,0,0,0,0,15,15,0,0,15,15,,,,Thu Nov 18 2021 08:22:21 GMT+0100 (Central European Standard Time),The main experiment item,yes,,,/Users/ethan/Documents/GitHub/OpenSesame/SentenceVerification,,,,m,no,mono,no,18,no,white,no,no,768,,,legacy,legacy,osweb,1.4.0,1,,,0,None,,down,z,z,z,None,z,1016,,5242,16556,6349,3147,1016,1768,2,legacy,,,,,,,,,1637220160839,1024,2,48000,-16,experiment,Nylon is smooth.,1,odd,,89353,76,76,,88837,76,5330,21903,28269,89569,90586,73,87061,Sentence_verification,0,16261,16,TRUE,z,yes,1024
0,0,1016,1016,black,no,,,,legacy,legacy,legacy,0,SO,uniform,0,0,m,16,0,0,0,0,16,0,0,0,0,16,16,0,0,16,16,,,,Thu Nov 18 2021 08:22:21 GMT+0100 (Central European Standard Time),The main experiment item,yes,,,/Users/ethan/Documents/GitHub/OpenSesame/SentenceVerification,,,,m,no,mono,no,18,no,white,no,no,768,,,legacy,legacy,osweb,1.4.0,1,,,0,None,,down,z,z,z,None,z,1015,,5242,16556,6349,3147,1015,1311,2,legacy,,,,,,,,,1637220160839,1024,2,48000,-16,experiment,Chicago is a state.,1,odd,,92435,76,76,,91920,76,5330,21903,28269,92652,93667,73,90594,Sentence_verification,0,17276,17,FALSE,z,yes,1024
0,0,1015,1015,black,no,,,,legacy,legacy,legacy,0,P1,uniform,0,0,m,17,0,0,0,0,17,0,0,0,0,17,17,0,0,17,17,,,,Thu Nov 18 2021 08:22:21 GMT+0100 (Central European Standard Time),The main experiment item,yes,,,/Users/ethan/Documents/GitHub/OpenSesame/SentenceVerification,,,,m,no,mono,no,18,no,white,no,no,768,,,legacy,legacy,osweb,1.4.0,1,,,0,None,,down,z,z,z,None,m,1001,,5242,16556,6349,3147,1001,1291,2,legacy,,,,,,,,,1637220160839,1024,2,48000,-16,experiment,A shrimp can fly.,1,odd,,95485,76,76,,94969,76,5330,21903,28269,95700,96701,73,93673,Sentence_verification,0,18277,18,FALSE,z,yes,1024
0,0,1015,1015,black,no,,,,legacy,legacy,legacy,0,P2,uniform,0,0,m,18,0,0,0,0,18,0,0,0,0,18,18,0,0,18,18,,,,Thu Nov 18 2021 08:22:21 GMT+0100 (Central European Standard Time),The main experiment item,yes,,,/Users/ethan/Documents/GitHub/OpenSesame/SentenceVerification,,,,m,no,mono,no,18,no,white,no,no,768,,,legacy,legacy,osweb,1.4.0,1,,,0,None,,down,z,z,z,None,m,1016,,5242,16556,6349,3147,1016,2095,2,legacy,,,,,,,,,1637220160839,1024,2,48000,-16,experiment,A sycamore has fruit.,1,odd,,99333,76,76,,98820,76,5330,21903,28269,99550,100567,73,96710,Sentence_verification,0,19293,19,FALSE,z,yes,1024
0,0,1015,1015,black,no,,,,legacy,legacy,legacy,0,SO,uniform,0,0,m,19,0,0,0,0,19,0,0,0,0,19,19,0,0,19,19,,,,Thu Nov 18 2021 08:22:21 GMT+0100 (Central European Standard Time),The main experiment item,yes,,,/Users/ethan/Documents/GitHub/OpenSesame/SentenceVerification,,,,m,no,mono,no,18,no,white,no,no,768,,,legacy,legacy,osweb,1.4.0,1,,,0,None,,down,z,z,z,None,m,1016,,5242,16556,6349,3147,1016,2029,2,legacy,,,,,,,,,1637220160839,1024,2,48000,-16,experiment,Caramel is cotton candy.,1,odd,,103132,76,76,,102617,76,5330,21903,28269,103349,104365,73,100574,Sentence_verification,0,20309,20,FALSE,z,yes,1024
0,0,1016,1016,black,no,,,,legacy,legacy,legacy,0,P2,uniform,0,0,z,20,0,0,0,0,20,0,0,0,0,20,20,0,0,20,20,,,,Thu Nov 18 2021 08:22:21 GMT+0100 (Central European Standard Time),The main experiment item,yes,,,/Users/ethan/Documents/GitHub/OpenSesame/SentenceVerification,,,,m,no,mono,no,18,no,white,no,no,768,,,legacy,legacy,osweb,1.4.0,1,,,0,None,,down,z,z,z,None,z,1017,,5242,16556,6349,3147,1017,1925,2,legacy,,,,,,,,,1637220160839,1024,2,48000,-16,experiment,A birch has seeds.,1,odd,,106815,76,76,,106299,76,5330,21903,28269,107031,108048,73,104369,Sentence_verification,0,21326,21,TRUE,z,yes,1024
0,0,1016,1016,black,no,,,,legacy,legacy,legacy,0,PO,uniform,0,0,z,21,0,0,0,0,21,0,0,0,0,21,21,0,0,21,21,,,,Thu Nov 18 2021 08:22:21 GMT+0100 (Central European Standard Time),The main experiment item,yes,,,/Users/ethan/Documents/GitHub/OpenSesame/SentenceVerification,,,,m,no,mono,no,18,no,white,no,no,768,,,legacy,legacy,osweb,1.4.0,1,,,0,None,,down,z,z,z,None,z,1017,,5242,16556,6349,3147,1017,1500,2,legacy,,,,,,,,,1637220160839,1024,2,48000,-16,experiment,A sunflower is yellow. ,1,odd,,110081,76,76,,109565,76,5330,21903,28269,110297,111314,73,108055,Sentence_verification,0,22343,22,TRUE,z,yes,1024
0,0,1016,1016,black,no,,,,legacy,legacy,legacy,0,S1,uniform,0,0,z,22,0,0,0,0,22,0,0,0,0,22,22,0,0,22,22,,,,Thu Nov 18 2021 08:22:21 GMT+0100 (Central European Standard Time),The main experiment item,yes,,,/Users/ethan/Documents/GitHub/OpenSesame/SentenceVerification,,,,m,no,mono,no,18,no,white,no,no,768,,,legacy,legacy,osweb,1.4.0,1,,,0,None,,down,z,z,z,None,z,1017,,5242,16556,6349,3147,1017,1106,2,legacy,,,,,,,,,1637220160839,1024,2,48000,-16,experiment,A parrot is a bird.,1,odd,,112947,76,76,,112431,76,5330,21903,28269,113163,114180,73,111321,Sentence_verification,0,23360,23,TRUE,z,yes,1024
0,0,1016,1016,black,no,,,,legacy,legacy,legacy,0,SO,uniform,0,0,m,23,0,0,0,0,23,0,0,0,0,23,23,0,0,23,23,,,,Thu Nov 18 2021 08:22:21 GMT+0100 (Central European Standard Time),The main experiment item,yes,,,/Users/ethan/Documents/GitHub/OpenSesame/SentenceVerification,,,,m,no,mono,no,18,no,white,no,no,768,,,legacy,legacy,osweb,1.4.0,1,,,0,None,,down,z,z,z,None,m,1017,,5242,16556,6349,3147,1017,1542,2,legacy,,,,,,,,,1637220160839,1024,2,48000,-16,experiment,An apple is an orange.,1,odd,,116246,76,76,,115736,76,5330,21903,28269,116462,117479,73,114187,Sentence_verification,0,24377,24,FALSE,z,yes,1024
0,0,1016,1016,black,no,,,,legacy,legacy,legacy,0,PO,uniform,0,0,z,24,0,0,0,0,24,0,0,0,0,24,24,0,0,24,24,,,,Thu Nov 18 2021 08:22:21 GMT+0100 (Central European Standard Time),The main experiment item,yes,,,/Users/ethan/Documents/GitHub/OpenSesame/SentenceVerification,,,,m,no,mono,no,18,no,white,no,no,768,,,legacy,legacy,osweb,1.4.0,1,,,0,None,,down,z,z,z,None,z,1016,,5242,16556,6349,3147,1016,1463,2,legacy,,,,,,,,,1637220160839,1024,2,48000,-16,experiment,A rifle is long. ,1,odd,,119479,76,76,,118963,76,5330,21903,28269,119695,120711,73,117487,Sentence_verification,0,25393,25,TRUE,z,yes,1024
0,0,1016,1016,black,no,,,,legacy,legacy,legacy,0,PO,uniform,0,0,z,25,0,0,0,0,25,0,0,0,0,25,25,0,0,25,25,,,,Thu Nov 18 2021 08:22:21 GMT+0100 (Central European Standard Time),The main experiment item,yes,,,/Users/ethan/Documents/GitHub/OpenSesame/SentenceVerification,,,,m,no,mono,no,18,no,white,no,no,768,,,legacy,legacy,osweb,1.4.0,1,,,0,None,,down,z,z,z,None,z,1016,,5242,16556,6349,3147,1016,1996,2,legacy,,,,,,,,,1637220160839,1024,2,48000,-16,experiment,San Francisco has fog. ,1,odd,,123244,76,76,,122728,76,5330,21903,28269,123461,124477,73,120719,Sentence_verification,0,26409,26,TRUE,z,yes,1024
0,0,1016,1016,black,no,,,,legacy,legacy,legacy,0,S2,uniform,0,0,m,26,0,0,0,0,26,0,0,0,0,26,26,0,0,26,26,,,,Thu Nov 18 2021 08:22:21 GMT+0100 (Central European Standard Time),The main experiment item,yes,,,/Users/ethan/Documents/GitHub/OpenSesame/SentenceVerification,,,,m,no,mono,no,18,no,white,no,no,768,,,legacy,legacy,osweb,1.4.0,1,,,0,None,,down,z,z,z,None,z,1016,,5242,16556,6349,3147,1016,2377,2,legacy,,,,,,,,,1637220160839,1024,2,48000,-16,experiment,A mesquite is a mineral.,1,odd,,127394,76,76,,126877,76,5330,21903,28269,127610,128626,73,124485,Sentence_verification,0,27425,27,FALSE,z,yes,1024
0,0,1016,1016,black,no,,,,legacy,legacy,legacy,0,PO,uniform,0,0,m,27,0,0,0,0,27,0,0,0,0,27,27,0,0,27,27,,,,Thu Nov 18 2021 08:22:21 GMT+0100 (Central European Standard Time),The main experiment item,yes,,,/Users/ethan/Documents/GitHub/OpenSesame/SentenceVerification,,,,m,no,mono,no,18,no,white,no,no,768,,,legacy,legacy,osweb,1.4.0,1,,,0,None,,down,z,z,z,None,m,1017,,5242,16556,6349,3147,1017,2445,2,legacy,,,,,,,,,1637220160839,1024,2,48000,-16,experiment,Fudge is sour.,1,odd,,131609,76,76,,131093,76,5330,21903,28269,131825,132842,73,128633,Sentence_verification,0,28442,28,FALSE,z,yes,1024
0,0,1016,1016,black,no,,,,legacy,legacy,legacy,0,S1,uniform,0,0,m,28,0,0,0,0,28,0,0,0,0,28,28,0,0,28,28,,,,Thu Nov 18 2021 08:22:21 GMT+0100 (Central European Standard Time),The main experiment item,yes,,,/Users/ethan/Documents/GitHub/OpenSesame/SentenceVerification,,,,m,no,mono,no,18,no,white,no,no,768,,,legacy,legacy,osweb,1.4.0,1,,,0,None,,down,z,z,z,None,m,1017,,5242,16556,6349,3147,1017,1698,2,legacy,,,,,,,,,1637220160839,1024,2,48000,-16,experiment,Cremes are cookies.,1,odd,,135075,76,76,,134559,76,5330,21903,28269,135291,136308,73,132849,Sentence_verification,0,29459,29,FALSE,z,yes,1024
0,0,1016,1016,black,no,,,,legacy,legacy,legacy,0,SO,uniform,0,0,z,29,0,0,0,0,29,0,0,0,0,29,29,0,0,29,29,,,,Thu Nov 18 2021 08:22:21 GMT+0100 (Central European Standard Time),The main experiment item,yes,,,/Users/ethan/Documents/GitHub/OpenSesame/SentenceVerification,,,,m,no,mono,no,18,no,white,no,no,768,,,legacy,legacy,osweb,1.4.0,1,,,0,None,,down,z,z,z,None,z,1016,,5242,16556,6349,3147,1016,1642,2,legacy,,,,,,,,,1637220160839,1024,2,48000,-16,experiment,A gardenia is a gardenia. ,1,odd,,138491,76,76,,137975,76,5330,21903,28269,138707,139724,73,136316,Sentence_verification,0,30475,30,TRUE,z,yes,1024
0,0,1016,1016,black,no,,,,legacy,legacy,legacy,0,P1,uniform,0,0,m,30,0,0,0,0,30,0,0,0,0,30,30,0,0,30,30,,,,Thu Nov 18 2021 08:22:21 GMT+0100 (Central European Standard Time),The main experiment item,yes,,,/Users/ethan/Documents/GitHub/OpenSesame/SentenceVerification,,,,m,no,mono,no,18,no,white,no,no,768,,,legacy,legacy,osweb,1.4.0,1,,,0,None,,down,z,z,z,None,m,1016,,5242,16556,6349,3147,1016,2408,2,legacy,,,,,,,,,1637220160839,1024,2,48000,-16,experiment,A canoe has a sail.,1,odd,,142656,76,76,,142141,76,5330,21903,28269,142873,143889,73,139731,Sentence_verification,0,31491,31,FALSE,z,yes,1024
0,0,1016,1016,black,no,,,,legacy,legacy,legacy,0,S1,uniform,0,0,m,31,0,0,0,0,31,0,0,0,0,31,31,0,0,31,31,,,,Thu Nov 18 2021 08:22:21 GMT+0100 (Central European Standard Time),The main experiment item,yes,,,/Users/ethan/Documents/GitHub/OpenSesame/SentenceVerification,,,,m,no,mono,no,18,no,white,no,no,768,,,legacy,legacy,osweb,1.4.0,1,,,0,None,,down,z,z,z,None,m,1016,,5242,16556,6349,3147,1016,1275,2,legacy,,,,,,,,,1637220160839,1024,2,48000,-16,experiment,A submarine is a car.,1,odd,,145705,76,76,,145189,76,5330,21903,28269,145922,146938,73,143897,Sentence_verification,0,32507,32,FALSE,z,yes,1024
0,0,1016,1016,black,no,,,,legacy,legacy,legacy,0,S1,uniform,0,0,z,32,0,0,0,0,32,0,0,0,0,32,32,0,0,32,32,,,,Thu Nov 18 2021 08:22:21 GMT+0100 (Central European Standard Time),The main experiment item,yes,,,/Users/ethan/Documents/GitHub/OpenSesame/SentenceVerification,,,,m,no,mono,no,18,no,white,no,no,768,,,legacy,legacy,osweb,1.4.0,1,,,0,None,,down,z,z,z,None,z,1017,,5242,16556,6349,3147,1017,1616,2,legacy,,,,,,,,,1637220160839,1024,2,48000,-16,experiment,An orchid is a flower.,1,odd,,149088,76,76,,148572,76,5330,21903,28269,149304,150321,73,146946,Sentence_verification,0,33524,33,TRUE,z,yes,1024
0,0,1016,1016,black,no,,,,legacy,legacy,legacy,0,PO,uniform,0,0,m,33,0,0,0,0,33,0,0,0,0,33,33,0,0,33,33,,,,Thu Nov 18 2021 08:22:21 GMT+0100 (Central European Standard Time),The main experiment item,yes,,,/Users/ethan/Documents/GitHub/OpenSesame/SentenceVerification,,,,m,no,mono,no,18,no,white,no,no,768,,,legacy,legacy,osweb,1.4.0,1,,,0,None,,down,z,z,z,None,m,1016,,5242,16556,6349,3147,1016,2972,2,legacy,,,,,,,,,1637220160839,1024,2,48000,-16,experiment,Polyester is grown.,1,odd,,153820,76,76,,153308,76,5330,21903,28269,154037,155053,73,150328,Sentence_verification,0,34540,34,FALSE,z,yes,1024
0,0,1016,1016,black,no,,,,legacy,legacy,legacy,0,PO,uniform,0,0,m,34,0,0,0,0,34,0,0,0,0,34,34,0,0,34,34,,,,Thu Nov 18 2021 08:22:21 GMT+0100 (Central European Standard Time),The main experiment item,yes,,,/Users/ethan/Documents/GitHub/OpenSesame/SentenceVerification,,,,m,no,mono,no,18,no,white,no,no,768,,,legacy,legacy,osweb,1.4.0,1,,,0,None,,down,z,z,z,None,m,1017,,5242,16556,6349,3147,1017,1311,2,legacy,,,,,,,,,1637220160839,1024,2,48000,-16,experiment,A tuna is purple.,1,odd,,156903,76,76,,156386,76,5330,21903,28269,157119,158136,73,155067,Sentence_verification,0,35557,35,FALSE,z,yes,1024
0,0,1016,1016,black,no,,,,legacy,legacy,legacy,0,SO,uniform,0,0,m,35,0,0,0,0,35,0,0,0,0,35,35,0,0,35,35,,,,Thu Nov 18 2021 08:22:21 GMT+0100 (Central European Standard Time),The main experiment item,yes,,,/Users/ethan/Documents/GitHub/OpenSesame/SentenceVerification,,,,m,no,mono,no,18,no,white,no,no,768,,,legacy,legacy,osweb,1.4.0,1,,,0,None,,down,z,z,z,None,z,1016,,5242,16556,6349,3147,1016,2440,2,legacy,,,,,,,,,1637220160839,1024,2,48000,-16,experiment,A petunia is thorny.,1,odd,,161102,76,76,,160588,76,5330,21903,28269,161318,162335,73,158144,Sentence_verification,0,36573,36,FALSE,z,yes,1024
0,0,1016,1016,black,no,,,,legacy,legacy,legacy,0,PO,uniform,0,0,z,36,0,0,0,0,36,0,0,0,0,36,36,0,0,36,36,,,,Thu Nov 18 2021 08:22:21 GMT+0100 (Central European Standard Time),The main experiment item,yes,,,/Users/ethan/Documents/GitHub/OpenSesame/SentenceVerification,,,,m,no,mono,no,18,no,white,no,no,768,,,legacy,legacy,osweb,1.4.0,1,,,0,None,,down,z,z,z,None,z,1014,,5242,16556,6349,3147,1014,2988,2,legacy,,,,,,,,,1637220160839,1024,2,48000,-16,experiment,A tugboat can pull.,1,odd,,165850,76,76,,165338,76,5330,21903,28269,166069,167083,73,162341,Sentence_verification,0,37587,37,TRUE,z,yes,1024
0,0,1016,1016,black,no,,,,legacy,legacy,legacy,0,P1,uniform,0,0,m,37,0,0,0,0,37,0,0,0,0,37,37,0,0,37,37,,,,Thu Nov 18 2021 08:22:21 GMT+0100 (Central European Standard Time),The main experiment item,yes,,,/Users/ethan/Documents/GitHub/OpenSesame/SentenceVerification,,,,m,no,mono,no,18,no,white,no,no,768,,,legacy,legacy,osweb,1.4.0,1,,,0,None,,down,z,z,z,None,m,1018,,5242,16556,6349,3147,1018,1552,2,legacy,,,,,,,,,1637220160839,1024,2,48000,-16,experiment,Japan has Biden.,1,odd,,169166,76,76,,168650,76,5330,21903,28269,169382,170400,73,167088,Sentence_verification,0,38605,38,FALSE,z,yes,1024
0,0,1016,1016,black,no,,,,legacy,legacy,legacy,0,SO,uniform,0,0,m,38,0,0,0,0,38,0,0,0,0,38,38,0,0,38,38,,,,Thu Nov 18 2021 08:22:21 GMT+0100 (Central European Standard Time),The main experiment item,yes,,,/Users/ethan/Documents/GitHub/OpenSesame/SentenceVerification,,,,m,no,mono,no,18,no,white,no,no,768,,,legacy,legacy,osweb,1.4.0,1,,,0,None,,down,z,z,z,None,m,1016,,5242,16556,6349,3147,1016,1312,2,legacy,,,,,,,,,1637220160839,1024,2,48000,-16,experiment,Egypt is Europe.,1,odd,,172249,76,76,,171733,76,5330,21903,28269,172465,173482,73,170416,Sentence_verification,0,39621,39,FALSE,z,yes,1024
0,0,1016,1016,black,no,,,,legacy,legacy,legacy,0,S1,uniform,0,0,z,39,0,0,0,0,39,0,0,0,0,39,39,0,0,39,39,,,,Thu Nov 18 2021 08:22:21 GMT+0100 (Central European Standard Time),The main experiment item,yes,,,/Users/ethan/Documents/GitHub/OpenSesame/SentenceVerification,,,,m,no,mono,no,18,no,white,no,no,768,,,legacy,legacy,osweb,1.4.0,1,,,0,None,,down,z,z,z,None,z,1017,,5242,16556,6349,3147,1017,2070,2,legacy,,,,,,,,,1637220160839,1024,2,48000,-16,experiment,Velvet is a fabric.,1,odd,,176081,76,76,,175565,76,5330,21903,28269,176297,177314,73,173488,Sentence_verification,0,40638,40,TRUE,z,yes,1024
0,0,1016,1016,black,no,,,,legacy,legacy,legacy,0,P1,uniform,0,0,z,40,0,0,0,0,40,0,0,0,0,40,40,0,0,40,40,,,,Thu Nov 18 2021 08:22:21 GMT+0100 (Central European Standard Time),The main experiment item,yes,,,/Users/ethan/Documents/GitHub/OpenSesame/SentenceVerification,,,,m,no,mono,no,18,no,white,no,no,768,,,legacy,legacy,osweb,1.4.0,1,,,0,None,,down,z,z,z,None,z,1016,,5242,16556,6349,3147,1016,2159,2,legacy,,,,,,,,,1637220160839,1024,2,48000,-16,experiment,Taffy is sweet. ,1,odd,,179999,76,76,,179481,76,5330,21903,28269,180213,181230,73,177318,Sentence_verification,0,41654,41,TRUE,z,yes,1024
0,0,1016,1016,black,no,,,,legacy,legacy,legacy,0,P1,uniform,0,0,z,41,0,0,0,0,41,0,0,0,0,41,41,0,0,41,41,,,,Thu Nov 18 2021 08:22:21 GMT+0100 (Central European Standard Time),The main experiment item,yes,,,/Users/ethan/Documents/GitHub/OpenSesame/SentenceVerification,,,,m,no,mono,no,18,no,white,no,no,768,,,legacy,legacy,osweb,1.4.0,1,,,0,None,,down,z,z,z,None,z,1017,,5242,16556,6349,3147,1017,1408,2,legacy,,,,,,,,,1637220160839,1024,2,48000,-16,experiment,A shark has gills. ,1,odd,,183147,76,76,,182646,76,5330,21903,28269,183362,184379,73,181234,Sentence_verification,0,42671,42,TRUE,z,yes,1024
0,0,1016,1016,black,no,,,,legacy,legacy,legacy,0,P2,uniform,0,0,m,42,0,0,0,0,42,0,0,0,0,42,42,0,0,42,42,,,,Thu Nov 18 2021 08:22:21 GMT+0100 (Central European Standard Time),The main experiment item,yes,,,/Users/ethan/Documents/GitHub/OpenSesame/SentenceVerification,,,,m,no,mono,no,18,no,white,no,no,768,,,legacy,legacy,osweb,1.4.0,1,,,0,None,,down,z,z,z,None,m,1017,,5242,16556,6349,3147,1017,1331,2,legacy,,,,,,,,,1637220160839,1024,2,48000,-16,experiment,A brigade can fly.,1,odd,,186245,76,76,,185729,76,5330,21903,28269,186461,187478,73,184383,Sentence_verification,0,43688,43,FALSE,z,yes,1024
0,0,1016,1016,black,no,,,,legacy,legacy,legacy,0,S1,uniform,0,0,z,43,0,0,0,0,43,0,0,0,0,43,43,0,0,43,43,,,,Thu Nov 18 2021 08:22:21 GMT+0100 (Central European Standard Time),The main experiment item,yes,,,/Users/ethan/Documents/GitHub/OpenSesame/SentenceVerification,,,,m,no,mono,no,18,no,white,no,no,768,,,legacy,legacy,osweb,1.4.0,1,,,0,None,,down,z,z,z,None,z,1001,,5242,16556,6349,3147,1001,1150,2,legacy,,,,,,,,,1637220160839,1024,2,48000,-16,experiment,Tennis is a game.,1,odd,,189161,76,76,,188645,76,5330,21903,28269,189377,190378,73,187482,Sentence_verification,0,44689,44,TRUE,z,yes,1024
0,0,1016,1016,black,no,,,,legacy,legacy,legacy,0,S1,uniform,0,0,m,44,0,0,0,0,44,0,0,0,0,44,44,0,0,44,44,,,,Thu Nov 18 2021 08:22:21 GMT+0100 (Central European Standard Time),The main experiment item,yes,,,/Users/ethan/Documents/GitHub/OpenSesame/SentenceVerification,,,,m,no,mono,no,18,no,white,no,no,768,,,legacy,legacy,osweb,1.4.0,1,,,0,None,,down,z,z,z,None,m,1016,,5242,16556,6349,3147,1016,1509,2,legacy,,,,,,,,,1637220160839,1024,2,48000,-16,experiment,Football is a lottery.,1,odd,,192427,76,76,,191912,76,5330,21903,28269,192644,193660,73,190386,Sentence_verification,0,45705,45,FALSE,z,yes,1024
0,0,1016,1016,black,no,,,,legacy,legacy,legacy,0,PO,uniform,0,0,z,45,0,0,0,0,45,0,0,0,0,45,45,0,0,45,45,,,,Thu Nov 18 2021 08:22:21 GMT+0100 (Central European Standard Time),The main experiment item,yes,,,/Users/ethan/Documents/GitHub/OpenSesame/SentenceVerification,,,,m,no,mono,no,18,no,white,no,no,768,,,legacy,legacy,osweb,1.4.0,1,,,0,None,,down,z,z,z,None,z,1016,,5242,16556,6349,3147,1016,1283,2,legacy,,,,,,,,,1637220160839,1024,2,48000,-16,experiment,Football has goals. ,1,odd,,195477,76,76,,194961,76,5330,21903,28269,195693,196709,73,193668,Sentence_verification,0,46721,46,TRUE,z,yes,1024
0,0,1016,1016,black,no,,,,legacy,legacy,legacy,0,P1,uniform,0,0,m,46,0,0,0,0,46,0,0,0,0,46,46,0,0,46,46,,,,Thu Nov 18 2021 08:22:21 GMT+0100 (Central European Standard Time),The main experiment item,yes,,,/Users/ethan/Documents/GitHub/OpenSesame/SentenceVerification,,,,m,no,mono,no,18,no,white,no,no,768,,,legacy,legacy,osweb,1.4.0,1,,,0,None,,down,z,z,z,None,m,1016,,5242,16556,6349,3147,1016,1364,2,legacy,,,,,,,,,1637220160839,1024,2,48000,-16,experiment,A banana has bones.,1,odd,,198609,76,76,,198093,76,5330,21903,28269,198826,199842,73,196717,Sentence_verification,0,47737,47,FALSE,z,yes,1024
0,0,1016,1016,black,no,,,,legacy,legacy,legacy,0,S1,uniform,0,0,z,47,0,0,0,0,47,0,0,0,0,47,47,0,0,47,47,,,,Thu Nov 18 2021 08:22:21 GMT+0100 (Central European Standard Time),The main experiment item,yes,,,/Users/ethan/Documents/GitHub/OpenSesame/SentenceVerification,,,,m,no,mono,no,18,no,white,no,no,768,,,legacy,legacy,osweb,1.4.0,1,,,0,None,,down,z,z,z,None,z,1017,,5242,16556,6349,3147,1017,2840,2,legacy,,,,,,,,,1637220160839,1024,2,48000,-16,experiment,An ocean liner is a boat.,1,odd,,203208,76,76,,202693,76,5330,21903,28269,203424,204441,73,199850,Sentence_verification,0,48754,48,TRUE,z,yes,1024
0,0,1016,1016,black,no,,,,legacy,legacy,legacy,0,PO,uniform,0,0,m,48,0,0,0,0,48,0,0,0,0,48,48,0,0,48,48,,,,Thu Nov 18 2021 08:22:21 GMT+0100 (Central European Standard Time),The main experiment item,yes,,,/Users/ethan/Documents/GitHub/OpenSesame/SentenceVerification,,,,m,no,mono,no,18,no,white,no,no,768,,,legacy,legacy,osweb,1.4.0,1,,,0,None,,down,z,z,z,None,m,1017,,5242,16556,6349,3147,1017,1401,2,legacy,,,,,,,,,1637220160839,1024,2,48000,-16,experiment,A berry is large.,1,odd,,206374,76,76,,205858,76,5330,21903,28269,206590,207607,73,204448,Sentence_verification,0,49771,49,FALSE,z,yes,1024
0,0,1016,1016,black,no,,,,legacy,legacy,legacy,0,SO,uniform,0,0,m,49,0,0,0,0,49,0,0,0,0,49,49,0,0,49,49,,,,Thu Nov 18 2021 08:22:21 GMT+0100 (Central European Standard Time),The main experiment item,yes,,,/Users/ethan/Documents/GitHub/OpenSesame/SentenceVerification,,,,m,no,mono,no,18,no,white,no,no,768,,,legacy,legacy,osweb,1.4.0,1,,,0,None,,down,z,z,z,None,m,1016,,5242,16556,6349,3147,1016,3250,2,legacy,,,,,,,,,1637220160839,1024,2,48000,-16,experiment,A raft is an aircraft carrier.,1,odd,,211390,76,76,,210873,76,5330,21903,28269,211606,212622,73,207616,Sentence_verification,0,50787,50,FALSE,z,yes,1024
0,0,1016,1016,black,no,,,,legacy,legacy,legacy,0,SO,uniform,0,0,z,50,0,0,0,0,50,0,0,0,0,50,50,0,0,50,50,,,,Thu Nov 18 2021 08:22:21 GMT+0100 (Central European Standard Time),The main experiment item,yes,,,/Users/ethan/Documents/GitHub/OpenSesame/SentenceVerification,,,,m,no,mono,no,18,no,white,no,no,768,,,legacy,legacy,osweb,1.4.0,1,,,0,None,,down,z,z,z,None,z,1017,,5242,16556,6349,3147,1017,1268,2,legacy,,,,,,,,,1637220160839,1024,2,48000,-16,experiment,England is England.,1,odd,,214422,76,76,,213906,76,5330,21903,28269,214638,215655,73,212630,Sentence_verification,0,51804,51,TRUE,z,yes,1024
0,0,1016,1016,black,no,,,,legacy,legacy,legacy,0,S1,uniform,0,0,z,51,0,0,0,0,51,0,0,0,0,51,51,0,0,51,51,,,,Thu Nov 18 2021 08:22:21 GMT+0100 (Central European Standard Time),The main experiment item,yes,,,/Users/ethan/Documents/GitHub/OpenSesame/SentenceVerification,,,,m,no,mono,no,18,no,white,no,no,768,,,legacy,legacy,osweb,1.4.0,1,,,0,None,,down,z,z,z,None,z,1016,,5242,16556,6349,3147,1016,1744,2,legacy,,,,,,,,,1637220160839,1024,2,48000,-16,experiment,A revolver is a gun.,1,odd,,217938,76,76,,217422,76,5330,21903,28269,218154,219170,73,215663,Sentence_verification,0,52820,52,TRUE,z,yes,1024
0,0,1016,1016,black,no,,,,legacy,legacy,legacy,0,SO,uniform,0,0,z,52,0,0,0,0,52,0,0,0,0,52,52,0,0,52,52,,,,Thu Nov 18 2021 08:22:21 GMT+0100 (Central European Standard Time),The main experiment item,yes,,,/Users/ethan/Documents/GitHub/OpenSesame/SentenceVerification,,,,m,no,mono,no,18,no,white,no,no,768,,,legacy,legacy,osweb,1.4.0,1,,,0,None,,down,z,z,z,None,z,1016,,5242,16556,6349,3147,1016,1113,2,legacy,,,,,,,,,1637220160839,1024,2,48000,-16,experiment,Chess is chess. ,1,odd,,220821,76,76,,220307,76,5330,21903,28269,221037,222053,73,219176,Sentence_verification,0,53836,53,TRUE,z,yes,1024
0,0,1016,1016,black,no,,,,legacy,legacy,legacy,0,PO,uniform,0,0,m,53,0,0,0,0,53,0,0,0,0,53,53,0,0,53,53,,,,Thu Nov 18 2021 08:22:21 GMT+0100 (Central European Standard Time),The main experiment item,yes,,,/Users/ethan/Documents/GitHub/OpenSesame/SentenceVerification,,,,m,no,mono,no,18,no,white,no,no,768,,,legacy,legacy,osweb,1.4.0,1,,,0,None,,down,z,z,z,None,z,1017,,5242,16556,6349,3147,1017,2899,2,legacy,,,,,,,,,1637220160839,1024,2,48000,-16,experiment,Checkers has pawns.,1,odd,,225486,76,76,,224970,76,5330,21903,28269,225702,226719,73,222063,Sentence_verification,0,54853,54,FALSE,z,yes,1024
0,0,1016,1016,black,no,,,,legacy,legacy,legacy,0,SO,uniform,0,0,z,54,0,0,0,0,54,0,0,0,0,54,54,0,0,54,54,,,,Thu Nov 18 2021 08:22:21 GMT+0100 (Central European Standard Time),The main experiment item,yes,,,/Users/ethan/Documents/GitHub/OpenSesame/SentenceVerification,,,,m,no,mono,no,18,no,white,no,no,768,,,legacy,legacy,osweb,1.4.0,1,,,0,None,,down,z,z,z,None,z,1017,,5242,16556,6349,3147,1017,1343,2,legacy,,,,,,,,,1637220160839,1024,2,48000,-16,experiment,Boston is Boston. ,1,odd,,228602,76,76,,228086,76,5330,21903,28269,228818,229835,73,226727,Sentence_verification,0,55870,55,TRUE,z,yes,1024
0,0,1016,1016,black,no,,,,legacy,legacy,legacy,0,SO,uniform,0,0,z,55,0,0,0,0,55,0,0,0,0,55,55,0,0,55,55,,,,Thu Nov 18 2021 08:22:21 GMT+0100 (Central European Standard Time),The main experiment item,yes,,,/Users/ethan/Documents/GitHub/OpenSesame/SentenceVerification,,,,m,no,mono,no,18,no,white,no,no,768,,,legacy,legacy,osweb,1.4.0,1,,,0,None,,down,z,z,z,None,z,1016,,5242,16556,6349,3147,1016,1772,2,legacy,,,,,,,,,1637220160839,1024,2,48000,-16,experiment,A sailboat is a sailboat.,1,odd,,232135,76,76,,231618,76,5330,21903,28269,232351,233367,73,229843,Sentence_verification,0,56886,56,TRUE,z,yes,1024
0,0,1016,1016,black,no,,,,legacy,legacy,legacy,0,P1,uniform,0,0,z,56,0,0,0,0,56,0,0,0,0,56,56,0,0,56,56,,,,Thu Nov 18 2021 08:22:21 GMT+0100 (Central European Standard Time),The main experiment item,yes,,,/Users/ethan/Documents/GitHub/OpenSesame/SentenceVerification,,,,m,no,mono,no,18,no,white,no,no,768,,,legacy,legacy,osweb,1.4.0,1,,,0,None,,down,z,z,z,None,z,1017,,5242,16556,6349,3147,1017,1860,2,legacy,,,,,,,,,1637220160839,1024,2,48000,-16,experiment,Pittsburg has people. ,1,odd,,235767,76,76,,235251,76,5330,21903,28269,235983,237000,73,233375,Sentence_verification,0,57903,57,TRUE,z,yes,1024
0,0,1016,1016,black,no,,,,legacy,legacy,legacy,0,P1,uniform,0,0,m,57,0,0,0,0,57,0,0,0,0,57,57,0,0,57,57,,,,Thu Nov 18 2021 08:22:21 GMT+0100 (Central European Standard Time),The main experiment item,yes,,,/Users/ethan/Documents/GitHub/OpenSesame/SentenceVerification,,,,m,no,mono,no,18,no,white,no,no,768,,,legacy,legacy,osweb,1.4.0,1,,,0,None,,down,z,z,z,None,m,1017,,5242,16556,6349,3147,1017,1938,2,legacy,,,,,,,,,1637220160839,1024,2,48000,-16,experiment,A daisy is black.,1,odd,,239465,76,76,,238950,76,5330,21903,28269,239682,240699,73,237007,Sentence_verification,0,58920,58,FALSE,z,yes,1024
0,0,1016,1016,black,no,,,,legacy,legacy,legacy,0,P2,uniform,0,0,m,58,0,0,0,0,58,0,0,0,0,58,58,0,0,58,58,,,,Thu Nov 18 2021 08:22:21 GMT+0100 (Central European Standard Time),The main experiment item,yes,,,/Users/ethan/Documents/GitHub/OpenSesame/SentenceVerification,,,,m,no,mono,no,18,no,white,no,no,768,,,legacy,legacy,osweb,1.4.0,1,,,0,None,,down,z,z,z,None,z,1016,,5242,16556,6349,3147,1016,2350,2,legacy,,,,,,,,,1637220160839,1024,2,48000,-16,experiment,Bourbon is gritty.,1,odd,,243582,76,76,,243066,76,5330,21903,28269,243798,244815,73,240706,Sentence_verification,0,59936,59,FALSE,z,yes,1024
0,0,1016,1016,black,no,,,,legacy,legacy,legacy,0,S2,uniform,0,0,z,59,0,0,0,0,59,0,0,0,0,59,59,0,0,59,59,,,,Thu Nov 18 2021 08:22:21 GMT+0100 (Central European Standard Time),The main experiment item,yes,,,/Users/ethan/Documents/GitHub/OpenSesame/SentenceVerification,,,,m,no,mono,no,18,no,white,no,no,768,,,legacy,legacy,osweb,1.4.0,1,,,0,None,,down,z,z,z,None,z,1016,,5242,16556,6349,3147,1016,1537,2,legacy,,,,,,,,,1637220160839,1024,2,48000,-16,experiment,An elm is a plant.,1,odd,,246880,76,76,,246364,76,5330,21903,28269,247097,248113,73,244821,Sentence_verification,0,60952,60,TRUE,z,yes,1024
0,0,1016,1016,black,no,,,,legacy,legacy,legacy,0,P1,uniform,0,0,m,60,0,0,0,0,60,0,0,0,0,60,60,0,0,60,60,,,,Thu Nov 18 2021 08:22:21 GMT+0100 (Central European Standard Time),The main experiment item,yes,,,/Users/ethan/Documents/GitHub/OpenSesame/SentenceVerification,,,,m,no,mono,no,18,no,white,no,no,768,,,legacy,legacy,osweb,1.4.0,1,,,0,None,,down,z,z,z,None,z,1026,,5242,16556,6349,3147,1026,3597,2,legacy,,,,,,,,,1637220160839,1024,2,48000,-16,experiment,London has pig farms.,1,odd,,252256,76,76,,251730,76,5330,21903,28269,252463,253490,73,248122,Sentence_verification,0,61978,61,FALSE,z,yes,1024
0,0,1016,1016,black,no,,,,legacy,legacy,legacy,0,PO,uniform,0,0,z,61,0,0,0,0,61,0,0,0,0,61,61,0,0,61,61,,,,Thu Nov 18 2021 08:22:21 GMT+0100 (Central European Standard Time),The main experiment item,yes,,,/Users/ethan/Documents/GitHub/OpenSesame/SentenceVerification,,,,m,no,mono,no,18,no,white,no,no,768,,,legacy,legacy,osweb,1.4.0,1,,,0,None,,down,z,z,z,None,z,1017,,5242,16556,6349,3147,1017,1440,2,legacy,,,,,,,,,1637220160839,1024,2,48000,-16,experiment,A canary can sing.,1,odd,,255462,76,76,,254946,76,5330,21903,28269,255678,256695,73,253496,Sentence_verification,0,62995,62,TRUE,z,yes,1024
0,0,1016,1016,black,no,,,,legacy,legacy,legacy,0,SO,uniform,0,0,m,62,0,0,0,0,62,0,0,0,0,62,62,0,0,62,62,,,,Thu Nov 18 2021 08:22:21 GMT+0100 (Central European Standard Time),The main experiment item,yes,,,/Users/ethan/Documents/GitHub/OpenSesame/SentenceVerification,,,,m,no,mono,no,18,no,white,no,no,768,,,legacy,legacy,osweb,1.4.0,1,,,0,None,,down,z,z,z,None,m,1015,,5242,16556,6349,3147,1015,3860,2,legacy,,,,,,,,,1637220160839,1024,2,48000,-16,experiment,Hockey is a race.,1,odd,,261094,76,76,,260578,76,5330,21903,28269,261311,262327,73,256705,Sentence_verification,0,64010,63,FALSE,z,yes,1024
0,0,1016,1016,black,no,,,,legacy,legacy,legacy,0,P1,uniform,0,0,z,63,0,0,0,0,63,0,0,0,0,63,63,0,0,63,63,,,,Thu Nov 18 2021 08:22:21 GMT+0100 (Central European Standard Time),The main experiment item,yes,,,/Users/ethan/Documents/GitHub/OpenSesame/SentenceVerification,,,,m,no,mono,no,18,no,white,no,no,768,,,legacy,legacy,osweb,1.4.0,1,,,0,None,,down,z,z,z,None,z,1016,,5242,16556,6349,3147,1016,1569,2,legacy,,,,,,,,,1637220160839,1024,2,48000,-16,experiment,Basketball has rules. ,1,odd,,264427,76,76,,263911,76,5330,21903,28269,264643,265659,73,262334,Sentence_verification,0,65026,64,TRUE,z,yes,1024
0,0,1016,1016,black,no,,,,legacy,legacy,legacy,0,P1,uniform,0,0,m,64,0,0,0,0,64,0,0,0,0,64,64,0,0,64,64,,,,Thu Nov 18 2021 08:22:21 GMT+0100 (Central European Standard Time),The main experiment item,yes,,,/Users/ethan/Documents/GitHub/OpenSesame/SentenceVerification,,,,m,no,mono,no,18,no,white,no,no,768,,,legacy,legacy,osweb,1.4.0,1,,,0,None,,down,z,z,z,None,m,1016,,5242,16556,6349,3147,1016,4754,2,legacy,,,,,,,,,1637220160839,1024,2,48000,-16,experiment,Table tennis has baskets.,1,odd,,270942,76,76,,270426,76,5330,21903,28269,271158,272174,73,265666,Sentence_verification,0,66042,65,FALSE,z,yes,1024
0,0,1016,1016,black,no,,,,legacy,legacy,legacy,0,SO,uniform,0,0,z,65,0,0,0,0,65,0,0,0,0,65,65,0,0,65,65,,,,Thu Nov 18 2021 08:22:21 GMT+0100 (Central European Standard Time),The main experiment item,yes,,,/Users/ethan/Documents/GitHub/OpenSesame/SentenceVerification,,,,m,no,mono,no,18,no,white,no,no,768,,,legacy,legacy,osweb,1.4.0,1,,,0,None,,down,z,z,z,None,z,1016,,5242,16556,6349,3147,1016,1261,2,legacy,,,,,,,,,1637220160839,1024,2,48000,-16,experiment,Licorice is licorice. ,1,odd,,273974,76,76,,273458,76,5330,21903,28269,274191,275207,73,272180,Sentence_verification,0,67058,66,TRUE,z,yes,1024
0,0,1016,1016,black,no,,,,legacy,legacy,legacy,0,PO,uniform,0,0,z,66,0,0,0,0,66,0,0,0,0,66,66,0,0,66,66,,,,Thu Nov 18 2021 08:22:21 GMT+0100 (Central European Standard Time),The main experiment item,yes,,,/Users/ethan/Documents/GitHub/OpenSesame/SentenceVerification,,,,m,no,mono,no,18,no,white,no,no,768,,,legacy,legacy,osweb,1.4.0,1,,,0,None,,down,z,z,z,None,z,1016,,5242,16556,6349,3147,1016,1549,2,legacy,,,,,,,,,1637220160839,1024,2,48000,-16,experiment,A lollypop has a stick. ,1,odd,,277290,76,76,,276774,76,5330,21903,28269,277507,278523,73,275213,Sentence_verification,0,68074,67,TRUE,z,yes,1024
0,0,1016,1016,black,no,,,,legacy,legacy,legacy,0,S1,uniform,0,0,m,67,0,0,0,0,67,0,0,0,0,67,67,0,0,67,67,,,,Thu Nov 18 2021 08:22:21 GMT+0100 (Central European Standard Time),The main experiment item,yes,,,/Users/ethan/Documents/GitHub/OpenSesame/SentenceVerification,,,,m,no,mono,no,18,no,white,no,no,768,,,legacy,legacy,osweb,1.4.0,1,,,0,None,,down,z,z,z,None,m,1016,,5242,16556,6349,3147,1016,1017,2,legacy,,,,,,,,,1637220160839,1024,2,48000,-16,experiment,An apple is a building.,1,odd,,280073,76,76,,279557,76,5330,21903,28269,280289,281305,73,278530,Sentence_verification,0,69090,68,FALSE,z,yes,1024
0,0,1016,1016,black,no,,,,legacy,legacy,legacy,0,S1,uniform,0,0,m,68,0,0,0,0,68,0,0,0,0,68,68,0,0,68,68,,,,Thu Nov 18 2021 08:22:21 GMT+0100 (Central European Standard Time),The main experiment item,yes,,,/Users/ethan/Documents/GitHub/OpenSesame/SentenceVerification,,,,m,no,mono,no,18,no,white,no,no,768,,,legacy,legacy,osweb,1.4.0,1,,,0,None,,down,z,z,z,None,m,1016,,5242,16556,6349,3147,1016,1841,2,legacy,,,,,,,,,1637220160839,1024,2,48000,-16,experiment,Peru is a city.,1,odd,,283689,76,76,,283173,76,5330,21903,28269,283905,284921,73,281314,Sentence_verification,0,70106,69,FALSE,z,yes,1024
0,0,1016,1016,black,no,,,,legacy,legacy,legacy,0,P1,uniform,0,0,z,69,0,0,0,0,69,0,0,0,0,69,69,0,0,69,69,,,,Thu Nov 18 2021 08:22:21 GMT+0100 (Central European Standard Time),The main experiment item,yes,,,/Users/ethan/Documents/GitHub/OpenSesame/SentenceVerification,,,,m,no,mono,no,18,no,white,no,no,768,,,legacy,legacy,osweb,1.4.0,1,,,0,None,,down,z,z,z,None,m,1017,,5242,16556,6349,3147,1017,3055,2,legacy,,,,,,,,,1637220160839,1024,2,48000,-16,experiment,A schooner has a rudder.,1,odd,,288504,76,76,,287988,76,5330,21903,28269,288720,289737,73,284928,Sentence_verification,0,71123,70,TRUE,z,yes,1024
0,0,1016,1016,black,no,,,,legacy,legacy,legacy,0,SO,uniform,0,0,m,70,0,0,0,0,70,0,0,0,0,70,70,0,0,70,70,,,,Thu Nov 18 2021 08:22:21 GMT+0100 (Central European Standard Time),The main experiment item,yes,,,/Users/ethan/Documents/GitHub/OpenSesame/SentenceVerification,,,,m,no,mono,no,18,no,white,no,no,768,,,legacy,legacy,osweb,1.4.0,1,,,0,None,,down,z,z,z,None,m,1016,,5242,16556,6349,3147,1016,2450,2,legacy,,,,,,,,,1637220160839,1024,2,48000,-16,experiment,Canvas is wool.,1,odd,,292720,76,76,,292204,76,5330,21903,28269,292936,293952,73,289742,Sentence_verification,0,72139,71,FALSE,z,yes,1024
0,0,1016,1016,black,no,,,,legacy,legacy,legacy,0,S1,uniform,0,0,m,71,0,0,0,0,71,0,0,0,0,71,71,0,0,71,71,,,,Thu Nov 18 2021 08:22:21 GMT+0100 (Central European Standard Time),The main experiment item,yes,,,/Users/ethan/Documents/GitHub/OpenSesame/SentenceVerification,,,,m,no,mono,no,18,no,white,no,no,768,,,legacy,legacy,osweb,1.4.0,1,,,0,None,,down,z,z,z,None,m,1014,,5242,16556,6349,3147,1014,1528,2,legacy,,,,,,,,,1637220160839,1024,2,48000,-16,experiment,A mockingbird is a snake.,1,odd,,296019,76,76,,295503,76,5330,21903,28269,296238,297252,73,293959,Sentence_verification,0,73153,72,FALSE,z,yes,1024
0,0,1016,1016,black,no,,,,legacy,legacy,legacy,0,S1,uniform,0,0,z,72,0,0,0,0,72,0,0,0,0,72,72,0,0,72,72,,,,Thu Nov 18 2021 08:22:21 GMT+0100 (Central European Standard Time),The main experiment item,yes,,,/Users/ethan/Documents/GitHub/OpenSesame/SentenceVerification,,,,m,no,mono,no,18,no,white,no,no,768,,,legacy,legacy,osweb,1.4.0,1,,,0,None,,down,z,z,z,None,z,1017,,5242,16556,6349,3147,1017,1247,2,legacy,,,,,,,,,1637220160839,1024,2,48000,-16,experiment,Baltimore is a city.,1,odd,,299035,76,76,,298519,76,5330,21903,28269,299251,300268,73,297259,Sentence_verification,0,74170,73,TRUE,z,yes,1024
0,0,1016,1016,black,no,,,,legacy,legacy,legacy,0,PO,uniform,0,0,m,73,0,0,0,0,73,0,0,0,0,73,73,0,0,73,73,,,,Thu Nov 18 2021 08:22:21 GMT+0100 (Central European Standard Time),The main experiment item,yes,,,/Users/ethan/Documents/GitHub/OpenSesame/SentenceVerification,,,,m,no,mono,no,18,no,white,no,no,768,,,legacy,legacy,osweb,1.4.0,1,,,0,None,,down,z,z,z,None,m,1017,,5242,16556,6349,3147,1017,2568,2,legacy,,,,,,,,,1637220160839,1024,2,48000,-16,experiment,Miami has snow.,1,odd,,303367,76,76,,302851,76,5330,21903,28269,303583,304600,73,300276,Sentence_verification,0,75187,74,FALSE,z,yes,1024
0,0,1016,1016,black,no,,,,legacy,legacy,legacy,0,S1,uniform,0,0,m,74,0,0,0,0,74,0,0,0,0,74,74,0,0,74,74,,,,Thu Nov 18 2021 08:22:21 GMT+0100 (Central European Standard Time),The main experiment item,yes,,,/Users/ethan/Documents/GitHub/OpenSesame/SentenceVerification,,,,m,no,mono,no,18,no,white,no,no,768,,,legacy,legacy,osweb,1.4.0,1,,,0,None,,down,z,z,z,None,m,1016,,5242,16556,6349,3147,1016,1940,2,legacy,,,,,,,,,1637220160839,1024,2,48000,-16,experiment,A catfish is a whale.,1,odd,,307083,76,76,,306567,76,5330,21903,28269,307299,308316,73,304610,Sentence_verification,0,76203,75,FALSE,z,yes,1024
0,0,1016,1016,black,no,,,,legacy,legacy,legacy,0,P1,uniform,0,0,z,75,0,0,0,0,75,0,0,0,0,75,75,0,0,75,75,,,,Thu Nov 18 2021 08:22:21 GMT+0100 (Central European Standard Time),The main experiment item,yes,,,/Users/ethan/Documents/GitHub/OpenSesame/SentenceVerification,,,,m,no,mono,no,18,no,white,no,no,768,,,legacy,legacy,osweb,1.4.0,1,,,0,None,,down,z,z,z,None,z,1016,,5242,16556,6349,3147,1016,1187,2,legacy,,,,,,,,,1637220160839,1024,2,48000,-16,experiment,Italy has borders.,1,odd,,310032,76,76,,309516,76,5330,21903,28269,310249,311265,73,308323,Sentence_verification,0,77219,76,TRUE,z,yes,1024
0,0,1017,1017,black,no,,,,legacy,legacy,legacy,0,S1,uniform,0,0,z,0,0,0,0,0,0,0,0,0,0,0,0,0,0,0,0,,,,Thu Nov 18 2021 08:21:12 GMT+0100 (Centraleuropisk normaltid),The main experiment item,yes,,,/Users/ethan/Documents/GitHub/OpenSesame/SentenceVerification,,,,z,no,mono,no,18,no,white,no,no,768,,,legacy,legacy,osweb,1.4.0,1,,,0,None,,right,right,right,right,None,z,1017,,5953,5279,5084,2777,1017,1151,2,legacy,,,,,,,,,1637220153452,1024,2,48000,-16,experiment,A submarine is a car.,0,even,,20860,53,53,,20345,53,6014,11296,16395,21076,22093,51,19189,Sentence_verification,0,1017,1,FALSE,m,yes,1024
0,0,1017,1017,black,no,,,,legacy,legacy,legacy,0,PO,uniform,0,0,z,1,0,0,0,0,1,0,0,0,0,1,1,0,0,1,1,,,,Thu Nov 18 2021 08:21:12 GMT+0100 (Centraleuropisk normaltid),The main experiment item,yes,,,/Users/ethan/Documents/GitHub/OpenSesame/SentenceVerification,,,,z,no,mono,no,18,no,white,no,no,768,,,legacy,legacy,osweb,1.4.0,1,,,0,None,,right,right,right,right,None,z,1017,,5953,5279,5084,2777,1017,1092,2,legacy,,,,,,,,,1637220153452,1024,2,48000,-16,experiment,A rose has bark.,0,even,,23726,53,53,,23210,53,6014,11296,16395,23942,24959,51,22104,Sentence_verification,0,2034,2,FALSE,m,yes,1024
0,0,1017,1017,black,no,,,,legacy,legacy,legacy,0,PO,uniform,0,0,m,2,0,0,0,0,2,0,0,0,0,2,2,0,0,2,2,,,,Thu Nov 18 2021 08:21:12 GMT+0100 (Centraleuropisk normaltid),The main experiment item,yes,,,/Users/ethan/Documents/GitHub/OpenSesame/SentenceVerification,,,,z,no,mono,no,18,no,white,no,no,768,,,legacy,legacy,osweb,1.4.0,1,,,0,None,,right,right,right,right,None,m,1017,,5953,5279,5084,2777,1017,1055,2,legacy,,,,,,,,,1637220153452,1024,2,48000,-16,experiment,San Francisco has fog. ,0,even,,26559,53,53,,26045,53,6014,11296,16395,26775,27792,51,24974,Sentence_verification,0,3051,3,TRUE,m,yes,1024
0,0,1017,1017,black,no,,,,legacy,legacy,legacy,0,P1,uniform,0,0,z,3,0,0,0,0,3,0,0,0,0,3,3,0,0,3,3,,,,Thu Nov 18 2021 08:21:12 GMT+0100 (Centraleuropisk normaltid),The main experiment item,yes,,,/Users/ethan/Documents/GitHub/OpenSesame/SentenceVerification,,,,z,no,mono,no,18,no,white,no,no,768,,,legacy,legacy,osweb,1.4.0,1,,,0,None,,right,right,right,right,None,z,1017,,5953,5279,5084,2777,1017,1106,2,legacy,,,,,,,,,1637220153452,1024,2,48000,-16,experiment,Mints are salty.,0,even,,29442,53,53,,28927,53,6014,11296,16395,29658,30675,51,27804,Sentence_verification,0,4068,4,FALSE,m,yes,1024
0,0,1017,1017,black,no,,,,legacy,legacy,legacy,0,SO,uniform,0,0,z,4,0,0,0,0,4,0,0,0,0,4,4,0,0,4,4,,,,Thu Nov 18 2021 08:21:12 GMT+0100 (Centraleuropisk normaltid),The main experiment item,yes,,,/Users/ethan/Documents/GitHub/OpenSesame/SentenceVerification,,,,z,no,mono,no,18,no,white,no,no,768,,,legacy,legacy,osweb,1.4.0,1,,,0,None,,right,right,right,right,None,z,1016,,5953,5279,5084,2777,1016,929,2,legacy,,,,,,,,,1637220153452,1024,2,48000,-16,experiment,Canvas is wool.,0,even,,32141,53,53,,31625,53,6014,11296,16395,32358,33375,51,30683,Sentence_verification,0,5084,5,FALSE,m,yes,1024
0,0,1017,1017,black,no,,,,legacy,legacy,legacy,0,S2,uniform,0,0,z,5,0,0,0,0,5,0,0,0,0,5,5,0,0,5,5,,,,Thu Nov 18 2021 08:21:12 GMT+0100 (Centraleuropisk normaltid),The main experiment item,yes,,,/Users/ethan/Documents/GitHub/OpenSesame/SentenceVerification,,,,z,no,mono,no,18,no,white,no,no,768,,,legacy,legacy,osweb,1.4.0,1,,,0,None,,right,right,right,right,None,z,1016,,5953,5279,5084,2777,1016,2844,2,legacy,,,,,,,,,1637220153452,1024,2,48000,-16,experiment,A general is a monkey.,0,even,,36758,53,53,,36241,53,6014,11296,16395,36974,37991,51,33385,Sentence_verification,0,6100,6,FALSE,m,yes,1024
0,0,1017,1017,black,no,,,,legacy,legacy,legacy,0,PO,uniform,0,0,m,6,0,0,0,0,6,0,0,0,0,6,6,0,0,6,6,,,,Thu Nov 18 2021 08:21:12 GMT+0100 (Centraleuropisk normaltid),The main experiment item,yes,,,/Users/ethan/Documents/GitHub/OpenSesame/SentenceVerification,,,,z,no,mono,no,18,no,white,no,no,768,,,legacy,legacy,osweb,1.4.0,1,,,0,None,,right,right,right,right,None,m,1016,,5953,5279,5084,2777,1016,1220,2,legacy,,,,,,,,,1637220153452,1024,2,48000,-16,experiment,France has DeGaulle.,0,even,,39740,53,53,,39225,53,6014,11296,16395,39957,40973,51,38001,Sentence_verification,0,7116,7,TRUE,m,yes,1024
0,0,1017,1017,black,no,,,,legacy,legacy,legacy,0,P1,uniform,0,0,z,7,0,0,0,0,7,0,0,0,0,7,7,0,0,7,7,,,,Thu Nov 18 2021 08:21:12 GMT+0100 (Centraleuropisk normaltid),The main experiment item,yes,,,/Users/ethan/Documents/GitHub/OpenSesame/SentenceVerification,,,,z,no,mono,no,18,no,white,no,no,768,,,legacy,legacy,osweb,1.4.0,1,,,0,None,,right,right,right,right,None,z,1017,,5953,5279,5084,2777,1017,2224,2,legacy,,,,,,,,,1637220153452,1024,2,48000,-16,experiment,A canoe has a sail.,0,even,,43723,53,53,,43207,53,6014,11296,16395,43939,44956,51,40981,Sentence_verification,0,8133,8,FALSE,m,yes,1024
0,0,1017,1017,black,no,,,,legacy,legacy,legacy,0,P1,uniform,0,0,z,8,0,0,0,0,8,0,0,0,0,8,8,0,0,8,8,,,,Thu Nov 18 2021 08:21:12 GMT+0100 (Centraleuropisk normaltid),The main experiment item,yes,,,/Users/ethan/Documents/GitHub/OpenSesame/SentenceVerification,,,,z,no,mono,no,18,no,white,no,no,768,,,legacy,legacy,osweb,1.4.0,1,,,0,None,,right,right,right,right,None,z,1017,,5953,5279,5084,2777,1017,989,2,legacy,,,,,,,,,1637220153452,1024,2,48000,-16,experiment,Japan has Biden.,0,even,,46489,53,53,,45974,53,6014,11296,16395,46705,47723,51,44968,Sentence_verification,0,9150,9,FALSE,m,yes,1024
0,0,1017,1017,black,no,,,,legacy,legacy,legacy,0,S1,uniform,0,0,z,9,0,0,0,0,9,0,0,0,0,9,9,0,0,9,9,,,,Thu Nov 18 2021 08:21:12 GMT+0100 (Centraleuropisk normaltid),The main experiment item,yes,,,/Users/ethan/Documents/GitHub/OpenSesame/SentenceVerification,,,,z,no,mono,no,18,no,white,no,no,768,,,legacy,legacy,osweb,1.4.0,1,,,0,None,,right,right,right,right,None,z,1016,,5953,5279,5084,2777,1016,1367,2,legacy,,,,,,,,,1637220153452,1024,2,48000,-16,experiment,A catfish is a whale.,0,even,,49622,53,53,,49106,53,6014,11296,16395,49838,50855,51,47733,Sentence_verification,0,10166,10,FALSE,m,yes,1024
0,0,1017,1017,black,no,,,,legacy,legacy,legacy,0,SO,uniform,0,0,m,10,0,0,0,0,10,0,0,0,0,10,10,0,0,10,10,,,,Thu Nov 18 2021 08:21:12 GMT+0100 (Centraleuropisk normaltid),The main experiment item,yes,,,/Users/ethan/Documents/GitHub/OpenSesame/SentenceVerification,,,,z,no,mono,no,18,no,white,no,no,768,,,legacy,legacy,osweb,1.4.0,1,,,0,None,,right,right,right,right,None,m,1016,,5953,5279,5084,2777,1016,791,2,legacy,,,,,,,,,1637220153452,1024,2,48000,-16,experiment,England is England.,0,even,,52171,53,53,,51655,53,6014,11296,16395,52388,53407,51,50861,Sentence_verification,0,11182,11,TRUE,m,yes,1024
0,0,1017,1017,black,no,,,,legacy,legacy,legacy,0,P1,uniform,0,0,z,11,0,0,0,0,11,0,0,0,0,11,11,0,0,11,11,,,,Thu Nov 18 2021 08:21:12 GMT+0100 (Centraleuropisk normaltid),The main experiment item,yes,,,/Users/ethan/Documents/GitHub/OpenSesame/SentenceVerification,,,,z,no,mono,no,18,no,white,no,no,768,,,legacy,legacy,osweb,1.4.0,1,,,0,None,,right,right,right,right,None,z,1017,,5953,5279,5084,2777,1017,1630,2,legacy,,,,,,,,,1637220153452,1024,2,48000,-16,experiment,A daisy is black.,0,even,,55571,53,53,,55055,53,6014,11296,16395,55787,56804,51,53414,Sentence_verification,0,12199,12,FALSE,m,yes,1024
0,0,1017,1017,black,no,,,,legacy,legacy,legacy,0,SO,uniform,0,0,m,12,0,0,0,0,12,0,0,0,0,12,12,0,0,12,12,,,,Thu Nov 18 2021 08:21:12 GMT+0100 (Centraleuropisk normaltid),The main experiment item,yes,,,/Users/ethan/Documents/GitHub/OpenSesame/SentenceVerification,,,,z,no,mono,no,18,no,white,no,no,768,,,legacy,legacy,osweb,1.4.0,1,,,0,None,,right,right,right,right,None,m,1017,,5953,5279,5084,2777,1017,864,2,legacy,,,,,,,,,1637220153452,1024,2,48000,-16,experiment,A sailboat is a sailboat.,0,even,,58204,53,53,,57688,53,6014,11296,16395,58420,59437,51,56813,Sentence_verification,0,13216,13,TRUE,m,yes,1024
0,0,1017,1017,black,no,,,,legacy,legacy,legacy,0,S1,uniform,0,0,z,13,0,0,0,0,13,0,0,0,0,13,13,0,0,13,13,,,,Thu Nov 18 2021 08:21:12 GMT+0100 (Centraleuropisk normaltid),The main experiment item,yes,,,/Users/ethan/Documents/GitHub/OpenSesame/SentenceVerification,,,,z,no,mono,no,18,no,white,no,no,768,,,legacy,legacy,osweb,1.4.0,1,,,0,None,,right,right,right,right,None,z,1017,,5953,5279,5084,2777,1017,1656,2,legacy,,,,,,,,,1637220153452,1024,2,48000,-16,experiment,A mockingbird is a snake.,0,even,,61619,53,53,,61104,53,6014,11296,16395,61836,62853,51,59445,Sentence_verification,0,14233,14,FALSE,m,yes,1024
0,0,1017,1017,black,no,,,,legacy,legacy,legacy,0,SO,uniform,0,0,m,14,0,0,0,0,14,0,0,0,0,14,14,0,0,14,14,,,,Thu Nov 18 2021 08:21:12 GMT+0100 (Centraleuropisk normaltid),The main experiment item,yes,,,/Users/ethan/Documents/GitHub/OpenSesame/SentenceVerification,,,,z,no,mono,no,18,no,white,no,no,768,,,legacy,legacy,osweb,1.4.0,1,,,0,None,,right,right,right,right,None,m,1016,,5953,5279,5084,2777,1016,698,2,legacy,,,,,,,,,1637220153452,1024,2,48000,-16,experiment,Chess is chess. ,0,even,,64086,53,53,,63571,53,6014,11296,16395,64303,65319,51,62859,Sentence_verification,0,15249,15,TRUE,m,yes,1024
0,0,1017,1017,black,no,,,,legacy,legacy,legacy,0,P1,uniform,0,0,m,15,0,0,0,0,15,0,0,0,0,15,15,0,0,15,15,,,,Thu Nov 18 2021 08:21:12 GMT+0100 (Centraleuropisk normaltid),The main experiment item,yes,,,/Users/ethan/Documents/GitHub/OpenSesame/SentenceVerification,,,,z,no,mono,no,18,no,white,no,no,768,,,legacy,legacy,osweb,1.4.0,1,,,0,None,,right,right,right,right,None,m,1017,,5953,5279,5084,2777,1017,1220,2,legacy,,,,,,,,,1637220153452,1024,2,48000,-16,experiment,Silk is woven.,0,even,,67069,53,53,,66553,53,6014,11296,16395,67285,68302,51,65328,Sentence_verification,0,16266,16,TRUE,m,yes,1024
0,0,1017,1017,black,no,,,,legacy,legacy,legacy,0,PO,uniform,0,0,m,16,0,0,0,0,16,0,0,0,0,16,16,0,0,16,16,,,,Thu Nov 18 2021 08:21:12 GMT+0100 (Centraleuropisk normaltid),The main experiment item,yes,,,/Users/ethan/Documents/GitHub/OpenSesame/SentenceVerification,,,,z,no,mono,no,18,no,white,no,no,768,,,legacy,legacy,osweb,1.4.0,1,,,0,None,,right,right,right,right,None,m,1017,,5953,5279,5084,2777,1017,1021,2,legacy,,,,,,,,,1637220153452,1024,2,48000,-16,experiment,A sunflower is yellow. ,0,even,,69853,53,53,,69336,53,6014,11296,16395,70068,71085,51,68311,Sentence_verification,0,17283,17,TRUE,m,yes,1024
0,0,1017,1017,black,no,,,,legacy,legacy,legacy,0,P2,uniform,0,0,z,17,0,0,0,0,17,0,0,0,0,17,17,0,0,17,17,,,,Thu Nov 18 2021 08:21:12 GMT+0100 (Centraleuropisk normaltid),The main experiment item,yes,,,/Users/ethan/Documents/GitHub/OpenSesame/SentenceVerification,,,,z,no,mono,no,18,no,white,no,no,768,,,legacy,legacy,osweb,1.4.0,1,,,0,None,,right,right,right,right,None,z,1017,,5953,5279,5084,2777,1017,951,2,legacy,,,,,,,,,1637220153452,1024,2,48000,-16,experiment,A brigade can fly.,0,even,,72568,53,53,,72052,53,6014,11296,16395,72784,73801,51,71094,Sentence_verification,0,18300,18,FALSE,m,yes,1024
0,0,1017,1017,black,no,,,,legacy,legacy,legacy,0,S1,uniform,0,0,z,18,0,0,0,0,18,0,0,0,0,18,18,0,0,18,18,,,,Thu Nov 18 2021 08:21:12 GMT+0100 (Centraleuropisk normaltid),The main experiment item,yes,,,/Users/ethan/Documents/GitHub/OpenSesame/SentenceVerification,,,,z,no,mono,no,18,no,white,no,no,768,,,legacy,legacy,osweb,1.4.0,1,,,0,None,,right,right,right,right,None,m,1016,,5953,5279,5084,2777,1016,810,2,legacy,,,,,,,,,1637220153452,1024,2,48000,-16,experiment,Peru is a city.,0,even,,75152,53,53,,74635,53,6014,11296,16395,75368,76384,51,73811,Sentence_verification,0,19316,19,FALSE,m,yes,1024
0,0,1017,1017,black,no,,,,legacy,legacy,legacy,0,S2,uniform,0,0,m,19,0,0,0,0,19,0,0,0,0,19,19,0,0,19,19,,,,Thu Nov 18 2021 08:21:12 GMT+0100 (Centraleuropisk normaltid),The main experiment item,yes,,,/Users/ethan/Documents/GitHub/OpenSesame/SentenceVerification,,,,z,no,mono,no,18,no,white,no,no,768,,,legacy,legacy,osweb,1.4.0,1,,,0,None,,right,right,right,right,None,m,1017,,5953,5279,5084,2777,1017,1217,2,legacy,,,,,,,,,1637220153452,1024,2,48000,-16,experiment,Vermouth is liquid.,0,even,,78134,53,53,,77618,53,6014,11296,16395,78350,79367,51,76396,Sentence_verification,0,20333,20,TRUE,m,yes,1024
0,0,1017,1017,black,no,,,,legacy,legacy,legacy,0,P1,uniform,0,0,m,20,0,0,0,0,20,0,0,0,0,20,20,0,0,20,20,,,,Thu Nov 18 2021 08:21:12 GMT+0100 (Centraleuropisk normaltid),The main experiment item,yes,,,/Users/ethan/Documents/GitHub/OpenSesame/SentenceVerification,,,,z,no,mono,no,18,no,white,no,no,768,,,legacy,legacy,osweb,1.4.0,1,,,0,None,,right,right,right,right,None,m,1016,,5953,5279,5084,2777,1016,1029,2,legacy,,,,,,,,,1637220153452,1024,2,48000,-16,experiment,Pittsburg has people. ,0,even,,80933,53,53,,80418,53,6014,11296,16395,81150,82166,51,79376,Sentence_verification,0,21349,21,TRUE,m,yes,1024
0,0,1017,1017,black,no,,,,legacy,legacy,legacy,0,PO,uniform,0,0,z,21,0,0,0,0,21,0,0,0,0,21,21,0,0,21,21,,,,Thu Nov 18 2021 08:21:12 GMT+0100 (Centraleuropisk normaltid),The main experiment item,yes,,,/Users/ethan/Documents/GitHub/OpenSesame/SentenceVerification,,,,z,no,mono,no,18,no,white,no,no,768,,,legacy,legacy,osweb,1.4.0,1,,,0,None,,right,right,right,right,None,z,1016,,5953,5279,5084,2777,1016,1142,2,legacy,,,,,,,,,1637220153452,1024,2,48000,-16,experiment,A tuna is purple.,0,even,,83850,53,53,,83334,53,6014,11296,16395,84066,85082,51,82175,Sentence_verification,0,22365,22,FALSE,m,yes,1024
0,0,1017,1017,black,no,,,,legacy,legacy,legacy,0,S2,uniform,0,0,m,22,0,0,0,0,22,0,0,0,0,22,22,0,0,22,22,,,,Thu Nov 18 2021 08:21:12 GMT+0100 (Centraleuropisk normaltid),The main experiment item,yes,,,/Users/ethan/Documents/GitHub/OpenSesame/SentenceVerification,,,,z,no,mono,no,18,no,white,no,no,768,,,legacy,legacy,osweb,1.4.0,1,,,0,None,,right,right,right,right,None,m,1016,,5953,5279,5084,2777,1016,1278,2,legacy,,,,,,,,,1637220153452,1024,2,48000,-16,experiment,A corporal is a person.,0,even,,86882,53,53,,86366,53,6014,11296,16395,87099,88115,51,85087,Sentence_verification,0,23381,23,TRUE,m,yes,1024
0,0,1017,1017,black,no,,,,legacy,legacy,legacy,0,S1,uniform,0,0,m,23,0,0,0,0,23,0,0,0,0,23,23,0,0,23,23,,,,Thu Nov 18 2021 08:21:12 GMT+0100 (Centraleuropisk normaltid),The main experiment item,yes,,,/Users/ethan/Documents/GitHub/OpenSesame/SentenceVerification,,,,z,no,mono,no,18,no,white,no,no,768,,,legacy,legacy,osweb,1.4.0,1,,,0,None,,right,right,right,right,None,m,1017,,5953,5279,5084,2777,1017,882,2,legacy,,,,,,,,,1637220153452,1024,2,48000,-16,experiment,A parrot is a bird.,0,even,,89532,53,53,,89016,53,6014,11296,16395,89748,90765,51,88122,Sentence_verification,0,24398,24,TRUE,m,yes,1024
0,0,1017,1017,black,no,,,,legacy,legacy,legacy,0,P1,uniform,0,0,m,24,0,0,0,0,24,0,0,0,0,24,24,0,0,24,24,,,,Thu Nov 18 2021 08:21:12 GMT+0100 (Centraleuropisk normaltid),The main experiment item,yes,,,/Users/ethan/Documents/GitHub/OpenSesame/SentenceVerification,,,,z,no,mono,no,18,no,white,no,no,768,,,legacy,legacy,osweb,1.4.0,1,,,0,None,,right,right,right,right,None,m,1017,,5953,5279,5084,2777,1017,664,2,legacy,,,,,,,,,1637220153452,1024,2,48000,-16,experiment,A pistol can fire. ,0,even,,91965,53,53,,91449,53,6014,11296,16395,92181,93198,51,90773,Sentence_verification,0,25415,25,TRUE,m,yes,1024
0,0,1017,1017,black,no,,,,legacy,legacy,legacy,0,S1,uniform,0,0,m,25,0,0,0,0,25,0,0,0,0,25,25,0,0,25,25,,,,Thu Nov 18 2021 08:21:12 GMT+0100 (Centraleuropisk normaltid),The main experiment item,yes,,,/Users/ethan/Documents/GitHub/OpenSesame/SentenceVerification,,,,z,no,mono,no,18,no,white,no,no,768,,,legacy,legacy,osweb,1.4.0,1,,,0,None,,right,right,right,right,None,m,1016,,5953,5279,5084,2777,1016,686,2,legacy,,,,,,,,,1637220153452,1024,2,48000,-16,experiment,Belgium is a nation.,0,even,,94415,53,53,,93898,53,6014,11296,16395,94631,95648,51,93207,Sentence_verification,0,26431,26,TRUE,m,yes,1024
0,0,1017,1017,black,no,,,,legacy,legacy,legacy,0,SO,uniform,0,0,m,26,0,0,0,0,26,0,0,0,0,26,26,0,0,26,26,,,,Thu Nov 18 2021 08:21:12 GMT+0100 (Centraleuropisk normaltid),The main experiment item,yes,,,/Users/ethan/Documents/GitHub/OpenSesame/SentenceVerification,,,,z,no,mono,no,18,no,white,no,no,768,,,legacy,legacy,osweb,1.4.0,1,,,0,None,,right,right,right,right,None,m,1017,,5953,5279,5084,2777,1017,758,2,legacy,,,,,,,,,1637220153452,1024,2,48000,-16,experiment,A gardenia is a gardenia. ,0,even,,96931,53,53,,96416,53,6014,11296,16395,97147,98164,51,95656,Sentence_verification,0,27448,27,TRUE,m,yes,1024
0,0,1017,1017,black,no,,,,legacy,legacy,legacy,0,S1,uniform,0,0,m,27,0,0,0,0,27,0,0,0,0,27,27,0,0,27,27,,,,Thu Nov 18 2021 08:21:12 GMT+0100 (Centraleuropisk normaltid),The main experiment item,yes,,,/Users/ethan/Documents/GitHub/OpenSesame/SentenceVerification,,,,z,no,mono,no,18,no,white,no,no,768,,,legacy,legacy,osweb,1.4.0,1,,,0,None,,right,right,right,right,None,m,1016,,5953,5279,5084,2777,1016,729,2,legacy,,,,,,,,,1637220153452,1024,2,48000,-16,experiment,Tennis is a game.,0,even,,99430,53,53,,98915,53,6014,11296,16395,99647,100663,51,98172,Sentence_verification,0,28464,28,TRUE,m,yes,1024
0,0,1017,1017,black,no,,,,legacy,legacy,legacy,0,SO,uniform,0,0,z,28,0,0,0,0,28,0,0,0,0,28,28,0,0,28,28,,,,Thu Nov 18 2021 08:21:12 GMT+0100 (Centraleuropisk normaltid),The main experiment item,yes,,,/Users/ethan/Documents/GitHub/OpenSesame/SentenceVerification,,,,z,no,mono,no,18,no,white,no,no,768,,,legacy,legacy,osweb,1.4.0,1,,,0,None,,right,right,right,right,None,z,1016,,5953,5279,5084,2777,1016,845,2,legacy,,,,,,,,,1637220153452,1024,2,48000,-16,experiment,An apple is an orange.,0,even,,102047,53,53,,101531,53,6014,11296,16395,102263,103280,51,100672,Sentence_verification,0,29480,29,FALSE,m,yes,1024
0,0,1017,1017,black,no,,,,legacy,legacy,legacy,0,S1,uniform,0,0,z,29,0,0,0,0,29,0,0,0,0,29,29,0,0,29,29,,,,Thu Nov 18 2021 08:21:12 GMT+0100 (Centraleuropisk normaltid),The main experiment item,yes,,,/Users/ethan/Documents/GitHub/OpenSesame/SentenceVerification,,,,z,no,mono,no,18,no,white,no,no,768,,,legacy,legacy,osweb,1.4.0,1,,,0,None,,right,right,right,right,None,m,1017,,5953,5279,5084,2777,1017,749,2,legacy,,,,,,,,,1637220153452,1024,2,48000,-16,experiment,Aarhus is a region.,0,even,,104563,53,53,,104049,53,6014,11296,16395,104779,105796,51,103288,Sentence_verification,0,30497,30,FALSE,m,yes,1024
0,0,1017,1017,black,no,,,,legacy,legacy,legacy,0,PO,uniform,0,0,z,30,0,0,0,0,30,0,0,0,0,30,30,0,0,30,30,,,,Thu Nov 18 2021 08:21:12 GMT+0100 (Centraleuropisk normaltid),The main experiment item,yes,,,/Users/ethan/Documents/GitHub/OpenSesame/SentenceVerification,,,,z,no,mono,no,18,no,white,no,no,768,,,legacy,legacy,osweb,1.4.0,1,,,0,None,,right,right,right,right,None,z,1016,,5953,5279,5084,2777,1016,816,2,legacy,,,,,,,,,1637220153452,1024,2,48000,-16,experiment,A crow is green.,0,even,,107146,53,53,,106630,53,6014,11296,16395,107362,108378,51,105805,Sentence_verification,0,31513,31,FALSE,m,yes,1024
0,0,1017,1017,black,no,,,,legacy,legacy,legacy,0,SO,uniform,0,0,z,31,0,0,0,0,31,0,0,0,0,31,31,0,0,31,31,,,,Thu Nov 18 2021 08:21:12 GMT+0100 (Centraleuropisk normaltid),The main experiment item,yes,,,/Users/ethan/Documents/GitHub/OpenSesame/SentenceVerification,,,,z,no,mono,no,18,no,white,no,no,768,,,legacy,legacy,osweb,1.4.0,1,,,0,None,,right,right,right,right,None,z,1017,,5953,5279,5084,2777,1017,1069,2,legacy,,,,,,,,,1637220153452,1024,2,48000,-16,experiment,A parakeet is an eagle.,0,even,,109979,53,53,,109462,53,6014,11296,16395,110195,111212,51,108383,Sentence_verification,0,32530,32,FALSE,m,yes,1024
0,0,1017,1017,black,no,,,,legacy,legacy,legacy,0,P1,uniform,0,0,m,32,0,0,0,0,32,0,0,0,0,32,32,0,0,32,32,,,,Thu Nov 18 2021 08:21:12 GMT+0100 (Centraleuropisk normaltid),The main experiment item,yes,,,/Users/ethan/Documents/GitHub/OpenSesame/SentenceVerification,,,,z,no,mono,no,18,no,white,no,no,768,,,legacy,legacy,osweb,1.4.0,1,,,0,None,,right,right,right,right,None,z,1016,,5953,5279,5084,2777,1016,753,2,legacy,,,,,,,,,1637220153452,1024,2,48000,-16,experiment,A shark has gills. ,0,even,,112494,53,53,,111979,53,6014,11296,16395,112711,113727,51,111220,Sentence_verification,0,33546,33,TRUE,m,yes,1024
0,0,1017,1017,black,no,,,,legacy,legacy,legacy,0,P1,uniform,0,0,z,33,0,0,0,0,33,0,0,0,0,33,33,0,0,33,33,,,,Thu Nov 18 2021 08:21:12 GMT+0100 (Centraleuropisk normaltid),The main experiment item,yes,,,/Users/ethan/Documents/GitHub/OpenSesame/SentenceVerification,,,,z,no,mono,no,18,no,white,no,no,768,,,legacy,legacy,osweb,1.4.0,1,,,0,None,,right,right,right,right,None,z,1016,,5953,5279,5084,2777,1016,992,2,legacy,,,,,,,,,1637220153452,1024,2,48000,-16,experiment,A dove has fins.,0,even,,115244,53,53,,114728,53,6014,11296,16395,115461,116477,51,113732,Sentence_verification,0,34562,34,FALSE,m,yes,1024
0,0,1017,1017,black,no,,,,legacy,legacy,legacy,0,S2,uniform,0,0,m,34,0,0,0,0,34,0,0,0,0,34,34,0,0,34,34,,,,Thu Nov 18 2021 08:21:12 GMT+0100 (Centraleuropisk normaltid),The main experiment item,yes,,,/Users/ethan/Documents/GitHub/OpenSesame/SentenceVerification,,,,z,no,mono,no,18,no,white,no,no,768,,,legacy,legacy,osweb,1.4.0,1,,,0,None,,right,right,right,right,None,m,1016,,5953,5279,5084,2777,1016,1011,2,legacy,,,,,,,,,1637220153452,1024,2,48000,-16,experiment,An elm is a plant.,0,even,,118011,53,53,,117495,53,6014,11296,16395,118227,119243,51,116483,Sentence_verification,0,35578,35,TRUE,m,yes,1024
0,0,1017,1017,black,no,,,,legacy,legacy,legacy,0,P1,uniform,0,0,z,35,0,0,0,0,35,0,0,0,0,35,35,0,0,35,35,,,,Thu Nov 18 2021 08:21:12 GMT+0100 (Centraleuropisk normaltid),The main experiment item,yes,,,/Users/ethan/Documents/GitHub/OpenSesame/SentenceVerification,,,,z,no,mono,no,18,no,white,no,no,768,,,legacy,legacy,osweb,1.4.0,1,,,0,None,,right,right,right,right,None,z,1017,,5953,5279,5084,2777,1017,839,2,legacy,,,,,,,,,1637220153452,1024,2,48000,-16,experiment,A banana has bones.,0,even,,120610,53,53,,120094,53,6014,11296,16395,120826,121843,51,119253,Sentence_verification,0,36595,36,FALSE,m,yes,1024
0,0,1017,1017,black,no,,,,legacy,legacy,legacy,0,S1,uniform,0,0,z,36,0,0,0,0,36,0,0,0,0,36,36,0,0,36,36,,,,Thu Nov 18 2021 08:21:12 GMT+0100 (Centraleuropisk normaltid),The main experiment item,yes,,,/Users/ethan/Documents/GitHub/OpenSesame/SentenceVerification,,,,z,no,mono,no,18,no,white,no,no,768,,,legacy,legacy,osweb,1.4.0,1,,,0,None,,right,right,right,right,None,z,1017,,5953,5279,5084,2777,1017,820,2,legacy,,,,,,,,,1637220153452,1024,2,48000,-16,experiment,Football is a lottery.,0,even,,123193,53,53,,122677,53,6014,11296,16395,123409,124426,51,121848,Sentence_verification,0,37612,37,FALSE,m,yes,1024
0,0,1017,1017,black,no,,,,legacy,legacy,legacy,0,S1,uniform,0,0,m,37,0,0,0,0,37,0,0,0,0,37,37,0,0,37,37,,,,Thu Nov 18 2021 08:21:12 GMT+0100 (Centraleuropisk normaltid),The main experiment item,yes,,,/Users/ethan/Documents/GitHub/OpenSesame/SentenceVerification,,,,z,no,mono,no,18,no,white,no,no,768,,,legacy,legacy,osweb,1.4.0,1,,,0,None,,right,right,right,right,None,m,1016,,5953,5279,5084,2777,1016,1026,2,legacy,,,,,,,,,1637220153452,1024,2,48000,-16,experiment,An orchid is a flower.,0,even,,125993,53,53,,125477,53,6014,11296,16395,126209,127225,51,124435,Sentence_verification,0,38628,38,TRUE,m,yes,1024
0,0,1017,1017,black,no,,,,legacy,legacy,legacy,0,P1,uniform,0,0,z,38,0,0,0,0,38,0,0,0,0,38,38,0,0,38,38,,,,Thu Nov 18 2021 08:21:12 GMT+0100 (Centraleuropisk normaltid),The main experiment item,yes,,,/Users/ethan/Documents/GitHub/OpenSesame/SentenceVerification,,,,z,no,mono,no,18,no,white,no,no,768,,,legacy,legacy,osweb,1.4.0,1,,,0,None,,right,right,right,right,None,z,1017,,5953,5279,5084,2777,1017,1590,2,legacy,,,,,,,,,1637220153452,1024,2,48000,-16,experiment,Table tennis has baskets.,0,even,,129342,53,53,,128826,53,6014,11296,16395,129558,130575,51,127231,Sentence_verification,0,39645,39,FALSE,m,yes,1024
0,0,1017,1017,black,no,,,,legacy,legacy,legacy,0,P1,uniform,0,0,m,39,0,0,0,0,39,0,0,0,0,39,39,0,0,39,39,,,,Thu Nov 18 2021 08:21:12 GMT+0100 (Centraleuropisk normaltid),The main experiment item,yes,,,/Users/ethan/Documents/GitHub/OpenSesame/SentenceVerification,,,,z,no,mono,no,18,no,white,no,no,768,,,legacy,legacy,osweb,1.4.0,1,,,0,None,,right,right,right,right,None,m,1016,,5953,5279,5084,2777,1016,1030,2,legacy,,,,,,,,,1637220153452,1024,2,48000,-16,experiment,Taffy is sweet. ,0,even,,132142,53,53,,131626,53,6014,11296,16395,132358,133374,51,130583,Sentence_verification,0,40661,40,TRUE,m,yes,1024
0,0,1017,1017,black,no,,,,legacy,legacy,legacy,0,SO,uniform,0,0,z,40,0,0,0,0,40,0,0,0,0,40,40,0,0,40,40,,,,Thu Nov 18 2021 08:21:12 GMT+0100 (Centraleuropisk normaltid),The main experiment item,yes,,,/Users/ethan/Documents/GitHub/OpenSesame/SentenceVerification,,,,z,no,mono,no,18,no,white,no,no,768,,,legacy,legacy,osweb,1.4.0,1,,,0,None,,right,right,right,right,None,z,1017,,5953,5279,5084,2777,1017,1104,2,legacy,,,,,,,,,1637220153452,1024,2,48000,-16,experiment,Caramel is cotton candy.,0,even,,135008,53,53,,134491,53,6014,11296,16395,135224,136241,51,133381,Sentence_verification,0,41678,41,FALSE,m,yes,1024
0,0,1017,1017,black,no,,,,legacy,legacy,legacy,0,SO,uniform,0,0,z,41,0,0,0,0,41,0,0,0,0,41,41,0,0,41,41,,,,Thu Nov 18 2021 08:21:12 GMT+0100 (Centraleuropisk normaltid),The main experiment item,yes,,,/Users/ethan/Documents/GitHub/OpenSesame/SentenceVerification,,,,z,no,mono,no,18,no,white,no,no,768,,,legacy,legacy,osweb,1.4.0,1,,,0,None,,right,right,right,right,None,z,1016,,5953,5279,5084,2777,1016,861,2,legacy,,,,,,,,,1637220153452,1024,2,48000,-16,experiment,Hockey is a race.,0,even,,137641,53,53,,137125,53,6014,11296,16395,137857,138873,51,136248,Sentence_verification,0,42694,42,FALSE,m,yes,1024
0,0,1017,1017,black,no,,,,legacy,legacy,legacy,0,SO,uniform,0,0,m,42,0,0,0,0,42,0,0,0,0,42,42,0,0,42,42,,,,Thu Nov 18 2021 08:21:12 GMT+0100 (Centraleuropisk normaltid),The main experiment item,yes,,,/Users/ethan/Documents/GitHub/OpenSesame/SentenceVerification,,,,z,no,mono,no,18,no,white,no,no,768,,,legacy,legacy,osweb,1.4.0,1,,,0,None,,right,right,right,right,None,m,1016,,5953,5279,5084,2777,1016,677,2,legacy,,,,,,,,,1637220153452,1024,2,48000,-16,experiment,Boston is Boston. ,0,even,,140073,53,53,,139558,53,6014,11296,16395,140290,141306,51,138879,Sentence_verification,0,43710,43,TRUE,m,yes,1024
0,0,1017,1017,black,no,,,,legacy,legacy,legacy,0,P2,uniform,0,0,z,43,0,0,0,0,43,0,0,0,0,43,43,0,0,43,43,,,,Thu Nov 18 2021 08:21:12 GMT+0100 (Centraleuropisk normaltid),The main experiment item,yes,,,/Users/ethan/Documents/GitHub/OpenSesame/SentenceVerification,,,,z,no,mono,no,18,no,white,no,no,768,,,legacy,legacy,osweb,1.4.0,1,,,0,None,,right,right,right,right,None,z,1016,,5953,5279,5084,2777,1016,1452,2,legacy,,,,,,,,,1637220153452,1024,2,48000,-16,experiment,A sycamore has fruit.,0,even,,143290,53,53,,142774,53,6014,11296,16395,143506,144523,51,141312,Sentence_verification,0,44726,44,FALSE,m,yes,1024
0,0,1016,1016,black,no,,,,legacy,legacy,legacy,0,P2,uniform,0,0,m,44,0,0,0,0,44,0,0,0,0,44,44,0,0,44,44,,,,Thu Nov 18 2021 08:21:12 GMT+0100 (Centraleuropisk normaltid),The main experiment item,yes,,,/Users/ethan/Documents/GitHub/OpenSesame/SentenceVerification,,,,z,no,mono,no,18,no,white,no,no,768,,,legacy,legacy,osweb,1.4.0,1,,,0,None,,right,right,right,right,None,z,1016,,5953,5279,5084,2777,1016,1029,2,legacy,,,,,,,,,1637220153452,1024,2,48000,-16,experiment,A birch has seeds.,0,even,,146089,53,53,,145573,53,6014,11296,16395,146306,147322,51,144528,Sentence_verification,0,45742,45,TRUE,m,yes,1024
0,0,1016,1016,black,no,,,,legacy,legacy,legacy,0,SO,uniform,0,0,z,45,0,0,0,0,45,0,0,0,0,45,45,0,0,45,45,,,,Thu Nov 18 2021 08:21:12 GMT+0100 (Centraleuropisk normaltid),The main experiment item,yes,,,/Users/ethan/Documents/GitHub/OpenSesame/SentenceVerification,,,,z,no,mono,no,18,no,white,no,no,768,,,legacy,legacy,osweb,1.4.0,1,,,0,None,,right,right,right,right,None,z,1016,,5953,5279,5084,2777,1016,1077,2,legacy,,,,,,,,,1637220153452,1024,2,48000,-16,experiment,A bass is a crab.,0,even,,148922,53,53,,148406,53,6014,11296,16395,149139,150155,51,147328,Sentence_verification,0,46758,46,FALSE,m,yes,1024
0,0,1016,1016,black,no,,,,legacy,legacy,legacy,0,SO,uniform,0,0,m,46,0,0,0,0,46,0,0,0,0,46,46,0,0,46,46,,,,Thu Nov 18 2021 08:21:12 GMT+0100 (Centraleuropisk normaltid),The main experiment item,yes,,,/Users/ethan/Documents/GitHub/OpenSesame/SentenceVerification,,,,z,no,mono,no,18,no,white,no,no,768,,,legacy,legacy,osweb,1.4.0,1,,,0,None,,right,right,right,right,None,m,1017,,5953,5279,5084,2777,1017,669,2,legacy,,,,,,,,,1637220153452,1024,2,48000,-16,experiment,A sardine is a sardine. ,0,even,,151355,53,53,,150839,53,6014,11296,16395,151571,152588,51,150168,Sentence_verification,0,47775,47,TRUE,m,yes,1024
0,0,1016,1016,black,no,,,,legacy,legacy,legacy,0,S1,uniform,0,0,z,47,0,0,0,0,47,0,0,0,0,47,47,0,0,47,47,,,,Thu Nov 18 2021 08:21:12 GMT+0100 (Centraleuropisk normaltid),The main experiment item,yes,,,/Users/ethan/Documents/GitHub/OpenSesame/SentenceVerification,,,,z,no,mono,no,18,no,white,no,no,768,,,legacy,legacy,osweb,1.4.0,1,,,0,None,,right,right,right,right,None,z,1016,,5953,5279,5084,2777,1016,1279,2,legacy,,,,,,,,,1637220153452,1024,2,48000,-16,experiment,A violet is a mammal.,0,even,,154405,53,53,,153888,53,6014,11296,16395,154621,155638,51,152598,Sentence_verification,0,48791,48,FALSE,m,yes,1024
0,0,1016,1016,black,no,,,,legacy,legacy,legacy,0,P1,uniform,0,0,z,48,0,0,0,0,48,0,0,0,0,48,48,0,0,48,48,,,,Thu Nov 18 2021 08:21:12 GMT+0100 (Centraleuropisk normaltid),The main experiment item,yes,,,/Users/ethan/Documents/GitHub/OpenSesame/SentenceVerification,,,,z,no,mono,no,18,no,white,no,no,768,,,legacy,legacy,osweb,1.4.0,1,,,0,None,,right,right,right,right,None,z,1016,,5953,5279,5084,2777,1016,919,2,legacy,,,,,,,,,1637220153452,1024,2,48000,-16,experiment,A shrimp can fly.,0,even,,157087,53,53,,156571,53,6014,11296,16395,157304,158320,51,155645,Sentence_verification,0,49807,49,FALSE,m,yes,1024
0,0,1016,1016,black,no,,,,legacy,legacy,legacy,0,PO,uniform,0,0,m,49,0,0,0,0,49,0,0,0,0,49,49,0,0,49,49,,,,Thu Nov 18 2021 08:21:12 GMT+0100 (Centraleuropisk normaltid),The main experiment item,yes,,,/Users/ethan/Documents/GitHub/OpenSesame/SentenceVerification,,,,z,no,mono,no,18,no,white,no,no,768,,,legacy,legacy,osweb,1.4.0,1,,,0,None,,right,right,right,right,None,m,1017,,5953,5279,5084,2777,1017,1150,2,legacy,,,,,,,,,1637220153452,1024,2,48000,-16,experiment,A canary can sing.,0,even,,160004,53,53,,159487,53,6014,11296,16395,160220,161237,51,158326,Sentence_verification,0,50824,50,TRUE,m,yes,1024
0,0,1016,1016,black,no,,,,legacy,legacy,legacy,0,SO,uniform,0,0,z,50,0,0,0,0,50,0,0,0,0,50,50,0,0,50,50,,,,Thu Nov 18 2021 08:21:12 GMT+0100 (Centraleuropisk normaltid),The main experiment item,yes,,,/Users/ethan/Documents/GitHub/OpenSesame/SentenceVerification,,,,z,no,mono,no,18,no,white,no,no,768,,,legacy,legacy,osweb,1.4.0,1,,,0,None,,right,right,right,right,None,m,1016,,5953,5279,5084,2777,1016,1320,2,legacy,,,,,,,,,1637220153452,1024,2,48000,-16,experiment,Chicago is a state.,0,even,,163087,53,53,,162571,53,6014,11296,16395,163303,164319,51,161245,Sentence_verification,0,51840,51,FALSE,m,yes,1024
0,0,1016,1016,black,no,,,,legacy,legacy,legacy,0,S1,uniform,0,0,z,51,0,0,0,0,51,0,0,0,0,51,51,0,0,51,51,,,,Thu Nov 18 2021 08:21:12 GMT+0100 (Centraleuropisk normaltid),The main experiment item,yes,,,/Users/ethan/Documents/GitHub/OpenSesame/SentenceVerification,,,,z,no,mono,no,18,no,white,no,no,768,,,legacy,legacy,osweb,1.4.0,1,,,0,None,,right,right,right,right,None,z,1017,,5953,5279,5084,2777,1017,1094,2,legacy,,,,,,,,,1637220153452,1024,2,48000,-16,experiment,Denim is a food.,0,even,,165952,53,53,,165436,53,6014,11296,16395,166169,167186,51,164326,Sentence_verification,0,52857,52,FALSE,m,yes,1024
0,0,1016,1016,black,no,,,,legacy,legacy,legacy,0,S1,uniform,0,0,m,52,0,0,0,0,52,0,0,0,0,52,52,0,0,52,52,,,,Thu Nov 18 2021 08:21:12 GMT+0100 (Centraleuropisk normaltid),The main experiment item,yes,,,/Users/ethan/Documents/GitHub/OpenSesame/SentenceVerification,,,,z,no,mono,no,18,no,white,no,no,768,,,legacy,legacy,osweb,1.4.0,1,,,0,None,,right,right,right,right,None,m,1016,,5953,5279,5084,2777,1016,1231,2,legacy,,,,,,,,,1637220153452,1024,2,48000,-16,experiment,A gumdrop is candy.,0,even,,168952,53,53,,168435,53,6014,11296,16395,169169,170185,51,167197,Sentence_verification,0,53873,53,TRUE,m,yes,1024
0,0,1016,1016,black,no,,,,legacy,legacy,legacy,0,P1,uniform,0,0,m,53,0,0,0,0,53,0,0,0,0,53,53,0,0,53,53,,,,Thu Nov 18 2021 08:21:12 GMT+0100 (Centraleuropisk normaltid),The main experiment item,yes,,,/Users/ethan/Documents/GitHub/OpenSesame/SentenceVerification,,,,z,no,mono,no,18,no,white,no,no,768,,,legacy,legacy,osweb,1.4.0,1,,,0,None,,right,right,right,right,None,m,1017,,5953,5279,5084,2777,1017,966,2,legacy,,,,,,,,,1637220153452,1024,2,48000,-16,experiment,Basketball has rules. ,0,even,,171685,53,53,,171168,53,6014,11296,16395,171901,172918,51,170190,Sentence_verification,0,54890,54,TRUE,m,yes,1024
0,0,1016,1016,black,no,,,,legacy,legacy,legacy,0,PO,uniform,0,0,z,54,0,0,0,0,54,0,0,0,0,54,54,0,0,54,54,,,,Thu Nov 18 2021 08:21:12 GMT+0100 (Centraleuropisk normaltid),The main experiment item,yes,,,/Users/ethan/Documents/GitHub/OpenSesame/SentenceVerification,,,,z,no,mono,no,18,no,white,no,no,768,,,legacy,legacy,osweb,1.4.0,1,,,0,None,,right,right,right,right,None,z,1016,,5953,5279,5084,2777,1016,752,2,legacy,,,,,,,,,1637220153452,1024,2,48000,-16,experiment,Russia is an island.,0,even,,174201,53,53,,173685,53,6014,11296,16395,174418,175434,51,172924,Sentence_verification,0,55906,55,FALSE,m,yes,1024
0,0,1016,1016,black,no,,,,legacy,legacy,legacy,0,P1,uniform,0,0,m,55,0,0,0,0,55,0,0,0,0,55,55,0,0,55,55,,,,Thu Nov 18 2021 08:21:12 GMT+0100 (Centraleuropisk normaltid),The main experiment item,yes,,,/Users/ethan/Documents/GitHub/OpenSesame/SentenceVerification,,,,z,no,mono,no,18,no,white,no,no,768,,,legacy,legacy,osweb,1.4.0,1,,,0,None,,right,right,right,right,None,z,1016,,5953,5279,5084,2777,1016,859,2,legacy,,,,,,,,,1637220153452,1024,2,48000,-16,experiment,A violet has a stem. ,0,even,,176818,53,53,,176301,53,6014,11296,16395,177034,178050,51,175441,Sentence_verification,0,56922,56,TRUE,m,yes,1024
0,0,1016,1016,black,no,,,,legacy,legacy,legacy,0,P2,uniform,0,0,m,56,0,0,0,0,56,0,0,0,0,56,56,0,0,56,56,,,,Thu Nov 18 2021 08:21:12 GMT+0100 (Centraleuropisk normaltid),The main experiment item,yes,,,/Users/ethan/Documents/GitHub/OpenSesame/SentenceVerification,,,,z,no,mono,no,18,no,white,no,no,768,,,legacy,legacy,osweb,1.4.0,1,,,0,None,,right,right,right,right,None,m,1016,,5953,5279,5084,2777,1016,770,2,legacy,,,,,,,,,1637220153452,1024,2,48000,-16,experiment,A lieutenant can talk.,0,even,,179350,53,53,,178834,53,6014,11296,16395,179567,180583,51,178058,Sentence_verification,0,57938,57,TRUE,m,yes,1024
0,0,1016,1016,black,no,,,,legacy,legacy,legacy,0,S1,uniform,0,0,z,57,0,0,0,0,57,0,0,0,0,57,57,0,0,57,57,,,,Thu Nov 18 2021 08:21:12 GMT+0100 (Centraleuropisk normaltid),The main experiment item,yes,,,/Users/ethan/Documents/GitHub/OpenSesame/SentenceVerification,,,,z,no,mono,no,18,no,white,no,no,768,,,legacy,legacy,osweb,1.4.0,1,,,0,None,,right,right,right,right,None,z,1017,,5953,5279,5084,2777,1017,1036,2,legacy,,,,,,,,,1637220153452,1024,2,48000,-16,experiment,Cremes are cookies.,0,even,,182150,53,53,,181635,53,6014,11296,16395,182366,183383,51,180592,Sentence_verification,0,58955,58,FALSE,m,yes,1024
0,0,1016,1016,black,no,,,,legacy,legacy,legacy,0,PO,uniform,0,0,m,58,0,0,0,0,58,0,0,0,0,58,58,0,0,58,58,,,,Thu Nov 18 2021 08:21:12 GMT+0100 (Centraleuropisk normaltid),The main experiment item,yes,,,/Users/ethan/Documents/GitHub/OpenSesame/SentenceVerification,,,,z,no,mono,no,18,no,white,no,no,768,,,legacy,legacy,osweb,1.4.0,1,,,0,None,,right,right,right,right,None,m,1016,,5953,5279,5084,2777,1016,885,2,legacy,,,,,,,,,1637220153452,1024,2,48000,-16,experiment,A lollypop has a stick. ,0,even,,184800,53,53,,184283,53,6014,11296,16395,185016,186033,51,183392,Sentence_verification,0,59971,59,TRUE,m,yes,1024
0,0,1016,1016,black,no,,,,legacy,legacy,legacy,0,PO,uniform,0,0,z,59,0,0,0,0,59,0,0,0,0,59,59,0,0,59,59,,,,Thu Nov 18 2021 08:21:12 GMT+0100 (Centraleuropisk normaltid),The main experiment item,yes,,,/Users/ethan/Documents/GitHub/OpenSesame/SentenceVerification,,,,z,no,mono,no,18,no,white,no,no,768,,,legacy,legacy,osweb,1.4.0,1,,,0,None,,right,right,right,right,None,z,1017,,5953,5279,5084,2777,1017,2284,2,legacy,,,,,,,,,1637220153452,1024,2,48000,-16,experiment,Polyester is grown.,0,even,,188849,53,53,,188333,53,6014,11296,16395,189065,190082,51,186040,Sentence_verification,0,60988,60,FALSE,m,yes,1024
0,0,1016,1016,black,no,,,,legacy,legacy,legacy,0,PO,uniform,0,0,z,60,0,0,0,0,60,0,0,0,0,60,60,0,0,60,60,,,,Thu Nov 18 2021 08:21:12 GMT+0100 (Centraleuropisk normaltid),The main experiment item,yes,,,/Users/ethan/Documents/GitHub/OpenSesame/SentenceVerification,,,,z,no,mono,no,18,no,white,no,no,768,,,legacy,legacy,osweb,1.4.0,1,,,0,None,,right,right,right,right,None,m,1017,,5953,5279,5084,2777,1017,2587,2,legacy,,,,,,,,,1637220153452,1024,2,48000,-16,experiment,Checkers has pawns.,0,even,,193198,53,53,,192682,53,6014,11296,16395,193414,194431,51,190090,Sentence_verification,0,62005,61,FALSE,m,yes,1024
