acc,accuracy,average_response_time,avg_rt,background,bidi,block,browser_codename,browser_name,browser_version,canvas_backend,clock_backend,color_backend,compensation,coordinates,correct,correct_keyboard_response,correct_response,count_ISI,count_break1,count_break_2,count_correct_feedback,count_credits,count_experiment,count_experimentLoop,count_fixation,count_incorrect_feedback,count_instructions1a,count_instructions1b,count_instructions2,count_keyboard_response,count_memory_set,count_new_logger,count_osweb,count_practiceLoop,count_practiceSequence,count_probe,count_thankYou,date_startdate,date_startdateUTC,date_starttime,datetime,description,disable_garbage_collection,experiment_debug,experiment_parameters,experiment_path,experiment_pilot,experiment_taskname,experiment_taskversion,font_bold,font_family,font_italic,font_size,font_underline,foreground,form_clicks,fullscreen,height,jatosStudyResultId,jatosVersion,keyboard_backend,mouse_backend,numberSet,opensesame_codename,opensesame_version,penwidth,posInSet,present,queryParams_batchId,queryParams_generalMultiple,repeat_cycle,response,response_break1,response_break_2,response_instructions1a,response_instructions1b,response_instructions2,response_keyboard_response,response_time,response_time_break1,response_time_break_2,response_time_instructions1a,response_time_instructions1b,response_time_instructions2,response_time_keyboard_response,round_decimals,sampler_backend,screen_availableHeight,screen_availableWidth,screen_colorDepth,screen_height,screen_pixelDepth,screen_screenX,screen_screenY,screen_width,sessionid,setSize,sound_buf_size,sound_channels,sound_freq,sound_sample_size,start,subject_nr,subject_parity,system_os,target,time_ISI,time_break1,time_break_2,time_correct_feedback,time_experimentLoop,time_fixation,time_incorrect_feedback,time_instructions1a,time_instructions1b,time_instructions2,time_keyboard_response,time_memory_set,time_new_logger,time_practiceLoop,time_probe,title,total_correct,total_response_time,total_responses,uniform_coordinates,width
0,0,602,602,black,no,practice,Mozilla,Netscape,"5.0 (Macintosh; Intel Mac OS X 10_15_7) AppleWebKit/537.36 (KHTML, like Gecko) Chrome/94.0.4606.61 Safari/537.36",legacy,legacy,legacy,0,uniform,0,0,right,0,0,0,0,0,0,0,0,0,0,0,0,0,0,0,0,0,0,0,0,30-08-21,30-08-21,09:17:21,Thu Sep 30 2021 09:17:21 GMT+0200 (Θερινή ώρα Κεντρικής Ευρώπης),The main experiment item,yes,0,0,/Users/ethan/Documents/GitHub/OpenSesame/Sternberg/experiment_files,0,0,0,no,mono,no,18,no,white,no,no,768,105,3.6.1,legacy,legacy,6,osweb,1.4.0,1,1,y,37,,0,left,,,space,right,,left,602,,,11256,20983,,602,2,legacy,968,1680,30,1050,30,0,25,1680,1632986269562,1,1024,2,48000,-16,experiment,1,odd,MacIntel,6,34528,,,,33,32317,,33,11298,,36546,33325,37161,33,36546,Sternberg_updated,0,602,1,yes,1024
50,50,845,845,black,no,practice,Mozilla,Netscape,"5.0 (Macintosh; Intel Mac OS X 10_15_7) AppleWebKit/537.36 (KHTML, like Gecko) Chrome/94.0.4606.61 Safari/537.36",legacy,legacy,legacy,0,uniform,1,1,right,1,1,1,1,0,0,0,1,1,0,0,0,1,1,1,0,0,1,1,0,30-08-21,30-08-21,09:17:21,Thu Sep 30 2021 09:17:21 GMT+0200 (Θερινή ώρα Κεντρικής Ευρώπης),The main experiment item,yes,0,0,/Users/ethan/Documents/GitHub/OpenSesame/Sternberg/experiment_files,0,0,0,no,mono,no,18,no,white,no,no,768,105,3.6.1,legacy,legacy,2 9 4,osweb,1.4.0,1,3,y,37,,0,right,,,space,right,,right,1087,,,11256,20983,,1087,2,legacy,968,1680,30,1050,30,0,25,1680,1632986269562,3,1024,2,48000,-16,experiment,1,odd,MacIntel,4,40411,,,,33,38193,37164,33,11298,,42429,39196,43528,33,42429,Sternberg_updated,1,1689,2,yes,1024
67,67,890,890,black,no,practice,Mozilla,Netscape,"5.0 (Macintosh; Intel Mac OS X 10_15_7) AppleWebKit/537.36 (KHTML, like Gecko) Chrome/94.0.4606.61 Safari/537.36",legacy,legacy,legacy,0,uniform,1,1,left,2,2,2,2,0,0,0,2,2,0,0,0,2,2,2,0,0,2,2,0,30-08-21,30-08-21,09:17:21,Thu Sep 30 2021 09:17:21 GMT+0200 (Θερινή ώρα Κεντρικής Ευρώπης),The main experiment item,yes,0,0,/Users/ethan/Documents/GitHub/OpenSesame/Sternberg/experiment_files,0,0,0,no,mono,no,18,no,white,no,no,768,105,3.6.1,legacy,legacy,3 1 9 4,osweb,1.4.0,1,0,n,37,,0,left,,,space,right,,left,980,,,11256,20983,,980,2,legacy,968,1680,30,1050,30,0,25,1680,1632986269562,4,1024,2,48000,-16,experiment,1,odd,MacIntel,6,46783,,,43529,33,44556,37164,33,11298,,48799,45566,49782,33,48799,Sternberg_updated,2,2669,3,yes,1024
75,75,1159,1159,black,no,practice,Mozilla,Netscape,"5.0 (Macintosh; Intel Mac OS X 10_15_7) AppleWebKit/537.36 (KHTML, like Gecko) Chrome/94.0.4606.61 Safari/537.36",legacy,legacy,legacy,0,uniform,1,1,left,3,3,3,3,0,0,0,3,3,0,0,0,3,3,3,0,0,3,3,0,30-08-21,30-08-21,09:17:21,Thu Sep 30 2021 09:17:21 GMT+0200 (Θερινή ώρα Κεντρικής Ευρώπης),The main experiment item,yes,0,0,/Users/ethan/Documents/GitHub/OpenSesame/Sternberg/experiment_files,0,0,0,no,mono,no,18,no,white,no,no,768,105,3.6.1,legacy,legacy,5,osweb,1.4.0,1,0,n,37,,0,left,,,space,right,,left,1967,,,11256,20983,,1967,2,legacy,968,1680,30,1050,30,0,25,1680,1632986269562,1,1024,2,48000,-16,experiment,1,odd,MacIntel,3,53033,,,49783,33,50811,37164,33,11298,,55049,51815,57032,33,55049,Sternberg_updated,3,4636,4,yes,1024
80,80,1091,1091,black,no,practice,Mozilla,Netscape,"5.0 (Macintosh; Intel Mac OS X 10_15_7) AppleWebKit/537.36 (KHTML, like Gecko) Chrome/94.0.4606.61 Safari/537.36",legacy,legacy,legacy,0,uniform,1,1,left,4,4,4,4,0,0,0,4,4,0,0,0,4,4,4,0,0,4,4,0,30-08-21,30-08-21,09:17:21,Thu Sep 30 2021 09:17:21 GMT+0200 (Θερινή ώρα Κεντρικής Ευρώπης),The main experiment item,yes,0,0,/Users/ethan/Documents/GitHub/OpenSesame/Sternberg/experiment_files,0,0,0,no,mono,no,18,no,white,no,no,768,105,3.6.1,legacy,legacy,2 1,osweb,1.4.0,1,0,n,37,,0,left,,,space,right,,left,818,,,11256,20983,,818,2,legacy,968,1680,30,1050,30,0,25,1680,1632986269562,2,1024,2,48000,-16,experiment,1,odd,MacIntel,5,60274,,,57033,33,58052,37164,33,11298,,62291,59057,63124,33,62291,Sternberg_updated,4,5454,5,yes,1024
83,83,1106,1106,black,no,practice,Mozilla,Netscape,"5.0 (Macintosh; Intel Mac OS X 10_15_7) AppleWebKit/537.36 (KHTML, like Gecko) Chrome/94.0.4606.61 Safari/537.36",legacy,legacy,legacy,0,uniform,1,1,left,5,5,5,5,0,0,0,5,5,0,0,0,5,5,5,0,0,5,5,0,30-08-21,30-08-21,09:17:21,Thu Sep 30 2021 09:17:21 GMT+0200 (Θερινή ώρα Κεντρικής Ευρώπης),The main experiment item,yes,0,0,/Users/ethan/Documents/GitHub/OpenSesame/Sternberg/experiment_files,0,0,0,no,mono,no,18,no,white,no,no,768,105,3.6.1,legacy,legacy,4 1 5,osweb,1.4.0,1,0,n,37,,0,left,,,space,right,,left,1179,,,11256,20983,,1179,2,legacy,968,1680,30,1050,30,0,25,1680,1632986269562,3,1024,2,48000,-16,experiment,1,odd,MacIntel,2,66357,,,63124,33,64153,37164,33,11298,,68360,65156,69542,33,68360,Sternberg_updated,5,6633,6,yes,1024
86,86,1116,1116,black,no,practice,Mozilla,Netscape,"5.0 (Macintosh; Intel Mac OS X 10_15_7) AppleWebKit/537.36 (KHTML, like Gecko) Chrome/94.0.4606.61 Safari/537.36",legacy,legacy,legacy,0,uniform,1,1,right,6,6,6,6,0,0,0,6,6,0,0,0,6,6,6,0,0,6,6,0,30-08-21,30-08-21,09:17:21,Thu Sep 30 2021 09:17:21 GMT+0200 (Θερινή ώρα Κεντρικής Ευρώπης),The main experiment item,yes,0,0,/Users/ethan/Documents/GitHub/OpenSesame/Sternberg/experiment_files,0,0,0,no,mono,no,18,no,white,no,no,768,105,3.6.1,legacy,legacy,1 5 2 9,osweb,1.4.0,1,2,y,37,,0,right,,,space,right,,right,1181,,,11256,20983,,1181,2,legacy,968,1680,30,1050,30,0,25,1680,1632986269562,4,1024,2,48000,-16,experiment,1,odd,MacIntel,5,72792,,,69543,33,70571,37164,33,11298,,74793,71576,75975,33,74793,Sternberg_updated,6,7814,7,yes,1024
75,75,1109,1109,black,no,practice,Mozilla,Netscape,"5.0 (Macintosh; Intel Mac OS X 10_15_7) AppleWebKit/537.36 (KHTML, like Gecko) Chrome/94.0.4606.61 Safari/537.36",legacy,legacy,legacy,0,uniform,0,0,right,7,7,7,7,0,0,0,7,7,0,0,0,7,7,7,0,0,7,7,0,30-08-21,30-08-21,09:17:21,Thu Sep 30 2021 09:17:21 GMT+0200 (Θερινή ώρα Κεντρικής Ευρώπης),The main experiment item,yes,0,0,/Users/ethan/Documents/GitHub/OpenSesame/Sternberg/experiment_files,0,0,0,no,mono,no,18,no,white,no,no,768,105,3.6.1,legacy,legacy,4 8,osweb,1.4.0,1,1,y,37,,0,left,,,space,right,,left,1057,,,11256,20983,,1057,2,legacy,968,1680,30,1050,30,0,25,1680,1632986269562,2,1024,2,48000,-16,experiment,1,odd,MacIntel,4,79228,,,75976,33,77005,37164,33,11298,,81245,78011,82311,33,81244,Sternberg_updated,6,8871,8,yes,1024
78,78,1106,1106,black,no,practice,Mozilla,Netscape,"5.0 (Macintosh; Intel Mac OS X 10_15_7) AppleWebKit/537.36 (KHTML, like Gecko) Chrome/94.0.4606.61 Safari/537.36",legacy,legacy,legacy,0,uniform,1,1,left,8,8,8,8,0,0,0,8,8,0,0,0,8,8,8,0,0,8,8,0,30-08-21,30-08-21,09:17:21,Thu Sep 30 2021 09:17:21 GMT+0200 (Θερινή ώρα Κεντρικής Ευρώπης),The main experiment item,yes,0,0,/Users/ethan/Documents/GitHub/OpenSesame/Sternberg/experiment_files,0,0,0,no,mono,no,18,no,white,no,no,768,105,3.6.1,legacy,legacy,9 6 7 4 5,osweb,1.4.0,1,0,n,37,,0,left,,,space,right,,left,1079,,,11256,20983,,1079,2,legacy,968,1680,30,1050,30,0,25,1680,1632986269562,5,1024,2,48000,-16,experiment,1,odd,MacIntel,3,85561,,,75976,33,83339,82312,33,11298,,87578,84344,88660,33,87578,Sternberg_updated,7,9950,9,yes,1024
80,80,1163,1163,black,no,practice,Mozilla,Netscape,"5.0 (Macintosh; Intel Mac OS X 10_15_7) AppleWebKit/537.36 (KHTML, like Gecko) Chrome/94.0.4606.61 Safari/537.36",legacy,legacy,legacy,0,uniform,1,1,right,9,9,9,9,0,0,0,9,9,0,0,0,9,9,9,0,0,9,9,0,30-08-21,30-08-21,09:17:21,Thu Sep 30 2021 09:17:21 GMT+0200 (Θερινή ώρα Κεντρικής Ευρώπης),The main experiment item,yes,0,0,/Users/ethan/Documents/GitHub/OpenSesame/Sternberg/experiment_files,0,0,0,no,mono,no,18,no,white,no,no,768,105,3.6.1,legacy,legacy,4 3 1 7 9 8,osweb,1.4.0,1,1,y,37,,0,right,,,space,right,,right,1683,,,11256,20983,,1683,2,legacy,968,1680,30,1050,30,0,25,1680,1632986269562,6,1024,2,48000,-16,experiment,1,odd,MacIntel,4,91897,,,88661,33,89674,82312,33,11298,,93914,90680,95612,33,93914,Sternberg_updated,8,11633,10,yes,1024
82,82,1138,1138,black,no,practice,Mozilla,Netscape,"5.0 (Macintosh; Intel Mac OS X 10_15_7) AppleWebKit/537.36 (KHTML, like Gecko) Chrome/94.0.4606.61 Safari/537.36",legacy,legacy,legacy,0,uniform,1,1,right,10,10,10,10,0,0,0,10,10,0,0,0,10,10,10,0,0,10,10,0,30-08-21,30-08-21,09:17:21,Thu Sep 30 2021 09:17:21 GMT+0200 (Θερινή ώρα Κεντρικής Ευρώπης),The main experiment item,yes,0,0,/Users/ethan/Documents/GitHub/OpenSesame/Sternberg/experiment_files,0,0,0,no,mono,no,18,no,white,no,no,768,105,3.6.1,legacy,legacy,1 7 9 8 5,osweb,1.4.0,1,4,y,37,,0,right,,,space,right,,right,880,,,11256,20983,,880,2,legacy,968,1680,30,1050,30,0,25,1680,1632986269562,5,1024,2,48000,-16,experiment,1,odd,MacIntel,8,98863,,,95614,33,96640,82312,33,11298,,100870,97646,101752,33,100870,Sternberg_updated,9,12513,11,yes,1024
83,83,1130,1130,black,no,practice,Mozilla,Netscape,"5.0 (Macintosh; Intel Mac OS X 10_15_7) AppleWebKit/537.36 (KHTML, like Gecko) Chrome/94.0.4606.61 Safari/537.36",legacy,legacy,legacy,0,uniform,1,1,left,11,11,11,11,0,0,0,11,11,0,0,0,11,11,11,0,0,11,11,0,30-08-21,30-08-21,09:17:21,Thu Sep 30 2021 09:17:21 GMT+0200 (Θερινή ώρα Κεντρικής Ευρώπης),The main experiment item,yes,0,0,/Users/ethan/Documents/GitHub/OpenSesame/Sternberg/experiment_files,0,0,0,no,mono,no,18,no,white,no,no,768,105,3.6.1,legacy,legacy,5 7 8 4 1 2,osweb,1.4.0,1,0,n,37,,0,left,,,space,right,,left,1042,,,11256,20983,,1042,2,legacy,968,1680,30,1050,30,0,25,1680,1632986269562,6,1024,2,48000,-16,experiment,1,odd,MacIntel,6,105003,,,101753,33,102781,82312,33,11298,,107020,103786,108069,33,107020,Sternberg_updated,10,13555,12,yes,1024
85,85,1122,1122,black,no,experiment,Mozilla,Netscape,"5.0 (Macintosh; Intel Mac OS X 10_15_7) AppleWebKit/537.36 (KHTML, like Gecko) Chrome/94.0.4606.61 Safari/537.36",legacy,legacy,legacy,0,uniform,1,1,right,12,12,12,12,0,0,0,12,12,0,0,0,12,12,12,0,0,12,12,0,30-08-21,30-08-21,09:17:21,Thu Sep 30 2021 09:17:21 GMT+0200 (Θερινή ώρα Κεντρικής Ευρώπης),The main experiment item,yes,0,0,/Users/ethan/Documents/GitHub/OpenSesame/Sternberg/experiment_files,0,0,0,no,mono,no,18,no,white,no,no,768,105,3.6.1,legacy,legacy,8 5 3 7 4 6,osweb,1.4.0,1,6,y,37,,0,right,,,space,right,right,right,1033,,,11256,20983,20599,1033,2,legacy,968,1680,30,1050,30,0,25,1680,1632986269562,6,1024,2,48000,-16,experiment,1,odd,MacIntel,6,131926,,,108070,33,129710,82312,33,11298,109087,133942,130716,134992,33,133942,Sternberg_updated,11,14588,13,yes,1024
79,79,1104,1104,black,no,experiment,Mozilla,Netscape,"5.0 (Macintosh; Intel Mac OS X 10_15_7) AppleWebKit/537.36 (KHTML, like Gecko) Chrome/94.0.4606.61 Safari/537.36",legacy,legacy,legacy,0,uniform,0,0,left,13,13,13,13,0,0,0,13,13,0,0,0,13,13,13,0,0,13,13,0,30-08-21,30-08-21,09:17:21,Thu Sep 30 2021 09:17:21 GMT+0200 (Θερινή ώρα Κεντρικής Ευρώπης),The main experiment item,yes,0,0,/Users/ethan/Documents/GitHub/OpenSesame/Sternberg/experiment_files,0,0,0,no,mono,no,18,no,white,no,no,768,105,3.6.1,legacy,legacy,6 7 5 9,osweb,1.4.0,1,0,n,37,,0,right,,,space,right,right,right,861,,,11256,20983,20599,861,2,legacy,968,1680,30,1050,30,0,25,1680,1632986269562,4,1024,2,48000,-16,experiment,1,odd,MacIntel,2,138242,,,134993,33,136020,82312,33,11298,109087,140259,137026,141125,33,140259,Sternberg_updated,11,15449,14,yes,1024
80,80,1108,1108,black,no,experiment,Mozilla,Netscape,"5.0 (Macintosh; Intel Mac OS X 10_15_7) AppleWebKit/537.36 (KHTML, like Gecko) Chrome/94.0.4606.61 Safari/537.36",legacy,legacy,legacy,0,uniform,1,1,left,14,14,14,14,0,0,0,14,14,0,0,0,14,14,14,0,0,14,14,0,30-08-21,30-08-21,09:17:21,Thu Sep 30 2021 09:17:21 GMT+0200 (Θερινή ώρα Κεντρικής Ευρώπης),The main experiment item,yes,0,0,/Users/ethan/Documents/GitHub/OpenSesame/Sternberg/experiment_files,0,0,0,no,mono,no,18,no,white,no,no,768,105,3.6.1,legacy,legacy,9 8 2 7 4,osweb,1.4.0,1,0,n,37,,0,left,,,space,right,right,left,1170,,,11256,20983,20599,1170,2,legacy,968,1680,30,1050,30,0,25,1680,1632986269562,5,1024,2,48000,-16,experiment,1,odd,MacIntel,5,144372,,,134993,33,142150,141126,33,11298,109087,146389,143156,147572,33,146389,Sternberg_updated,12,16619,15,yes,1024
81,81,1086,1086,black,no,experiment,Mozilla,Netscape,"5.0 (Macintosh; Intel Mac OS X 10_15_7) AppleWebKit/537.36 (KHTML, like Gecko) Chrome/94.0.4606.61 Safari/537.36",legacy,legacy,legacy,0,uniform,1,1,left,15,15,15,15,0,0,0,15,15,0,0,0,15,15,15,0,0,15,15,0,30-08-21,30-08-21,09:17:21,Thu Sep 30 2021 09:17:21 GMT+0200 (Θερινή ώρα Κεντρικής Ευρώπης),The main experiment item,yes,0,0,/Users/ethan/Documents/GitHub/OpenSesame/Sternberg/experiment_files,0,0,0,no,mono,no,18,no,white,no,no,768,105,3.6.1,legacy,legacy,8 9,osweb,1.4.0,1,0,n,37,,0,left,,,space,right,right,left,755,,,11256,20983,20599,755,2,legacy,968,1680,30,1050,30,0,25,1680,1632986269562,2,1024,2,48000,-16,experiment,1,odd,MacIntel,5,150822,,,147573,33,148601,141126,33,11298,109087,152839,149605,153607,33,152839,Sternberg_updated,13,17374,16,yes,1024
82,82,1100,1100,black,no,experiment,Mozilla,Netscape,"5.0 (Macintosh; Intel Mac OS X 10_15_7) AppleWebKit/537.36 (KHTML, like Gecko) Chrome/94.0.4606.61 Safari/537.36",legacy,legacy,legacy,0,uniform,1,1,left,16,16,16,16,0,0,0,16,16,0,0,0,16,16,16,0,0,16,16,0,30-08-21,30-08-21,09:17:21,Thu Sep 30 2021 09:17:21 GMT+0200 (Θερινή ώρα Κεντρικής Ευρώπης),The main experiment item,yes,0,0,/Users/ethan/Documents/GitHub/OpenSesame/Sternberg/experiment_files,0,0,0,no,mono,no,18,no,white,no,no,768,105,3.6.1,legacy,legacy,2 3 8 5 6 7,osweb,1.4.0,1,0,n,37,,0,left,,,space,right,right,left,1328,,,11256,20983,20599,1328,2,legacy,968,1680,30,1050,30,0,25,1680,1632986269562,6,1024,2,48000,-16,experiment,1,odd,MacIntel,1,156857,,,153608,33,154637,141126,33,11298,109087,158874,155641,160208,33,158874,Sternberg_updated,14,18702,17,yes,1024
83,83,1095,1095,black,no,experiment,Mozilla,Netscape,"5.0 (Macintosh; Intel Mac OS X 10_15_7) AppleWebKit/537.36 (KHTML, like Gecko) Chrome/94.0.4606.61 Safari/537.36",legacy,legacy,legacy,0,uniform,1,1,right,17,17,17,17,0,0,0,17,17,0,0,0,17,17,17,0,0,17,17,0,30-08-21,30-08-21,09:17:21,Thu Sep 30 2021 09:17:21 GMT+0200 (Θερινή ώρα Κεντρικής Ευρώπης),The main experiment item,yes,0,0,/Users/ethan/Documents/GitHub/OpenSesame/Sternberg/experiment_files,0,0,0,no,mono,no,18,no,white,no,no,768,105,3.6.1,legacy,legacy,2 6 1 7 4,osweb,1.4.0,1,2,y,37,,0,right,,,space,right,right,right,1003,,,11256,20983,20599,1003,2,legacy,968,1680,30,1050,30,0,25,1680,1632986269562,5,1024,2,48000,-16,experiment,1,odd,MacIntel,6,163445,,,160208,33,161237,141126,33,11298,109087,165446,162241,166462,33,165446,Sternberg_updated,15,19705,18,yes,1024
84,84,1096,1096,black,no,experiment,Mozilla,Netscape,"5.0 (Macintosh; Intel Mac OS X 10_15_7) AppleWebKit/537.36 (KHTML, like Gecko) Chrome/94.0.4606.61 Safari/537.36",legacy,legacy,legacy,0,uniform,1,1,left,18,18,18,18,0,0,0,18,18,0,0,0,18,18,18,0,0,18,18,0,30-08-21,30-08-21,09:17:21,Thu Sep 30 2021 09:17:21 GMT+0200 (Θερινή ώρα Κεντρικής Ευρώπης),The main experiment item,yes,0,0,/Users/ethan/Documents/GitHub/OpenSesame/Sternberg/experiment_files,0,0,0,no,mono,no,18,no,white,no,no,768,105,3.6.1,legacy,legacy,8 2 1 4 5 9,osweb,1.4.0,1,0,n,37,,0,left,,,space,right,right,left,1120,,,11256,20983,20599,1120,2,legacy,968,1680,30,1050,30,0,25,1680,1632986269562,6,1024,2,48000,-16,experiment,1,odd,MacIntel,7,169712,,,166463,33,167489,141126,33,11298,109087,171729,168496,172862,33,171729,Sternberg_updated,16,20825,19,yes,1024
80,80,1142,1142,black,no,experiment,Mozilla,Netscape,"5.0 (Macintosh; Intel Mac OS X 10_15_7) AppleWebKit/537.36 (KHTML, like Gecko) Chrome/94.0.4606.61 Safari/537.36",legacy,legacy,legacy,0,uniform,0,0,right,19,19,19,19,0,0,0,19,19,0,0,0,19,19,19,0,0,19,19,0,30-08-21,30-08-21,09:17:21,Thu Sep 30 2021 09:17:21 GMT+0200 (Θερινή ώρα Κεντρικής Ευρώπης),The main experiment item,yes,0,0,/Users/ethan/Documents/GitHub/OpenSesame/Sternberg/experiment_files,0,0,0,no,mono,no,18,no,white,no,no,768,105,3.6.1,legacy,legacy,2 3,osweb,1.4.0,1,1,y,37,,0,None,,,space,right,right,None,2016,,,11256,20983,20599,2016,2,legacy,968,1680,30,1050,30,0,25,1680,1632986269562,2,1024,2,48000,-16,experiment,1,odd,MacIntel,2,176110,,,172863,33,173889,141126,33,11298,109087,178127,174894,180144,33,178127,Sternberg_updated,16,22841,20,yes,1024
81,81,1131,1131,black,no,experiment,Mozilla,Netscape,"5.0 (Macintosh; Intel Mac OS X 10_15_7) AppleWebKit/537.36 (KHTML, like Gecko) Chrome/94.0.4606.61 Safari/537.36",legacy,legacy,legacy,0,uniform,1,1,left,20,20,20,20,0,0,0,20,20,0,0,0,20,20,20,0,0,20,20,0,30-08-21,30-08-21,09:17:21,Thu Sep 30 2021 09:17:21 GMT+0200 (Θερινή ώρα Κεντρικής Ευρώπης),The main experiment item,yes,0,0,/Users/ethan/Documents/GitHub/OpenSesame/Sternberg/experiment_files,0,0,0,no,mono,no,18,no,white,no,no,768,105,3.6.1,legacy,legacy,2 8 9,osweb,1.4.0,1,0,n,37,,0,left,,,space,right,right,left,903,,,11256,20983,20599,903,2,legacy,968,1680,30,1050,30,0,25,1680,1632986269562,3,1024,2,48000,-16,experiment,1,odd,MacIntel,6,183394,,,172863,33,181172,180145,33,11298,109087,185396,182177,186312,33,185396,Sternberg_updated,17,23744,21,yes,1024
82,82,1129,1129,black,no,experiment,Mozilla,Netscape,"5.0 (Macintosh; Intel Mac OS X 10_15_7) AppleWebKit/537.36 (KHTML, like Gecko) Chrome/94.0.4606.61 Safari/537.36",legacy,legacy,legacy,0,uniform,1,1,left,21,21,21,21,0,0,0,21,21,0,0,0,21,21,21,0,0,21,21,0,30-08-21,30-08-21,09:17:21,Thu Sep 30 2021 09:17:21 GMT+0200 (Θερινή ώρα Κεντρικής Ευρώπης),The main experiment item,yes,0,0,/Users/ethan/Documents/GitHub/OpenSesame/Sternberg/experiment_files,0,0,0,no,mono,no,18,no,white,no,no,768,105,3.6.1,legacy,legacy,6 8,osweb,1.4.0,1,0,n,37,,0,left,,,space,right,right,left,1089,,,11256,20983,20599,1089,2,legacy,968,1680,30,1050,30,0,25,1680,1632986269562,2,1024,2,48000,-16,experiment,1,odd,MacIntel,9,189562,,,186313,33,187339,180145,33,11298,109087,191580,188346,192679,33,191580,Sternberg_updated,18,24833,22,yes,1024
83,83,1125,1125,black,no,experiment,Mozilla,Netscape,"5.0 (Macintosh; Intel Mac OS X 10_15_7) AppleWebKit/537.36 (KHTML, like Gecko) Chrome/94.0.4606.61 Safari/537.36",legacy,legacy,legacy,0,uniform,1,1,left,22,22,22,22,0,0,0,22,22,0,0,0,22,22,22,0,0,22,22,0,30-08-21,30-08-21,09:17:21,Thu Sep 30 2021 09:17:21 GMT+0200 (Θερινή ώρα Κεντρικής Ευρώπης),The main experiment item,yes,0,0,/Users/ethan/Documents/GitHub/OpenSesame/Sternberg/experiment_files,0,0,0,no,mono,no,18,no,white,no,no,768,105,3.6.1,legacy,legacy,2 5 1 4,osweb,1.4.0,1,0,n,37,,0,left,,,space,right,right,left,1037,,,11256,20983,20599,1037,2,legacy,968,1680,30,1050,30,0,25,1680,1632986269562,4,1024,2,48000,-16,experiment,1,odd,MacIntel,6,195934,,,192680,33,193707,180145,33,11298,109087,197950,194717,199000,33,197950,Sternberg_updated,19,25870,23,yes,1024
83,83,1123,1123,black,no,experiment,Mozilla,Netscape,"5.0 (Macintosh; Intel Mac OS X 10_15_7) AppleWebKit/537.36 (KHTML, like Gecko) Chrome/94.0.4606.61 Safari/537.36",legacy,legacy,legacy,0,uniform,1,1,right,23,23,23,23,0,0,0,23,23,0,0,0,23,23,23,0,0,23,23,0,30-08-21,30-08-21,09:17:21,Thu Sep 30 2021 09:17:21 GMT+0200 (Θερινή ώρα Κεντρικής Ευρώπης),The main experiment item,yes,0,0,/Users/ethan/Documents/GitHub/OpenSesame/Sternberg/experiment_files,0,0,0,no,mono,no,18,no,white,no,no,768,105,3.6.1,legacy,legacy,4 1 8 7 5,osweb,1.4.0,1,3,y,37,,0,right,,,space,right,right,right,1084,,,11256,20983,20599,1084,2,legacy,968,1680,30,1050,30,0,25,1680,1632986269562,5,1024,2,48000,-16,experiment,1,odd,MacIntel,8,202249,,,199001,33,200026,180145,33,11298,109087,204266,201033,205366,33,204266,Sternberg_updated,20,26954,24,yes,1024
84,84,1126,1126,black,no,experiment,Mozilla,Netscape,"5.0 (Macintosh; Intel Mac OS X 10_15_7) AppleWebKit/537.36 (KHTML, like Gecko) Chrome/94.0.4606.61 Safari/537.36",legacy,legacy,legacy,0,uniform,1,1,right,24,24,24,24,0,0,0,24,24,0,0,0,24,24,24,0,0,24,24,0,30-08-21,30-08-21,09:17:21,Thu Sep 30 2021 09:17:21 GMT+0200 (Θερινή ώρα Κεντρικής Ευρώπης),The main experiment item,yes,0,0,/Users/ethan/Documents/GitHub/OpenSesame/Sternberg/experiment_files,0,0,0,no,mono,no,18,no,white,no,no,768,105,3.6.1,legacy,legacy,5 2 6,osweb,1.4.0,1,2,y,37,,0,right,,,space,right,right,right,1186,,,11256,20983,20599,1186,2,legacy,968,1680,30,1050,30,0,25,1680,1632986269562,3,1024,2,48000,-16,experiment,1,odd,MacIntel,2,208607,,,205367,33,206385,180145,33,11298,109087,210608,207391,211807,33,210608,Sternberg_updated,21,28140,25,yes,1024
85,85,1121,1121,black,no,experiment,Mozilla,Netscape,"5.0 (Macintosh; Intel Mac OS X 10_15_7) AppleWebKit/537.36 (KHTML, like Gecko) Chrome/94.0.4606.61 Safari/537.36",legacy,legacy,legacy,0,uniform,1,1,left,25,25,25,25,0,0,0,25,25,0,0,0,25,25,25,0,0,25,25,0,30-08-21,30-08-21,09:17:21,Thu Sep 30 2021 09:17:21 GMT+0200 (Θερινή ώρα Κεντρικής Ευρώπης),The main experiment item,yes,0,0,/Users/ethan/Documents/GitHub/OpenSesame/Sternberg/experiment_files,0,0,0,no,mono,no,18,no,white,no,no,768,105,3.6.1,legacy,legacy,6 9 4 5 2,osweb,1.4.0,1,0,n,37,,0,left,,,space,right,right,left,1006,,,11256,20983,20599,1006,2,legacy,968,1680,30,1050,30,0,25,1680,1632986269562,5,1024,2,48000,-16,experiment,1,odd,MacIntel,1,215057,,,211808,33,212833,180145,33,11298,109087,217074,213840,218090,33,217074,Sternberg_updated,22,29146,26,yes,1024
85,85,1111,1111,black,no,experiment,Mozilla,Netscape,"5.0 (Macintosh; Intel Mac OS X 10_15_7) AppleWebKit/537.36 (KHTML, like Gecko) Chrome/94.0.4606.61 Safari/537.36",legacy,legacy,legacy,0,uniform,1,1,left,26,26,26,26,0,0,0,26,26,0,0,0,26,26,26,0,0,26,26,0,30-08-21,30-08-21,09:17:21,Thu Sep 30 2021 09:17:21 GMT+0200 (Θερινή ώρα Κεντρικής Ευρώπης),The main experiment item,yes,0,0,/Users/ethan/Documents/GitHub/OpenSesame/Sternberg/experiment_files,0,0,0,no,mono,no,18,no,white,no,no,768,105,3.6.1,legacy,legacy,6 8 4,osweb,1.4.0,1,0,n,37,,0,left,,,space,right,right,left,860,,,11256,20983,20599,860,2,legacy,968,1680,30,1050,30,0,25,1680,1632986269562,3,1024,2,48000,-16,experiment,1,odd,MacIntel,1,221340,,,218090,33,219116,180145,33,11298,109087,223357,220124,224222,33,223356,Sternberg_updated,23,30006,27,yes,1024
86,86,1109,1109,black,no,experiment,Mozilla,Netscape,"5.0 (Macintosh; Intel Mac OS X 10_15_7) AppleWebKit/537.36 (KHTML, like Gecko) Chrome/94.0.4606.61 Safari/537.36",legacy,legacy,legacy,0,uniform,1,1,right,27,27,27,27,0,0,0,27,27,0,0,0,27,27,27,0,0,27,27,0,30-08-21,30-08-21,09:17:21,Thu Sep 30 2021 09:17:21 GMT+0200 (Θερινή ώρα Κεντρικής Ευρώπης),The main experiment item,yes,0,0,/Users/ethan/Documents/GitHub/OpenSesame/Sternberg/experiment_files,0,0,0,no,mono,no,18,no,white,no,no,768,105,3.6.1,legacy,legacy,7 1 3,osweb,1.4.0,1,2,y,37,,0,right,,,space,right,right,right,1043,,,11256,20983,20599,1043,2,legacy,968,1680,30,1050,30,0,25,1680,1632986269562,3,1024,2,48000,-16,experiment,1,odd,MacIntel,1,227458,,,224223,33,225251,180145,33,11298,109087,229475,226256,230525,33,229475,Sternberg_updated,24,31049,28,yes,1024
83,83,1140,1140,black,no,experiment,Mozilla,Netscape,"5.0 (Macintosh; Intel Mac OS X 10_15_7) AppleWebKit/537.36 (KHTML, like Gecko) Chrome/94.0.4606.61 Safari/537.36",legacy,legacy,legacy,0,uniform,0,0,right,28,28,28,28,0,0,0,28,28,0,0,0,28,28,28,0,0,28,28,0,30-08-21,30-08-21,09:17:21,Thu Sep 30 2021 09:17:21 GMT+0200 (Θερινή ώρα Κεντρικής Ευρώπης),The main experiment item,yes,0,0,/Users/ethan/Documents/GitHub/OpenSesame/Sternberg/experiment_files,0,0,0,no,mono,no,18,no,white,no,no,768,105,3.6.1,legacy,legacy,8 5 4 7 3 1,osweb,1.4.0,1,2,y,37,,0,None,,,space,right,right,None,2016,,,11256,20983,20599,2016,2,legacy,968,1680,30,1050,30,0,25,1680,1632986269562,6,1024,2,48000,-16,experiment,1,odd,MacIntel,5,233775,,,230526,33,231552,180145,33,11298,109087,235792,232559,237808,33,235792,Sternberg_updated,24,33065,29,yes,1024
83,83,1140,1140,black,no,experiment,Mozilla,Netscape,"5.0 (Macintosh; Intel Mac OS X 10_15_7) AppleWebKit/537.36 (KHTML, like Gecko) Chrome/94.0.4606.61 Safari/537.36",legacy,legacy,legacy,0,uniform,1,1,right,29,29,29,29,0,0,0,29,29,0,0,0,29,29,29,0,0,29,29,0,30-08-21,30-08-21,09:17:21,Thu Sep 30 2021 09:17:21 GMT+0200 (Θερινή ώρα Κεντρικής Ευρώπης),The main experiment item,yes,0,0,/Users/ethan/Documents/GitHub/OpenSesame/Sternberg/experiment_files,0,0,0,no,mono,no,18,no,white,no,no,768,105,3.6.1,legacy,legacy,9 1 7 2,osweb,1.4.0,1,2,y,37,,0,right,,,space,right,right,right,1135,,,11256,20983,20599,1135,2,legacy,968,1680,30,1050,30,0,25,1680,1632986269562,4,1024,2,48000,-16,experiment,1,odd,MacIntel,1,241045,,,230526,33,238822,237809,33,11298,109087,243061,239829,244211,33,243061,Sternberg_updated,25,34200,30,yes,1024
84,84,1135,1135,black,no,experiment,Mozilla,Netscape,"5.0 (Macintosh; Intel Mac OS X 10_15_7) AppleWebKit/537.36 (KHTML, like Gecko) Chrome/94.0.4606.61 Safari/537.36",legacy,legacy,legacy,0,uniform,1,1,right,30,30,30,30,0,0,0,30,30,0,0,0,30,30,30,0,0,30,30,0,30-08-21,30-08-21,09:17:21,Thu Sep 30 2021 09:17:21 GMT+0200 (Θερινή ώρα Κεντρικής Ευρώπης),The main experiment item,yes,0,0,/Users/ethan/Documents/GitHub/OpenSesame/Sternberg/experiment_files,0,0,0,no,mono,no,18,no,white,no,no,768,105,3.6.1,legacy,legacy,7 8 4 6 9 5,osweb,1.4.0,1,4,y,37,,0,right,,,space,right,right,right,998,,,11256,20983,20599,998,2,legacy,968,1680,30,1050,30,0,25,1680,1632986269562,6,1024,2,48000,-16,experiment,1,odd,MacIntel,6,247461,,,244212,33,245238,237809,33,11298,109087,249464,246245,250463,33,249463,Sternberg_updated,26,35198,31,yes,1024
84,84,1132,1132,black,no,experiment,Mozilla,Netscape,"5.0 (Macintosh; Intel Mac OS X 10_15_7) AppleWebKit/537.36 (KHTML, like Gecko) Chrome/94.0.4606.61 Safari/537.36",legacy,legacy,legacy,0,uniform,1,1,right,31,31,31,31,0,0,0,31,31,0,0,0,31,31,31,0,0,31,31,0,30-08-21,30-08-21,09:17:21,Thu Sep 30 2021 09:17:21 GMT+0200 (Θερινή ώρα Κεντρικής Ευρώπης),The main experiment item,yes,0,0,/Users/ethan/Documents/GitHub/OpenSesame/Sternberg/experiment_files,0,0,0,no,mono,no,18,no,white,no,no,768,105,3.6.1,legacy,legacy,6 7 8 5,osweb,1.4.0,1,3,y,37,,0,right,,,space,right,right,right,1021,,,11256,20983,20599,1021,2,legacy,968,1680,30,1050,30,0,25,1680,1632986269562,4,1024,2,48000,-16,experiment,1,odd,MacIntel,8,253713,,,250463,33,251491,237809,33,11298,109087,255730,252497,256763,33,255730,Sternberg_updated,27,36219,32,yes,1024
85,85,1129,1129,black,no,experiment,Mozilla,Netscape,"5.0 (Macintosh; Intel Mac OS X 10_15_7) AppleWebKit/537.36 (KHTML, like Gecko) Chrome/94.0.4606.61 Safari/537.36",legacy,legacy,legacy,0,uniform,1,1,right,32,32,32,32,0,0,0,32,32,0,0,0,32,32,32,0,0,32,32,0,30-08-21,30-08-21,09:17:21,Thu Sep 30 2021 09:17:21 GMT+0200 (Θερινή ώρα Κεντρικής Ευρώπης),The main experiment item,yes,0,0,/Users/ethan/Documents/GitHub/OpenSesame/Sternberg/experiment_files,0,0,0,no,mono,no,18,no,white,no,no,768,105,3.6.1,legacy,legacy,8 3,osweb,1.4.0,1,2,y,37,,0,right,,,space,right,right,right,1041,,,11256,20983,20599,1041,2,legacy,968,1680,30,1050,30,0,25,1680,1632986269562,2,1024,2,48000,-16,experiment,1,odd,MacIntel,3,260017,,,256764,33,257792,237809,33,11298,109087,262034,258801,263084,33,262034,Sternberg_updated,28,37260,33,yes,1024
85,85,1141,1141,black,no,experiment,Mozilla,Netscape,"5.0 (Macintosh; Intel Mac OS X 10_15_7) AppleWebKit/537.36 (KHTML, like Gecko) Chrome/94.0.4606.61 Safari/537.36",legacy,legacy,legacy,0,uniform,1,1,right,33,33,33,33,0,0,0,33,33,0,0,0,33,33,33,0,0,33,33,0,30-08-21,30-08-21,09:17:21,Thu Sep 30 2021 09:17:21 GMT+0200 (Θερινή ώρα Κεντρικής Ευρώπης),The main experiment item,yes,0,0,/Users/ethan/Documents/GitHub/OpenSesame/Sternberg/experiment_files,0,0,0,no,mono,no,18,no,white,no,no,768,105,3.6.1,legacy,legacy,3 4,osweb,1.4.0,1,1,y,37,,0,right,,,space,right,right,right,1522,,,11256,20983,20599,1522,2,legacy,968,1680,30,1050,30,0,25,1680,1632986269562,2,1024,2,48000,-16,experiment,1,odd,MacIntel,3,266333,,,263084,33,264111,237809,33,11298,109087,268351,265117,269883,33,268351,Sternberg_updated,29,38782,34,yes,1024
86,86,1144,1144,black,no,experiment,Mozilla,Netscape,"5.0 (Macintosh; Intel Mac OS X 10_15_7) AppleWebKit/537.36 (KHTML, like Gecko) Chrome/94.0.4606.61 Safari/537.36",legacy,legacy,legacy,0,uniform,1,1,left,34,34,34,34,0,0,0,34,34,0,0,0,34,34,34,0,0,34,34,0,30-08-21,30-08-21,09:17:21,Thu Sep 30 2021 09:17:21 GMT+0200 (Θερινή ώρα Κεντρικής Ευρώπης),The main experiment item,yes,0,0,/Users/ethan/Documents/GitHub/OpenSesame/Sternberg/experiment_files,0,0,0,no,mono,no,18,no,white,no,no,768,105,3.6.1,legacy,legacy,1 6 4 3 9 7,osweb,1.4.0,1,0,n,37,,0,left,,,space,right,right,left,1254,,,11256,20983,20599,1254,2,legacy,968,1680,30,1050,30,0,25,1680,1632986269562,6,1024,2,48000,-16,experiment,1,odd,MacIntel,8,273118,,,269883,33,270895,237809,33,11298,109087,275134,271901,276401,33,275134,Sternberg_updated,30,40036,35,yes,1024
86,86,1140,1140,black,no,experiment,Mozilla,Netscape,"5.0 (Macintosh; Intel Mac OS X 10_15_7) AppleWebKit/537.36 (KHTML, like Gecko) Chrome/94.0.4606.61 Safari/537.36",legacy,legacy,legacy,0,uniform,1,1,left,35,35,35,35,0,0,0,35,35,0,0,0,35,35,35,0,0,35,35,0,30-08-21,30-08-21,09:17:21,Thu Sep 30 2021 09:17:21 GMT+0200 (Θερινή ώρα Κεντρικής Ευρώπης),The main experiment item,yes,0,0,/Users/ethan/Documents/GitHub/OpenSesame/Sternberg/experiment_files,0,0,0,no,mono,no,18,no,white,no,no,768,105,3.6.1,legacy,legacy,4 2 6 9,osweb,1.4.0,1,0,n,37,,0,left,,,space,right,right,left,1005,,,11256,20983,20599,1005,2,legacy,968,1680,30,1050,30,0,25,1680,1632986269562,4,1024,2,48000,-16,experiment,1,odd,MacIntel,7,279651,,,276403,33,277428,237809,33,11298,109087,281656,278435,282672,33,281656,Sternberg_updated,31,41041,36,yes,1024
86,86,1138,1138,black,no,experiment,Mozilla,Netscape,"5.0 (Macintosh; Intel Mac OS X 10_15_7) AppleWebKit/537.36 (KHTML, like Gecko) Chrome/94.0.4606.61 Safari/537.36",legacy,legacy,legacy,0,uniform,1,1,right,36,36,36,36,0,0,0,36,36,0,0,0,36,36,36,0,0,36,36,0,30-08-21,30-08-21,09:17:21,Thu Sep 30 2021 09:17:21 GMT+0200 (Θερινή ώρα Κεντρικής Ευρώπης),The main experiment item,yes,0,0,/Users/ethan/Documents/GitHub/OpenSesame/Sternberg/experiment_files,0,0,0,no,mono,no,18,no,white,no,no,768,105,3.6.1,legacy,legacy,7 6,osweb,1.4.0,1,2,y,37,,0,right,,,space,right,right,right,1082,,,11256,20983,20599,1082,2,legacy,968,1680,30,1050,30,0,25,1680,1632986269562,2,1024,2,48000,-16,experiment,1,odd,MacIntel,6,285923,,,282673,33,283699,237809,33,11298,109087,287939,284706,289021,33,287939,Sternberg_updated,32,42123,37,yes,1024
87,87,1134,1134,black,no,experiment,Mozilla,Netscape,"5.0 (Macintosh; Intel Mac OS X 10_15_7) AppleWebKit/537.36 (KHTML, like Gecko) Chrome/94.0.4606.61 Safari/537.36",legacy,legacy,legacy,0,uniform,1,1,right,37,37,37,37,0,0,0,37,37,0,0,0,37,37,37,0,0,37,37,0,30-08-21,30-08-21,09:17:21,Thu Sep 30 2021 09:17:21 GMT+0200 (Θερινή ώρα Κεντρικής Ευρώπης),The main experiment item,yes,0,0,/Users/ethan/Documents/GitHub/OpenSesame/Sternberg/experiment_files,0,0,0,no,mono,no,18,no,white,no,no,768,105,3.6.1,legacy,legacy,9 4 2,osweb,1.4.0,1,1,y,37,,0,right,,,space,right,right,right,982,,,11256,20983,20599,982,2,legacy,968,1680,30,1050,30,0,25,1680,1632986269562,3,1024,2,48000,-16,experiment,1,odd,MacIntel,9,292270,,,289022,33,290050,237809,33,11298,109087,294285,291053,295270,33,294285,Sternberg_updated,33,43105,38,yes,1024
87,87,1142,1142,black,no,experiment,Mozilla,Netscape,"5.0 (Macintosh; Intel Mac OS X 10_15_7) AppleWebKit/537.36 (KHTML, like Gecko) Chrome/94.0.4606.61 Safari/537.36",legacy,legacy,legacy,0,uniform,1,1,left,38,38,38,38,0,0,0,38,38,0,0,0,38,38,38,0,0,38,38,0,30-08-21,30-08-21,09:17:21,Thu Sep 30 2021 09:17:21 GMT+0200 (Θερινή ώρα Κεντρικής Ευρώπης),The main experiment item,yes,0,0,/Users/ethan/Documents/GitHub/OpenSesame/Sternberg/experiment_files,0,0,0,no,mono,no,18,no,white,no,no,768,105,3.6.1,legacy,legacy,7 6 4 8 1 2,osweb,1.4.0,1,0,n,37,,0,left,,,space,right,right,left,1425,,,11256,20983,20599,1425,2,legacy,968,1680,30,1050,30,0,25,1680,1632986269562,6,1024,2,48000,-16,experiment,1,odd,MacIntel,9,298519,,,295270,33,296297,237809,33,11298,109087,300536,297303,301969,33,300536,Sternberg_updated,34,44530,39,yes,1024
88,88,1138,1138,black,no,experiment,Mozilla,Netscape,"5.0 (Macintosh; Intel Mac OS X 10_15_7) AppleWebKit/537.36 (KHTML, like Gecko) Chrome/94.0.4606.61 Safari/537.36",legacy,legacy,legacy,0,uniform,1,1,left,39,39,39,39,0,0,0,39,39,0,0,0,39,39,39,0,0,39,39,0,30-08-21,30-08-21,09:17:21,Thu Sep 30 2021 09:17:21 GMT+0200 (Θερινή ώρα Κεντρικής Ευρώπης),The main experiment item,yes,0,0,/Users/ethan/Documents/GitHub/OpenSesame/Sternberg/experiment_files,0,0,0,no,mono,no,18,no,white,no,no,768,105,3.6.1,legacy,legacy,5 9 2 3,osweb,1.4.0,1,0,n,37,,0,left,,,space,right,right,left,1004,,,11256,20983,20599,1004,2,legacy,968,1680,30,1050,30,0,25,1680,1632986269562,4,1024,2,48000,-16,experiment,1,odd,MacIntel,8,305210,,,301970,33,302990,237809,33,11298,109087,307227,303994,308243,33,307227,Sternberg_updated,35,45534,40,yes,1024
88,88,1136,1136,black,no,experiment,Mozilla,Netscape,"5.0 (Macintosh; Intel Mac OS X 10_15_7) AppleWebKit/537.36 (KHTML, like Gecko) Chrome/94.0.4606.61 Safari/537.36",legacy,legacy,legacy,0,uniform,1,1,right,40,40,40,40,0,0,0,40,40,0,0,0,40,40,40,0,0,40,40,0,30-08-21,30-08-21,09:17:21,Thu Sep 30 2021 09:17:21 GMT+0200 (Θερινή ώρα Κεντρικής Ευρώπης),The main experiment item,yes,0,0,/Users/ethan/Documents/GitHub/OpenSesame/Sternberg/experiment_files,0,0,0,no,mono,no,18,no,white,no,no,768,105,3.6.1,legacy,legacy,4 9 7 8 5 3,osweb,1.4.0,1,4,y,37,,0,right,,,space,right,right,right,1050,,,11256,20983,20599,1050,2,legacy,968,1680,30,1050,30,0,25,1680,1632986269562,6,1024,2,48000,-16,experiment,1,odd,MacIntel,8,311493,,,308244,33,309269,237809,33,11298,109087,313509,310276,314566,33,313509,Sternberg_updated,36,46584,41,yes,1024
88,88,1137,1137,black,no,experiment,Mozilla,Netscape,"5.0 (Macintosh; Intel Mac OS X 10_15_7) AppleWebKit/537.36 (KHTML, like Gecko) Chrome/94.0.4606.61 Safari/537.36",legacy,legacy,legacy,0,uniform,1,1,left,41,41,41,41,0,0,0,41,41,0,0,0,41,41,41,0,0,41,41,0,30-08-21,30-08-21,09:17:21,Thu Sep 30 2021 09:17:21 GMT+0200 (Θερινή ώρα Κεντρικής Ευρώπης),The main experiment item,yes,0,0,/Users/ethan/Documents/GitHub/OpenSesame/Sternberg/experiment_files,0,0,0,no,mono,no,18,no,white,no,no,768,105,3.6.1,legacy,legacy,3 4 9 6 7 8,osweb,1.4.0,1,0,n,37,,0,left,,,space,right,right,left,1165,,,11256,20983,20599,1165,2,legacy,968,1680,30,1050,30,0,25,1680,1632986269562,6,1024,2,48000,-16,experiment,1,odd,MacIntel,2,317817,,,314568,33,315594,237809,33,11298,109087,319834,316600,321017,33,319834,Sternberg_updated,37,47749,42,yes,1024
88,88,1131,1131,black,no,experiment,Mozilla,Netscape,"5.0 (Macintosh; Intel Mac OS X 10_15_7) AppleWebKit/537.36 (KHTML, like Gecko) Chrome/94.0.4606.61 Safari/537.36",legacy,legacy,legacy,0,uniform,1,1,left,42,42,42,42,0,0,0,42,42,0,0,0,42,42,42,0,0,42,42,0,30-08-21,30-08-21,09:17:21,Thu Sep 30 2021 09:17:21 GMT+0200 (Θερινή ώρα Κεντρικής Ευρώπης),The main experiment item,yes,0,0,/Users/ethan/Documents/GitHub/OpenSesame/Sternberg/experiment_files,0,0,0,no,mono,no,18,no,white,no,no,768,105,3.6.1,legacy,legacy,7 4 2 8 1 9,osweb,1.4.0,1,0,n,37,,0,left,,,space,right,right,left,867,,,11256,20983,20599,867,2,legacy,968,1680,30,1050,30,0,25,1680,1632986269562,6,1024,2,48000,-16,experiment,1,odd,MacIntel,5,324253,,,321017,33,322044,237809,33,11298,109087,326254,323050,327137,33,326254,Sternberg_updated,38,48616,43,yes,1024
89,89,1124,1124,black,no,experiment,Mozilla,Netscape,"5.0 (Macintosh; Intel Mac OS X 10_15_7) AppleWebKit/537.36 (KHTML, like Gecko) Chrome/94.0.4606.61 Safari/537.36",legacy,legacy,legacy,0,uniform,1,1,right,43,43,43,43,0,0,0,43,43,0,0,0,43,43,43,0,0,43,43,0,30-08-21,30-08-21,09:17:21,Thu Sep 30 2021 09:17:21 GMT+0200 (Θερινή ώρα Κεντρικής Ευρώπης),The main experiment item,yes,0,0,/Users/ethan/Documents/GitHub/OpenSesame/Sternberg/experiment_files,0,0,0,no,mono,no,18,no,white,no,no,768,105,3.6.1,legacy,legacy,8 9 5 6 7,osweb,1.4.0,1,1,y,37,,0,right,,,space,right,right,right,827,,,11256,20983,20599,827,2,legacy,968,1680,30,1050,30,0,25,1680,1632986269562,5,1024,2,48000,-16,experiment,1,odd,MacIntel,8,330387,,,327138,33,328164,237809,33,11298,109087,332404,329170,333237,33,332404,Sternberg_updated,39,49443,44,yes,1024
87,87,1119,1119,black,no,experiment,Mozilla,Netscape,"5.0 (Macintosh; Intel Mac OS X 10_15_7) AppleWebKit/537.36 (KHTML, like Gecko) Chrome/94.0.4606.61 Safari/537.36",legacy,legacy,legacy,0,uniform,0,0,right,44,44,44,44,0,0,0,44,44,0,0,0,44,44,44,0,0,44,44,0,30-08-21,30-08-21,09:17:21,Thu Sep 30 2021 09:17:21 GMT+0200 (Θερινή ώρα Κεντρικής Ευρώπης),The main experiment item,yes,0,0,/Users/ethan/Documents/GitHub/OpenSesame/Sternberg/experiment_files,0,0,0,no,mono,no,18,no,white,no,no,768,105,3.6.1,legacy,legacy,5 7 8 2 3 8,osweb,1.4.0,1,5,y,37,,0,left,,,space,right,right,left,892,,,11256,20983,20599,892,2,legacy,968,1680,30,1050,30,0,25,1680,1632986269562,6,1024,2,48000,-16,experiment,1,odd,MacIntel,3,336481,,,333238,33,334258,237809,33,11298,109087,338482,335265,339381,33,338482,Sternberg_updated,39,50335,45,yes,1024
87,87,1118,1118,black,no,experiment,Mozilla,Netscape,"5.0 (Macintosh; Intel Mac OS X 10_15_7) AppleWebKit/537.36 (KHTML, like Gecko) Chrome/94.0.4606.61 Safari/537.36",legacy,legacy,legacy,0,uniform,1,1,right,45,45,45,45,0,0,0,45,45,0,0,0,45,45,45,0,0,45,45,0,30-08-21,30-08-21,09:17:21,Thu Sep 30 2021 09:17:21 GMT+0200 (Θερινή ώρα Κεντρικής Ευρώπης),The main experiment item,yes,0,0,/Users/ethan/Documents/GitHub/OpenSesame/Sternberg/experiment_files,0,0,0,no,mono,no,18,no,white,no,no,768,105,3.6.1,legacy,legacy,6 2,osweb,1.4.0,1,1,y,37,,0,right,,,space,right,right,right,1115,,,11256,20983,20599,1115,2,legacy,968,1680,30,1050,30,0,25,1680,1632986269562,2,1024,2,48000,-16,experiment,1,odd,MacIntel,6,342631,,,333238,33,340409,339382,33,11298,109087,344648,341415,345764,33,344648,Sternberg_updated,40,51450,46,yes,1024
87,87,1116,1116,black,no,experiment,Mozilla,Netscape,"5.0 (Macintosh; Intel Mac OS X 10_15_7) AppleWebKit/537.36 (KHTML, like Gecko) Chrome/94.0.4606.61 Safari/537.36",legacy,legacy,legacy,0,uniform,1,1,right,46,46,46,46,0,0,0,46,46,0,0,0,46,46,46,0,0,46,46,0,30-08-21,30-08-21,09:17:21,Thu Sep 30 2021 09:17:21 GMT+0200 (Θερινή ώρα Κεντρικής Ευρώπης),The main experiment item,yes,0,0,/Users/ethan/Documents/GitHub/OpenSesame/Sternberg/experiment_files,0,0,0,no,mono,no,18,no,white,no,no,768,105,3.6.1,legacy,legacy,8 5 1 3 9,osweb,1.4.0,1,4,y,37,,0,right,,,space,right,right,right,1006,,,11256,20983,20599,1006,2,legacy,968,1680,30,1050,30,0,25,1680,1632986269562,5,1024,2,48000,-16,experiment,1,odd,MacIntel,3,349015,,,345764,33,346792,339382,33,11298,109087,351031,347798,352047,33,351031,Sternberg_updated,41,52456,47,yes,1024
88,88,1118,1118,black,no,experiment,Mozilla,Netscape,"5.0 (Macintosh; Intel Mac OS X 10_15_7) AppleWebKit/537.36 (KHTML, like Gecko) Chrome/94.0.4606.61 Safari/537.36",legacy,legacy,legacy,0,uniform,1,1,right,47,47,47,47,0,0,0,47,47,0,0,0,47,47,47,0,0,47,47,0,30-08-21,30-08-21,09:17:21,Thu Sep 30 2021 09:17:21 GMT+0200 (Θερινή ώρα Κεντρικής Ευρώπης),The main experiment item,yes,0,0,/Users/ethan/Documents/GitHub/OpenSesame/Sternberg/experiment_files,0,0,0,no,mono,no,18,no,white,no,no,768,105,3.6.1,legacy,legacy,4 3 2 5 8,osweb,1.4.0,1,2,y,37,,0,right,,,space,right,right,right,1211,,,11256,20983,20599,1211,2,legacy,968,1680,30,1050,30,0,25,1680,1632986269562,5,1024,2,48000,-16,experiment,1,odd,MacIntel,3,355284,,,352048,33,353075,339382,33,11298,109087,357300,354081,358516,33,357300,Sternberg_updated,42,53667,48,yes,1024
88,88,1117,1117,black,no,experiment,Mozilla,Netscape,"5.0 (Macintosh; Intel Mac OS X 10_15_7) AppleWebKit/537.36 (KHTML, like Gecko) Chrome/94.0.4606.61 Safari/537.36",legacy,legacy,legacy,0,uniform,1,1,left,48,48,48,48,0,0,0,48,48,0,0,0,48,48,48,0,0,48,48,0,30-08-21,30-08-21,09:17:21,Thu Sep 30 2021 09:17:21 GMT+0200 (Θερινή ώρα Κεντρικής Ευρώπης),The main experiment item,yes,0,0,/Users/ethan/Documents/GitHub/OpenSesame/Sternberg/experiment_files,0,0,0,no,mono,no,18,no,white,no,no,768,105,3.6.1,legacy,legacy,1 3 2 6 9,osweb,1.4.0,1,0,n,37,,0,left,,,space,right,right,left,1045,,,11256,20983,20599,1045,2,legacy,968,1680,30,1050,30,0,25,1680,1632986269562,5,1024,2,48000,-16,experiment,1,odd,MacIntel,5,361750,,,358518,33,359543,339382,33,11298,109087,363767,360549,364815,33,363767,Sternberg_updated,43,54712,49,yes,1024
88,88,1110,1110,black,no,experiment,Mozilla,Netscape,"5.0 (Macintosh; Intel Mac OS X 10_15_7) AppleWebKit/537.36 (KHTML, like Gecko) Chrome/94.0.4606.61 Safari/537.36",legacy,legacy,legacy,0,uniform,1,1,left,49,49,49,49,0,0,0,49,49,0,0,0,49,49,49,0,0,49,49,0,30-08-21,30-08-21,09:17:21,Thu Sep 30 2021 09:17:21 GMT+0200 (Θερινή ώρα Κεντρικής Ευρώπης),The main experiment item,yes,0,0,/Users/ethan/Documents/GitHub/OpenSesame/Sternberg/experiment_files,0,0,0,no,mono,no,18,no,white,no,no,768,105,3.6.1,legacy,legacy,7 1 8 4 9 3,osweb,1.4.0,1,0,n,37,,0,left,,,space,right,right,left,795,,,11256,20983,20599,795,2,legacy,968,1680,30,1050,30,0,25,1680,1632986269562,6,1024,2,48000,-16,experiment,1,odd,MacIntel,6,368051,,,364816,33,365828,339382,33,11298,109087,370068,366834,370866,33,370068,Sternberg_updated,44,55507,50,yes,1024
88,88,1105,1105,black,no,experiment,Mozilla,Netscape,"5.0 (Macintosh; Intel Mac OS X 10_15_7) AppleWebKit/537.36 (KHTML, like Gecko) Chrome/94.0.4606.61 Safari/537.36",legacy,legacy,legacy,0,uniform,1,1,right,50,50,50,50,0,0,0,50,50,0,0,0,50,50,50,0,0,50,50,0,30-08-21,30-08-21,09:17:21,Thu Sep 30 2021 09:17:21 GMT+0200 (Θερινή ώρα Κεντρικής Ευρώπης),The main experiment item,yes,0,0,/Users/ethan/Documents/GitHub/OpenSesame/Sternberg/experiment_files,0,0,0,no,mono,no,18,no,white,no,no,768,105,3.6.1,legacy,legacy,9 3 1 2 5,osweb,1.4.0,1,4,y,37,,0,right,,,space,right,right,right,871,,,11256,20983,20599,871,2,legacy,968,1680,30,1050,30,0,25,1680,1632986269562,5,1024,2,48000,-16,experiment,1,odd,MacIntel,2,374118,,,370867,33,371896,339382,33,11298,109087,376134,372901,377013,33,376134,Sternberg_updated,45,56378,51,yes,1024
88,88,1101,1101,black,no,experiment,Mozilla,Netscape,"5.0 (Macintosh; Intel Mac OS X 10_15_7) AppleWebKit/537.36 (KHTML, like Gecko) Chrome/94.0.4606.61 Safari/537.36",legacy,legacy,legacy,0,uniform,1,1,left,51,51,51,51,0,0,0,51,51,0,0,0,51,51,51,0,0,51,51,0,30-08-21,30-08-21,09:17:21,Thu Sep 30 2021 09:17:21 GMT+0200 (Θερινή ώρα Κεντρικής Ευρώπης),The main experiment item,yes,0,0,/Users/ethan/Documents/GitHub/OpenSesame/Sternberg/experiment_files,0,0,0,no,mono,no,18,no,white,no,no,768,105,3.6.1,legacy,legacy,2 8 6 3 1,osweb,1.4.0,1,0,n,37,,0,left,,,space,right,right,left,852,,,11256,20983,20599,852,2,legacy,968,1680,30,1050,30,0,25,1680,1632986269562,5,1024,2,48000,-16,experiment,1,odd,MacIntel,7,380263,,,377014,33,378041,339382,33,11298,109087,382280,379047,383146,33,382280,Sternberg_updated,46,57230,52,yes,1024
89,89,1097,1097,black,no,experiment,Mozilla,Netscape,"5.0 (Macintosh; Intel Mac OS X 10_15_7) AppleWebKit/537.36 (KHTML, like Gecko) Chrome/94.0.4606.61 Safari/537.36",legacy,legacy,legacy,0,uniform,1,1,left,52,52,52,52,0,0,0,52,52,0,0,0,52,52,52,0,0,52,52,0,30-08-21,30-08-21,09:17:21,Thu Sep 30 2021 09:17:21 GMT+0200 (Θερινή ώρα Κεντρικής Ευρώπης),The main experiment item,yes,0,0,/Users/ethan/Documents/GitHub/OpenSesame/Sternberg/experiment_files,0,0,0,no,mono,no,18,no,white,no,no,768,105,3.6.1,legacy,legacy,6 9 7 3 8 2,osweb,1.4.0,1,0,n,37,,0,left,,,space,right,right,left,926,,,11256,20983,20599,926,2,legacy,968,1680,30,1050,30,0,25,1680,1632986269562,6,1024,2,48000,-16,experiment,1,odd,MacIntel,5,386393,,,383147,33,384173,339382,33,11298,109087,388410,385180,389342,33,388410,Sternberg_updated,47,58156,53,yes,1024
89,89,1096,1096,black,no,experiment,Mozilla,Netscape,"5.0 (Macintosh; Intel Mac OS X 10_15_7) AppleWebKit/537.36 (KHTML, like Gecko) Chrome/94.0.4606.61 Safari/537.36",legacy,legacy,legacy,0,uniform,1,1,left,53,53,53,53,0,0,0,53,53,0,0,0,53,53,53,0,0,53,53,0,30-08-21,30-08-21,09:17:21,Thu Sep 30 2021 09:17:21 GMT+0200 (Θερινή ώρα Κεντρικής Ευρώπης),The main experiment item,yes,0,0,/Users/ethan/Documents/GitHub/OpenSesame/Sternberg/experiment_files,0,0,0,no,mono,no,18,no,white,no,no,768,105,3.6.1,legacy,legacy,1 7 5 2,osweb,1.4.0,1,0,n,37,,0,left,,,space,right,right,left,1004,,,11256,20983,20599,1004,2,legacy,968,1680,30,1050,30,0,25,1680,1632986269562,4,1024,2,48000,-16,experiment,1,odd,MacIntel,3,392576,,,389346,33,390371,339382,33,11298,109087,394593,391375,395608,33,394593,Sternberg_updated,48,59160,54,yes,1024
89,89,1090,1090,black,no,experiment,Mozilla,Netscape,"5.0 (Macintosh; Intel Mac OS X 10_15_7) AppleWebKit/537.36 (KHTML, like Gecko) Chrome/94.0.4606.61 Safari/537.36",legacy,legacy,legacy,0,uniform,1,1,right,54,54,54,54,0,0,0,54,54,0,0,0,54,54,54,0,0,54,54,0,30-08-21,30-08-21,09:17:21,Thu Sep 30 2021 09:17:21 GMT+0200 (Θερινή ώρα Κεντρικής Ευρώπης),The main experiment item,yes,0,0,/Users/ethan/Documents/GitHub/OpenSesame/Sternberg/experiment_files,0,0,0,no,mono,no,18,no,white,no,no,768,105,3.6.1,legacy,legacy,6 5,osweb,1.4.0,1,2,y,37,,0,right,,,space,right,right,right,797,,,11256,20983,20599,797,2,legacy,968,1680,30,1050,30,0,25,1680,1632986269562,2,1024,2,48000,-16,experiment,1,odd,MacIntel,5,398845,,,395609,33,396622,339382,33,11298,109087,400862,397629,401660,33,400862,Sternberg_updated,49,59957,55,yes,1024
89,89,1097,1097,black,no,experiment,Mozilla,Netscape,"5.0 (Macintosh; Intel Mac OS X 10_15_7) AppleWebKit/537.36 (KHTML, like Gecko) Chrome/94.0.4606.61 Safari/537.36",legacy,legacy,legacy,0,uniform,1,1,right,55,55,55,55,0,0,0,55,55,0,0,0,55,55,55,0,0,55,55,0,30-08-21,30-08-21,09:17:21,Thu Sep 30 2021 09:17:21 GMT+0200 (Θερινή ώρα Κεντρικής Ευρώπης),The main experiment item,yes,0,0,/Users/ethan/Documents/GitHub/OpenSesame/Sternberg/experiment_files,0,0,0,no,mono,no,18,no,white,no,no,768,105,3.6.1,legacy,legacy,3 9 7 6 4,osweb,1.4.0,1,3,y,37,,0,right,right,,space,right,right,right,1494,130376,,11256,20983,20599,1494,2,legacy,968,1680,30,1050,30,0,25,1680,1632986269562,5,1024,2,48000,-16,experiment,1,odd,MacIntel,7,535279,402678,,401661,33,533065,339382,33,11298,109087,537295,534074,538794,33,537295,Sternberg_updated,50,61451,56,yes,1024
89,89,1097,1097,black,no,experiment,Mozilla,Netscape,"5.0 (Macintosh; Intel Mac OS X 10_15_7) AppleWebKit/537.36 (KHTML, like Gecko) Chrome/94.0.4606.61 Safari/537.36",legacy,legacy,legacy,0,uniform,1,1,left,56,56,56,56,0,0,0,56,56,0,0,0,56,56,56,0,0,56,56,0,30-08-21,30-08-21,09:17:21,Thu Sep 30 2021 09:17:21 GMT+0200 (Θερινή ώρα Κεντρικής Ευρώπης),The main experiment item,yes,0,0,/Users/ethan/Documents/GitHub/OpenSesame/Sternberg/experiment_files,0,0,0,no,mono,no,18,no,white,no,no,768,105,3.6.1,legacy,legacy,4 2 7 6 1 3,osweb,1.4.0,1,0,n,37,,0,left,right,,space,right,right,left,1075,130376,,11256,20983,20599,1075,2,legacy,968,1680,30,1050,30,0,25,1680,1632986269562,6,1024,2,48000,-16,experiment,1,odd,MacIntel,8,542045,402678,,538795,33,539822,339382,33,11298,109087,544062,540828,545144,33,544062,Sternberg_updated,51,62526,57,yes,1024
90,90,1092,1092,black,no,experiment,Mozilla,Netscape,"5.0 (Macintosh; Intel Mac OS X 10_15_7) AppleWebKit/537.36 (KHTML, like Gecko) Chrome/94.0.4606.61 Safari/537.36",legacy,legacy,legacy,0,uniform,1,1,right,57,57,57,57,0,0,0,57,57,0,0,0,57,57,57,0,0,57,57,0,30-08-21,30-08-21,09:17:21,Thu Sep 30 2021 09:17:21 GMT+0200 (Θερινή ώρα Κεντρικής Ευρώπης),The main experiment item,yes,0,0,/Users/ethan/Documents/GitHub/OpenSesame/Sternberg/experiment_files,0,0,0,no,mono,no,18,no,white,no,no,768,105,3.6.1,legacy,legacy,3 5 4 7,osweb,1.4.0,1,1,y,37,,0,right,right,,space,right,right,right,815,130376,,11256,20983,20599,815,2,legacy,968,1680,30,1050,30,0,25,1680,1632986269562,4,1024,2,48000,-16,experiment,1,odd,MacIntel,3,548380,402678,,545145,33,546158,339382,33,11298,109087,550397,547164,551212,33,550397,Sternberg_updated,52,63341,58,yes,1024
90,90,1089,1089,black,no,experiment,Mozilla,Netscape,"5.0 (Macintosh; Intel Mac OS X 10_15_7) AppleWebKit/537.36 (KHTML, like Gecko) Chrome/94.0.4606.61 Safari/537.36",legacy,legacy,legacy,0,uniform,1,1,left,58,58,58,58,0,0,0,58,58,0,0,0,58,58,58,0,0,58,58,0,30-08-21,30-08-21,09:17:21,Thu Sep 30 2021 09:17:21 GMT+0200 (Θερινή ώρα Κεντρικής Ευρώπης),The main experiment item,yes,0,0,/Users/ethan/Documents/GitHub/OpenSesame/Sternberg/experiment_files,0,0,0,no,mono,no,18,no,white,no,no,768,105,3.6.1,legacy,legacy,1,osweb,1.4.0,1,0,n,37,,0,left,right,,space,right,right,left,926,130376,,11256,20983,20599,926,2,legacy,968,1680,30,1050,30,0,25,1680,1632986269562,1,1024,2,48000,-16,experiment,1,odd,MacIntel,7,554447,402678,,551212,33,552224,339382,33,11298,109087,556464,553230,557403,33,556464,Sternberg_updated,53,64267,59,yes,1024
90,90,1086,1086,black,no,experiment,Mozilla,Netscape,"5.0 (Macintosh; Intel Mac OS X 10_15_7) AppleWebKit/537.36 (KHTML, like Gecko) Chrome/94.0.4606.61 Safari/537.36",legacy,legacy,legacy,0,uniform,1,1,left,59,59,59,59,0,0,0,59,59,0,0,0,59,59,59,0,0,59,59,0,30-08-21,30-08-21,09:17:21,Thu Sep 30 2021 09:17:21 GMT+0200 (Θερινή ώρα Κεντρικής Ευρώπης),The main experiment item,yes,0,0,/Users/ethan/Documents/GitHub/OpenSesame/Sternberg/experiment_files,0,0,0,no,mono,no,18,no,white,no,no,768,105,3.6.1,legacy,legacy,7 9 1 6,osweb,1.4.0,1,0,n,37,,0,left,right,,space,right,right,left,875,130376,,11256,20983,20599,875,2,legacy,968,1680,30,1050,30,0,25,1680,1632986269562,4,1024,2,48000,-16,experiment,1,odd,MacIntel,4,560652,402678,,557403,33,558431,339382,33,11298,109087,562670,559437,563553,33,562670,Sternberg_updated,54,65142,60,yes,1024
90,90,1080,1080,black,no,experiment,Mozilla,Netscape,"5.0 (Macintosh; Intel Mac OS X 10_15_7) AppleWebKit/537.36 (KHTML, like Gecko) Chrome/94.0.4606.61 Safari/537.36",legacy,legacy,legacy,0,uniform,1,1,right,60,60,60,60,0,0,0,60,60,0,0,0,60,60,60,0,0,60,60,0,30-08-21,30-08-21,09:17:21,Thu Sep 30 2021 09:17:21 GMT+0200 (Θερινή ώρα Κεντρικής Ευρώπης),The main experiment item,yes,0,0,/Users/ethan/Documents/GitHub/OpenSesame/Sternberg/experiment_files,0,0,0,no,mono,no,18,no,white,no,no,768,105,3.6.1,legacy,legacy,5 2 9 6 1 7,osweb,1.4.0,1,3,y,37,,0,right,right,,space,right,right,right,720,130376,,11256,20983,20599,720,2,legacy,968,1680,30,1050,30,0,25,1680,1632986269562,6,1024,2,48000,-16,experiment,1,odd,MacIntel,9,566788,402678,,563554,33,564580,339382,33,11298,109087,568805,565587,569538,33,568805,Sternberg_updated,55,65862,61,yes,1024
90,90,1082,1082,black,no,experiment,Mozilla,Netscape,"5.0 (Macintosh; Intel Mac OS X 10_15_7) AppleWebKit/537.36 (KHTML, like Gecko) Chrome/94.0.4606.61 Safari/537.36",legacy,legacy,legacy,0,uniform,1,1,right,61,61,61,61,0,0,0,61,61,0,0,0,61,61,61,0,0,61,61,0,30-08-21,30-08-21,09:17:21,Thu Sep 30 2021 09:17:21 GMT+0200 (Θερινή ώρα Κεντρικής Ευρώπης),The main experiment item,yes,0,0,/Users/ethan/Documents/GitHub/OpenSesame/Sternberg/experiment_files,0,0,0,no,mono,no,18,no,white,no,no,768,105,3.6.1,legacy,legacy,3 2 1 4 7,osweb,1.4.0,1,2,y,37,,0,right,right,,space,right,right,right,1200,130376,,11256,20983,20599,1200,2,legacy,968,1680,30,1050,30,0,25,1680,1632986269562,5,1024,2,48000,-16,experiment,1,odd,MacIntel,2,572787,402678,,569538,33,570565,339382,33,11298,109087,574804,571571,576020,33,574804,Sternberg_updated,56,67062,62,yes,1024
90,90,1079,1079,black,no,experiment,Mozilla,Netscape,"5.0 (Macintosh; Intel Mac OS X 10_15_7) AppleWebKit/537.36 (KHTML, like Gecko) Chrome/94.0.4606.61 Safari/537.36",legacy,legacy,legacy,0,uniform,1,1,left,62,62,62,62,0,0,0,62,62,0,0,0,62,62,62,0,0,62,62,0,30-08-21,30-08-21,09:17:21,Thu Sep 30 2021 09:17:21 GMT+0200 (Θερινή ώρα Κεντρικής Ευρώπης),The main experiment item,yes,0,0,/Users/ethan/Documents/GitHub/OpenSesame/Sternberg/experiment_files,0,0,0,no,mono,no,18,no,white,no,no,768,105,3.6.1,legacy,legacy,9 5 3 2 8 6,osweb,1.4.0,1,0,n,37,,0,left,right,,space,right,right,left,903,130376,,11256,20983,20599,903,2,legacy,968,1680,30,1050,30,0,25,1680,1632986269562,6,1024,2,48000,-16,experiment,1,odd,MacIntel,7,579262,402678,,576021,33,577039,339382,33,11298,109087,581279,578046,582195,33,581279,Sternberg_updated,57,67965,63,yes,1024
91,91,1078,1078,black,no,experiment,Mozilla,Netscape,"5.0 (Macintosh; Intel Mac OS X 10_15_7) AppleWebKit/537.36 (KHTML, like Gecko) Chrome/94.0.4606.61 Safari/537.36",legacy,legacy,legacy,0,uniform,1,1,right,63,63,63,63,0,0,0,63,63,0,0,0,63,63,63,0,0,63,63,0,30-08-21,30-08-21,09:17:21,Thu Sep 30 2021 09:17:21 GMT+0200 (Θερινή ώρα Κεντρικής Ευρώπης),The main experiment item,yes,0,0,/Users/ethan/Documents/GitHub/OpenSesame/Sternberg/experiment_files,0,0,0,no,mono,no,18,no,white,no,no,768,105,3.6.1,legacy,legacy,7 2 3,osweb,1.4.0,1,3,y,37,,0,right,right,,space,right,right,right,1011,130376,,11256,20983,20599,1011,2,legacy,968,1680,30,1050,30,0,25,1680,1632986269562,3,1024,2,48000,-16,experiment,1,odd,MacIntel,3,585445,402678,,582196,33,583222,339382,33,11298,109087,587462,584229,588480,33,587462,Sternberg_updated,58,68976,64,yes,1024
91,91,1072,1072,black,no,experiment,Mozilla,Netscape,"5.0 (Macintosh; Intel Mac OS X 10_15_7) AppleWebKit/537.36 (KHTML, like Gecko) Chrome/94.0.4606.61 Safari/537.36",legacy,legacy,legacy,0,uniform,1,1,left,64,64,64,64,0,0,0,64,64,0,0,0,64,64,64,0,0,64,64,0,30-08-21,30-08-21,09:17:21,Thu Sep 30 2021 09:17:21 GMT+0200 (Θερινή ώρα Κεντρικής Ευρώπης),The main experiment item,yes,0,0,/Users/ethan/Documents/GitHub/OpenSesame/Sternberg/experiment_files,0,0,0,no,mono,no,18,no,white,no,no,768,105,3.6.1,legacy,legacy,2 8 9 4 1,osweb,1.4.0,1,0,n,37,,0,left,right,,space,right,right,left,715,130376,,11256,20983,20599,715,2,legacy,968,1680,30,1050,30,0,25,1680,1632986269562,5,1024,2,48000,-16,experiment,1,odd,MacIntel,5,591713,402678,,588480,33,589506,339382,33,11298,109087,593729,590512,594444,33,593729,Sternberg_updated,59,69691,65,yes,1024
91,91,1074,1074,black,no,experiment,Mozilla,Netscape,"5.0 (Macintosh; Intel Mac OS X 10_15_7) AppleWebKit/537.36 (KHTML, like Gecko) Chrome/94.0.4606.61 Safari/537.36",legacy,legacy,legacy,0,uniform,1,1,left,65,65,65,65,0,0,0,65,65,0,0,0,65,65,65,0,0,65,65,0,30-08-21,30-08-21,09:17:21,Thu Sep 30 2021 09:17:21 GMT+0200 (Θερινή ώρα Κεντρικής Ευρώπης),The main experiment item,yes,0,0,/Users/ethan/Documents/GitHub/OpenSesame/Sternberg/experiment_files,0,0,0,no,mono,no,18,no,white,no,no,768,105,3.6.1,legacy,legacy,5 7 3,osweb,1.4.0,1,0,n,37,,0,left,right,,space,right,right,left,1204,130376,,11256,20983,20599,1204,2,legacy,968,1680,30,1050,30,0,25,1680,1632986269562,3,1024,2,48000,-16,experiment,1,odd,MacIntel,9,597682,402678,,594445,33,595472,339382,33,11298,109087,599698,596479,600914,33,599698,Sternberg_updated,60,70895,66,yes,1024
91,91,1076,1076,black,no,experiment,Mozilla,Netscape,"5.0 (Macintosh; Intel Mac OS X 10_15_7) AppleWebKit/537.36 (KHTML, like Gecko) Chrome/94.0.4606.61 Safari/537.36",legacy,legacy,legacy,0,uniform,1,1,left,66,66,66,66,0,0,0,66,66,0,0,0,66,66,66,0,0,66,66,0,30-08-21,30-08-21,09:17:21,Thu Sep 30 2021 09:17:21 GMT+0200 (Θερινή ώρα Κεντρικής Ευρώπης),The main experiment item,yes,0,0,/Users/ethan/Documents/GitHub/OpenSesame/Sternberg/experiment_files,0,0,0,no,mono,no,18,no,white,no,no,768,105,3.6.1,legacy,legacy,3 9 1,osweb,1.4.0,1,0,n,37,,0,left,right,,space,right,right,left,1205,130376,,11256,20983,20599,1205,2,legacy,968,1680,30,1050,30,0,25,1680,1632986269562,3,1024,2,48000,-16,experiment,1,odd,MacIntel,7,604165,402678,,600915,33,601945,339382,33,11298,109087,606180,602949,607398,33,606180,Sternberg_updated,61,72100,67,yes,1024
91,91,1078,1078,black,no,experiment,Mozilla,Netscape,"5.0 (Macintosh; Intel Mac OS X 10_15_7) AppleWebKit/537.36 (KHTML, like Gecko) Chrome/94.0.4606.61 Safari/537.36",legacy,legacy,legacy,0,uniform,1,1,right,67,67,67,67,0,0,0,67,67,0,0,0,67,67,67,0,0,67,67,0,30-08-21,30-08-21,09:17:21,Thu Sep 30 2021 09:17:21 GMT+0200 (Θερινή ώρα Κεντρικής Ευρώπης),The main experiment item,yes,0,0,/Users/ethan/Documents/GitHub/OpenSesame/Sternberg/experiment_files,0,0,0,no,mono,no,18,no,white,no,no,768,105,3.6.1,legacy,legacy,7,osweb,1.4.0,1,1,y,37,,0,right,right,,space,right,right,right,1201,130376,,11256,20983,20599,1201,2,legacy,968,1680,30,1050,30,0,25,1680,1632986269562,1,1024,2,48000,-16,experiment,1,odd,MacIntel,7,610649,402678,,607399,33,608426,339382,33,11298,109087,612666,609432,613882,33,612666,Sternberg_updated,62,73301,68,yes,1024
91,91,1072,1072,black,no,experiment,Mozilla,Netscape,"5.0 (Macintosh; Intel Mac OS X 10_15_7) AppleWebKit/537.36 (KHTML, like Gecko) Chrome/94.0.4606.61 Safari/537.36",legacy,legacy,legacy,0,uniform,1,1,left,68,68,68,68,0,0,0,68,68,0,0,0,68,68,68,0,0,68,68,0,30-08-21,30-08-21,09:17:21,Thu Sep 30 2021 09:17:21 GMT+0200 (Θερινή ώρα Κεντρικής Ευρώπης),The main experiment item,yes,0,0,/Users/ethan/Documents/GitHub/OpenSesame/Sternberg/experiment_files,0,0,0,no,mono,no,18,no,white,no,no,768,105,3.6.1,legacy,legacy,9 7 4 5 8,osweb,1.4.0,1,0,n,37,,0,left,right,,space,right,right,left,672,130376,,11256,20983,20599,672,2,legacy,968,1680,30,1050,30,0,25,1680,1632986269562,5,1024,2,48000,-16,experiment,1,odd,MacIntel,6,617131,402678,,613882,33,614909,339382,33,11298,109087,619148,615915,619828,33,619148,Sternberg_updated,63,73973,69,yes,1024
91,91,1065,1065,black,no,experiment,Mozilla,Netscape,"5.0 (Macintosh; Intel Mac OS X 10_15_7) AppleWebKit/537.36 (KHTML, like Gecko) Chrome/94.0.4606.61 Safari/537.36",legacy,legacy,legacy,0,uniform,1,1,right,69,69,69,69,0,0,0,69,69,0,0,0,69,69,69,0,0,69,69,0,30-08-21,30-08-21,09:17:21,Thu Sep 30 2021 09:17:21 GMT+0200 (Θερινή ώρα Κεντρικής Ευρώπης),The main experiment item,yes,0,0,/Users/ethan/Documents/GitHub/OpenSesame/Sternberg/experiment_files,0,0,0,no,mono,no,18,no,white,no,no,768,105,3.6.1,legacy,legacy,1 4 9 3 2 5,osweb,1.4.0,1,3,y,37,,0,right,right,,space,right,right,right,611,130376,,11256,20983,20599,611,2,legacy,968,1680,30,1050,30,0,25,1680,1632986269562,6,1024,2,48000,-16,experiment,1,odd,MacIntel,9,623079,402678,,619829,33,620856,339382,33,11298,109087,625095,621861,625710,33,625095,Sternberg_updated,64,74584,70,yes,1024
92,92,1058,1058,black,no,experiment,Mozilla,Netscape,"5.0 (Macintosh; Intel Mac OS X 10_15_7) AppleWebKit/537.36 (KHTML, like Gecko) Chrome/94.0.4606.61 Safari/537.36",legacy,legacy,legacy,0,uniform,1,1,left,70,70,70,70,0,0,0,70,70,0,0,0,70,70,70,0,0,70,70,0,30-08-21,30-08-21,09:17:21,Thu Sep 30 2021 09:17:21 GMT+0200 (Θερινή ώρα Κεντρικής Ευρώπης),The main experiment item,yes,0,0,/Users/ethan/Documents/GitHub/OpenSesame/Sternberg/experiment_files,0,0,0,no,mono,no,18,no,white,no,no,768,105,3.6.1,legacy,legacy,5,osweb,1.4.0,1,0,n,37,,0,left,right,,space,right,right,left,549,130376,,11256,20983,20599,549,2,legacy,968,1680,30,1050,30,0,25,1680,1632986269562,1,1024,2,48000,-16,experiment,1,odd,MacIntel,8,628962,402678,,625711,33,626740,339382,33,11298,109087,630968,627745,631517,33,630968,Sternberg_updated,65,75133,71,yes,1024
92,92,1057,1057,black,no,experiment,Mozilla,Netscape,"5.0 (Macintosh; Intel Mac OS X 10_15_7) AppleWebKit/537.36 (KHTML, like Gecko) Chrome/94.0.4606.61 Safari/537.36",legacy,legacy,legacy,0,uniform,1,1,right,71,71,71,71,0,0,0,71,71,0,0,0,71,71,71,0,0,71,71,0,30-08-21,30-08-21,09:17:21,Thu Sep 30 2021 09:17:21 GMT+0200 (Θερινή ώρα Κεντρικής Ευρώπης),The main experiment item,yes,0,0,/Users/ethan/Documents/GitHub/OpenSesame/Sternberg/experiment_files,0,0,0,no,mono,no,18,no,white,no,no,768,105,3.6.1,legacy,legacy,4 6 5 8,osweb,1.4.0,1,1,y,37,,0,right,right,,space,right,right,right,948,130376,,11256,20983,20599,948,2,legacy,968,1680,30,1050,30,0,25,1680,1632986269562,4,1024,2,48000,-16,experiment,1,odd,MacIntel,4,634768,402678,,631519,33,632545,339382,33,11298,109087,636785,633552,637733,33,636785,Sternberg_updated,66,76081,72,yes,1024
92,92,1054,1054,black,no,experiment,Mozilla,Netscape,"5.0 (Macintosh; Intel Mac OS X 10_15_7) AppleWebKit/537.36 (KHTML, like Gecko) Chrome/94.0.4606.61 Safari/537.36",legacy,legacy,legacy,0,uniform,1,1,left,72,72,72,72,0,0,0,72,72,0,0,0,72,72,72,0,0,72,72,0,30-08-21,30-08-21,09:17:21,Thu Sep 30 2021 09:17:21 GMT+0200 (Θερινή ώρα Κεντρικής Ευρώπης),The main experiment item,yes,0,0,/Users/ethan/Documents/GitHub/OpenSesame/Sternberg/experiment_files,0,0,0,no,mono,no,18,no,white,no,no,768,105,3.6.1,legacy,legacy,5 3 8 7 2 4,osweb,1.4.0,1,0,n,37,,0,left,right,,space,right,right,left,891,130376,,11256,20983,20599,891,2,legacy,968,1680,30,1050,30,0,25,1680,1632986269562,6,1024,2,48000,-16,experiment,1,odd,MacIntel,9,640983,402678,,637734,33,638762,339382,33,11298,109087,643000,639768,643899,33,643000,Sternberg_updated,67,76972,73,yes,1024
92,92,1060,1060,black,no,experiment,Mozilla,Netscape,"5.0 (Macintosh; Intel Mac OS X 10_15_7) AppleWebKit/537.36 (KHTML, like Gecko) Chrome/94.0.4606.61 Safari/537.36",legacy,legacy,legacy,0,uniform,1,1,left,73,73,73,73,0,0,0,73,73,0,0,0,73,73,73,0,0,73,73,0,30-08-21,30-08-21,09:17:21,Thu Sep 30 2021 09:17:21 GMT+0200 (Θερινή ώρα Κεντρικής Ευρώπης),The main experiment item,yes,0,0,/Users/ethan/Documents/GitHub/OpenSesame/Sternberg/experiment_files,0,0,0,no,mono,no,18,no,white,no,no,768,105,3.6.1,legacy,legacy,1 5 3 2 8,osweb,1.4.0,1,0,n,37,,0,left,right,,space,right,right,left,1443,130376,,11256,20983,20599,1443,2,legacy,968,1680,30,1050,30,0,25,1680,1632986269562,5,1024,2,48000,-16,experiment,1,odd,MacIntel,4,647150,402678,,643900,33,644927,339382,33,11298,109087,649167,645934,650616,33,649167,Sternberg_updated,68,78415,74,yes,1024
92,92,1057,1057,black,no,experiment,Mozilla,Netscape,"5.0 (Macintosh; Intel Mac OS X 10_15_7) AppleWebKit/537.36 (KHTML, like Gecko) Chrome/94.0.4606.61 Safari/537.36",legacy,legacy,legacy,0,uniform,1,1,left,74,74,74,74,0,0,0,74,74,0,0,0,74,74,74,0,0,74,74,0,30-08-21,30-08-21,09:17:21,Thu Sep 30 2021 09:17:21 GMT+0200 (Θερινή ώρα Κεντρικής Ευρώπης),The main experiment item,yes,0,0,/Users/ethan/Documents/GitHub/OpenSesame/Sternberg/experiment_files,0,0,0,no,mono,no,18,no,white,no,no,768,105,3.6.1,legacy,legacy,8 4 3 9,osweb,1.4.0,1,0,n,37,,0,left,right,,space,right,right,left,832,130376,,11256,20983,20599,832,2,legacy,968,1680,30,1050,30,0,25,1680,1632986269562,4,1024,2,48000,-16,experiment,1,odd,MacIntel,5,653866,402678,,650617,33,651643,339382,33,11298,109087,655883,652650,656715,33,655883,Sternberg_updated,69,79247,75,yes,1024
92,92,1052,1052,black,no,experiment,Mozilla,Netscape,"5.0 (Macintosh; Intel Mac OS X 10_15_7) AppleWebKit/537.36 (KHTML, like Gecko) Chrome/94.0.4606.61 Safari/537.36",legacy,legacy,legacy,0,uniform,1,1,left,75,75,75,75,0,0,0,75,75,0,0,0,75,75,75,0,0,75,75,0,30-08-21,30-08-21,09:17:21,Thu Sep 30 2021 09:17:21 GMT+0200 (Θερινή ώρα Κεντρικής Ευρώπης),The main experiment item,yes,0,0,/Users/ethan/Documents/GitHub/OpenSesame/Sternberg/experiment_files,0,0,0,no,mono,no,18,no,white,no,no,768,105,3.6.1,legacy,legacy,1 7 5 2 9,osweb,1.4.0,1,0,n,37,,0,left,right,,space,right,right,left,691,130376,,11256,20983,20599,691,2,legacy,968,1680,30,1050,30,0,25,1680,1632986269562,5,1024,2,48000,-16,experiment,1,odd,MacIntel,3,659965,402678,,656717,33,657742,339382,33,11298,109087,661982,658749,662688,33,661982,Sternberg_updated,70,79938,76,yes,1024
92,92,1050,1050,black,no,experiment,Mozilla,Netscape,"5.0 (Macintosh; Intel Mac OS X 10_15_7) AppleWebKit/537.36 (KHTML, like Gecko) Chrome/94.0.4606.61 Safari/537.36",legacy,legacy,legacy,0,uniform,1,1,left,76,76,76,76,0,0,0,76,76,0,0,0,76,76,76,0,0,76,76,0,30-08-21,30-08-21,09:17:21,Thu Sep 30 2021 09:17:21 GMT+0200 (Θερινή ώρα Κεντρικής Ευρώπης),The main experiment item,yes,0,0,/Users/ethan/Documents/GitHub/OpenSesame/Sternberg/experiment_files,0,0,0,no,mono,no,18,no,white,no,no,768,105,3.6.1,legacy,legacy,7 3 2 8,osweb,1.4.0,1,0,n,37,,0,left,right,,space,right,right,left,942,130376,,11256,20983,20599,942,2,legacy,968,1680,30,1050,30,0,25,1680,1632986269562,4,1024,2,48000,-16,experiment,1,odd,MacIntel,4,665938,402678,,662689,33,663715,339382,33,11298,109087,667955,664722,668904,33,667955,Sternberg_updated,71,80880,77,yes,1024
92,92,1049,1049,black,no,experiment,Mozilla,Netscape,"5.0 (Macintosh; Intel Mac OS X 10_15_7) AppleWebKit/537.36 (KHTML, like Gecko) Chrome/94.0.4606.61 Safari/537.36",legacy,legacy,legacy,0,uniform,1,1,right,77,77,77,77,0,0,0,77,77,0,0,0,77,77,77,0,0,77,77,0,30-08-21,30-08-21,09:17:21,Thu Sep 30 2021 09:17:21 GMT+0200 (Θερινή ώρα Κεντρικής Ευρώπης),The main experiment item,yes,0,0,/Users/ethan/Documents/GitHub/OpenSesame/Sternberg/experiment_files,0,0,0,no,mono,no,18,no,white,no,no,768,105,3.6.1,legacy,legacy,4 1 5,osweb,1.4.0,1,2,y,37,,0,right,right,,space,right,right,right,969,130376,,11256,20983,20599,969,2,legacy,968,1680,30,1050,30,0,25,1680,1632986269562,3,1024,2,48000,-16,experiment,1,odd,MacIntel,1,672155,402678,,668905,33,669932,339382,33,11298,109087,674160,670938,675143,33,674160,Sternberg_updated,72,81849,78,yes,1024
92,92,1045,1045,black,no,experiment,Mozilla,Netscape,"5.0 (Macintosh; Intel Mac OS X 10_15_7) AppleWebKit/537.36 (KHTML, like Gecko) Chrome/94.0.4606.61 Safari/537.36",legacy,legacy,legacy,0,uniform,1,1,left,78,78,78,78,0,0,0,78,78,0,0,0,78,78,78,0,0,78,78,0,30-08-21,30-08-21,09:17:21,Thu Sep 30 2021 09:17:21 GMT+0200 (Θερινή ώρα Κεντρικής Ευρώπης),The main experiment item,yes,0,0,/Users/ethan/Documents/GitHub/OpenSesame/Sternberg/experiment_files,0,0,0,no,mono,no,18,no,white,no,no,768,105,3.6.1,legacy,legacy,9,osweb,1.4.0,1,0,n,37,,0,left,right,,space,right,right,left,722,130376,,11256,20983,20599,722,2,legacy,968,1680,30,1050,30,0,25,1680,1632986269562,1,1024,2,48000,-16,experiment,1,odd,MacIntel,6,678393,402678,,675143,33,676172,339382,33,11298,109087,680410,677177,681143,33,680410,Sternberg_updated,73,82571,79,yes,1024
91,91,1040,1040,black,no,experiment,Mozilla,Netscape,"5.0 (Macintosh; Intel Mac OS X 10_15_7) AppleWebKit/537.36 (KHTML, like Gecko) Chrome/94.0.4606.61 Safari/537.36",legacy,legacy,legacy,0,uniform,0,0,left,79,79,79,79,0,0,0,79,79,0,0,0,79,79,79,0,0,79,79,0,30-08-21,30-08-21,09:17:21,Thu Sep 30 2021 09:17:21 GMT+0200 (Θερινή ώρα Κεντρικής Ευρώπης),The main experiment item,yes,0,0,/Users/ethan/Documents/GitHub/OpenSesame/Sternberg/experiment_files,0,0,0,no,mono,no,18,no,white,no,no,768,105,3.6.1,legacy,legacy,4 1,osweb,1.4.0,1,0,n,37,,0,right,right,,space,right,right,right,635,130376,,11256,20983,20599,635,2,legacy,968,1680,30,1050,30,0,25,1680,1632986269562,2,1024,2,48000,-16,experiment,1,odd,MacIntel,6,684395,402678,,681144,33,682170,339382,33,11298,109087,686411,683178,687061,33,686411,Sternberg_updated,73,83206,80,yes,1024
91,91,1038,1038,black,no,experiment,Mozilla,Netscape,"5.0 (Macintosh; Intel Mac OS X 10_15_7) AppleWebKit/537.36 (KHTML, like Gecko) Chrome/94.0.4606.61 Safari/537.36",legacy,legacy,legacy,0,uniform,1,1,right,80,80,80,80,0,0,0,80,80,0,0,0,80,80,80,0,0,80,80,0,30-08-21,30-08-21,09:17:21,Thu Sep 30 2021 09:17:21 GMT+0200 (Θερινή ώρα Κεντρικής Ευρώπης),The main experiment item,yes,0,0,/Users/ethan/Documents/GitHub/OpenSesame/Sternberg/experiment_files,0,0,0,no,mono,no,18,no,white,no,no,768,105,3.6.1,legacy,legacy,8 7 3,osweb,1.4.0,1,1,y,37,,0,right,right,,space,right,right,right,892,130376,,11256,20983,20599,892,2,legacy,968,1680,30,1050,30,0,25,1680,1632986269562,3,1024,2,48000,-16,experiment,1,odd,MacIntel,8,690311,402678,,681144,33,688087,687062,33,11298,109087,692327,689094,693227,33,692327,Sternberg_updated,74,84098,81,yes,1024
91,91,1046,1046,black,no,experiment,Mozilla,Netscape,"5.0 (Macintosh; Intel Mac OS X 10_15_7) AppleWebKit/537.36 (KHTML, like Gecko) Chrome/94.0.4606.61 Safari/537.36",legacy,legacy,legacy,0,uniform,1,1,left,81,81,81,81,0,0,0,81,81,0,0,0,81,81,81,0,0,81,81,0,30-08-21,30-08-21,09:17:21,Thu Sep 30 2021 09:17:21 GMT+0200 (Θερινή ώρα Κεντρικής Ευρώπης),The main experiment item,yes,0,0,/Users/ethan/Documents/GitHub/OpenSesame/Sternberg/experiment_files,0,0,0,no,mono,no,18,no,white,no,no,768,105,3.6.1,legacy,legacy,6 9 4 5 3 2,osweb,1.4.0,1,0,n,37,,0,left,right,,space,right,right,left,1682,130376,,11256,20983,20599,1682,2,legacy,968,1680,30,1050,30,0,25,1680,1632986269562,6,1024,2,48000,-16,experiment,1,odd,MacIntel,8,696477,402678,,693228,33,694254,687062,33,11298,109087,698494,695261,700194,33,698494,Sternberg_updated,75,85780,82,yes,1024
92,92,1042,1042,black,no,experiment,Mozilla,Netscape,"5.0 (Macintosh; Intel Mac OS X 10_15_7) AppleWebKit/537.36 (KHTML, like Gecko) Chrome/94.0.4606.61 Safari/537.36",legacy,legacy,legacy,0,uniform,1,1,right,82,82,82,82,0,0,0,82,82,0,0,0,82,82,82,0,0,82,82,0,30-08-21,30-08-21,09:17:21,Thu Sep 30 2021 09:17:21 GMT+0200 (Θερινή ώρα Κεντρικής Ευρώπης),The main experiment item,yes,0,0,/Users/ethan/Documents/GitHub/OpenSesame/Sternberg/experiment_files,0,0,0,no,mono,no,18,no,white,no,no,768,105,3.6.1,legacy,legacy,2 4 6 9,osweb,1.4.0,1,3,y,37,,0,right,right,,space,right,right,right,731,130376,,11256,20983,20599,731,2,legacy,968,1680,30,1050,30,0,25,1680,1632986269562,4,1024,2,48000,-16,experiment,1,odd,MacIntel,6,703443,402678,,700196,33,701220,687062,33,11298,109087,705444,702228,706176,33,705444,Sternberg_updated,76,86511,83,yes,1024
92,92,1041,1041,black,no,experiment,Mozilla,Netscape,"5.0 (Macintosh; Intel Mac OS X 10_15_7) AppleWebKit/537.36 (KHTML, like Gecko) Chrome/94.0.4606.61 Safari/537.36",legacy,legacy,legacy,0,uniform,1,1,right,83,83,83,83,0,0,0,83,83,0,0,0,83,83,83,0,0,83,83,0,30-08-21,30-08-21,09:17:21,Thu Sep 30 2021 09:17:21 GMT+0200 (Θερινή ώρα Κεντρικής Ευρώπης),The main experiment item,yes,0,0,/Users/ethan/Documents/GitHub/OpenSesame/Sternberg/experiment_files,0,0,0,no,mono,no,18,no,white,no,no,768,105,3.6.1,legacy,legacy,8,osweb,1.4.0,1,1,y,37,,0,right,right,,space,right,right,right,964,130376,,11256,20983,20599,964,2,legacy,968,1680,30,1050,30,0,25,1680,1632986269562,1,1024,2,48000,-16,experiment,1,odd,MacIntel,8,709427,402678,,706177,33,707204,687062,33,11298,109087,711444,708211,712409,33,711444,Sternberg_updated,77,87475,84,yes,1024
92,92,1039,1039,black,no,experiment,Mozilla,Netscape,"5.0 (Macintosh; Intel Mac OS X 10_15_7) AppleWebKit/537.36 (KHTML, like Gecko) Chrome/94.0.4606.61 Safari/537.36",legacy,legacy,legacy,0,uniform,1,1,left,84,84,84,84,0,0,0,84,84,0,0,0,84,84,84,0,0,84,84,0,30-08-21,30-08-21,09:17:21,Thu Sep 30 2021 09:17:21 GMT+0200 (Θερινή ώρα Κεντρικής Ευρώπης),The main experiment item,yes,0,0,/Users/ethan/Documents/GitHub/OpenSesame/Sternberg/experiment_files,0,0,0,no,mono,no,18,no,white,no,no,768,105,3.6.1,legacy,legacy,1 4 9 2 5,osweb,1.4.0,1,0,n,37,,0,left,right,,space,right,right,left,847,130376,,11256,20983,20599,847,2,legacy,968,1680,30,1050,30,0,25,1680,1632986269562,5,1024,2,48000,-16,experiment,1,odd,MacIntel,7,715644,402678,,712409,33,713422,687062,33,11298,109087,717649,714427,718499,33,717649,Sternberg_updated,78,88322,85,yes,1024
92,92,1037,1037,black,no,experiment,Mozilla,Netscape,"5.0 (Macintosh; Intel Mac OS X 10_15_7) AppleWebKit/537.36 (KHTML, like Gecko) Chrome/94.0.4606.61 Safari/537.36",legacy,legacy,legacy,0,uniform,1,1,right,85,85,85,85,0,0,0,85,85,0,0,0,85,85,85,0,0,85,85,0,30-08-21,30-08-21,09:17:21,Thu Sep 30 2021 09:17:21 GMT+0200 (Θερινή ώρα Κεντρικής Ευρώπης),The main experiment item,yes,0,0,/Users/ethan/Documents/GitHub/OpenSesame/Sternberg/experiment_files,0,0,0,no,mono,no,18,no,white,no,no,768,105,3.6.1,legacy,legacy,9 3 8 2 1 4,osweb,1.4.0,1,3,y,37,,0,right,right,,space,right,right,right,887,130376,,11256,20983,20599,887,2,legacy,968,1680,30,1050,30,0,25,1680,1632986269562,6,1024,2,48000,-16,experiment,1,odd,MacIntel,8,721749,402678,,718499,33,719526,687062,33,11298,109087,723766,720533,724665,33,723766,Sternberg_updated,79,89209,86,yes,1024
91,91,1034,1034,black,no,experiment,Mozilla,Netscape,"5.0 (Macintosh; Intel Mac OS X 10_15_7) AppleWebKit/537.36 (KHTML, like Gecko) Chrome/94.0.4606.61 Safari/537.36",legacy,legacy,legacy,0,uniform,0,0,right,86,86,86,86,0,0,0,86,86,0,0,0,86,86,86,0,0,86,86,0,30-08-21,30-08-21,09:17:21,Thu Sep 30 2021 09:17:21 GMT+0200 (Θερινή ώρα Κεντρικής Ευρώπης),The main experiment item,yes,0,0,/Users/ethan/Documents/GitHub/OpenSesame/Sternberg/experiment_files,0,0,0,no,mono,no,18,no,white,no,no,768,105,3.6.1,legacy,legacy,3 5 9 6 2 4,osweb,1.4.0,1,1,y,37,,0,left,right,,space,right,right,left,780,130376,,11256,20983,20599,780,2,legacy,968,1680,30,1050,30,0,25,1680,1632986269562,6,1024,2,48000,-16,experiment,1,odd,MacIntel,3,727918,402678,,724666,33,725692,687062,33,11298,109087,729934,726701,730717,33,729934,Sternberg_updated,79,89989,87,yes,1024
91,91,1033,1033,black,no,experiment,Mozilla,Netscape,"5.0 (Macintosh; Intel Mac OS X 10_15_7) AppleWebKit/537.36 (KHTML, like Gecko) Chrome/94.0.4606.61 Safari/537.36",legacy,legacy,legacy,0,uniform,1,1,left,87,87,87,87,0,0,0,87,87,0,0,0,87,87,87,0,0,87,87,0,30-08-21,30-08-21,09:17:21,Thu Sep 30 2021 09:17:21 GMT+0200 (Θερινή ώρα Κεντρικής Ευρώπης),The main experiment item,yes,0,0,/Users/ethan/Documents/GitHub/OpenSesame/Sternberg/experiment_files,0,0,0,no,mono,no,18,no,white,no,no,768,105,3.6.1,legacy,legacy,7 1,osweb,1.4.0,1,0,n,37,,0,left,right,,space,right,right,left,929,130376,,11256,20983,20599,929,2,legacy,968,1680,30,1050,30,0,25,1680,1632986269562,2,1024,2,48000,-16,experiment,1,odd,MacIntel,8,733966,402678,,724666,33,731745,730718,33,11298,109087,735984,732751,736916,33,735984,Sternberg_updated,80,90918,88,yes,1024
90,90,1032,1032,black,no,experiment,Mozilla,Netscape,"5.0 (Macintosh; Intel Mac OS X 10_15_7) AppleWebKit/537.36 (KHTML, like Gecko) Chrome/94.0.4606.61 Safari/537.36",legacy,legacy,legacy,0,uniform,0,0,right,88,88,88,88,0,0,0,88,88,0,0,0,88,88,88,0,0,88,88,0,30-08-21,30-08-21,09:17:21,Thu Sep 30 2021 09:17:21 GMT+0200 (Θερινή ώρα Κεντρικής Ευρώπης),The main experiment item,yes,0,0,/Users/ethan/Documents/GitHub/OpenSesame/Sternberg/experiment_files,0,0,0,no,mono,no,18,no,white,no,no,768,105,3.6.1,legacy,legacy,6 9 7 4 5 1,osweb,1.4.0,1,2,y,37,,0,left,right,,space,right,right,left,968,130376,,11256,20983,20599,968,2,legacy,968,1680,30,1050,30,0,25,1680,1632986269562,6,1024,2,48000,-16,experiment,1,odd,MacIntel,9,740163,402678,,736916,33,737943,730718,33,11298,109087,742180,738946,743162,33,742180,Sternberg_updated,80,91886,89,yes,1024
90,90,1033,1033,black,no,experiment,Mozilla,Netscape,"5.0 (Macintosh; Intel Mac OS X 10_15_7) AppleWebKit/537.36 (KHTML, like Gecko) Chrome/94.0.4606.61 Safari/537.36",legacy,legacy,legacy,0,uniform,1,1,right,89,89,89,89,0,0,0,89,89,0,0,0,89,89,89,0,0,89,89,0,30-08-21,30-08-21,09:17:21,Thu Sep 30 2021 09:17:21 GMT+0200 (Θερινή ώρα Κεντρικής Ευρώπης),The main experiment item,yes,0,0,/Users/ethan/Documents/GitHub/OpenSesame/Sternberg/experiment_files,0,0,0,no,mono,no,18,no,white,no,no,768,105,3.6.1,legacy,legacy,9 8 4,osweb,1.4.0,1,1,y,37,,0,right,right,,space,right,right,right,1103,130376,,11256,20983,20599,1103,2,legacy,968,1680,30,1050,30,0,25,1680,1632986269562,3,1024,2,48000,-16,experiment,1,odd,MacIntel,9,746413,402678,,736916,33,744193,743163,33,11298,109087,748430,745196,749533,33,748430,Sternberg_updated,81,92989,90,yes,1024
90,90,1032,1032,black,no,experiment,Mozilla,Netscape,"5.0 (Macintosh; Intel Mac OS X 10_15_7) AppleWebKit/537.36 (KHTML, like Gecko) Chrome/94.0.4606.61 Safari/537.36",legacy,legacy,legacy,0,uniform,1,1,right,90,90,90,90,0,0,0,90,90,0,0,0,90,90,90,0,0,90,90,0,30-08-21,30-08-21,09:17:21,Thu Sep 30 2021 09:17:21 GMT+0200 (Θερινή ώρα Κεντρικής Ευρώπης),The main experiment item,yes,0,0,/Users/ethan/Documents/GitHub/OpenSesame/Sternberg/experiment_files,0,0,0,no,mono,no,18,no,white,no,no,768,105,3.6.1,legacy,legacy,5 7 3 6 2,osweb,1.4.0,1,5,y,37,,0,right,right,,space,right,right,right,968,130376,,11256,20983,20599,968,2,legacy,968,1680,30,1050,30,0,25,1680,1632986269562,5,1024,2,48000,-16,experiment,1,odd,MacIntel,2,752785,402678,,749534,33,750562,743163,33,11298,109087,754802,751569,755785,33,754802,Sternberg_updated,82,93957,91,yes,1024
90,90,1029,1029,black,no,experiment,Mozilla,Netscape,"5.0 (Macintosh; Intel Mac OS X 10_15_7) AppleWebKit/537.36 (KHTML, like Gecko) Chrome/94.0.4606.61 Safari/537.36",legacy,legacy,legacy,0,uniform,1,1,right,91,91,91,91,0,0,0,91,91,0,0,0,91,91,91,0,0,91,91,0,30-08-21,30-08-21,09:17:21,Thu Sep 30 2021 09:17:21 GMT+0200 (Θερινή ώρα Κεντρικής Ευρώπης),The main experiment item,yes,0,0,/Users/ethan/Documents/GitHub/OpenSesame/Sternberg/experiment_files,0,0,0,no,mono,no,18,no,white,no,no,768,105,3.6.1,legacy,legacy,8 9 5 7 1 6,osweb,1.4.0,1,4,y,37,,0,right,right,,space,right,right,right,718,130376,,11256,20983,20599,718,2,legacy,968,1680,30,1050,30,0,25,1680,1632986269562,6,1024,2,48000,-16,experiment,1,odd,MacIntel,7,759019,402678,,755786,33,756812,743163,33,11298,109087,761020,757817,761753,33,761020,Sternberg_updated,83,94675,92,yes,1024
90,90,1026,1026,black,no,experiment,Mozilla,Netscape,"5.0 (Macintosh; Intel Mac OS X 10_15_7) AppleWebKit/537.36 (KHTML, like Gecko) Chrome/94.0.4606.61 Safari/537.36",legacy,legacy,legacy,0,uniform,1,1,right,92,92,92,92,0,0,0,92,92,0,0,0,92,92,92,0,0,92,92,0,30-08-21,30-08-21,09:17:21,Thu Sep 30 2021 09:17:21 GMT+0200 (Θερινή ώρα Κεντρικής Ευρώπης),The main experiment item,yes,0,0,/Users/ethan/Documents/GitHub/OpenSesame/Sternberg/experiment_files,0,0,0,no,mono,no,18,no,white,no,no,768,105,3.6.1,legacy,legacy,4 6 2 5 1,osweb,1.4.0,1,5,y,37,,0,right,right,,space,right,right,right,718,130376,,11256,20983,20599,718,2,legacy,968,1680,30,1050,30,0,25,1680,1632986269562,5,1024,2,48000,-16,experiment,1,odd,MacIntel,1,765003,402678,,761754,33,762783,743163,33,11298,109087,767020,763787,767753,33,767020,Sternberg_updated,84,95393,93,yes,1024
90,90,1023,1023,black,no,experiment,Mozilla,Netscape,"5.0 (Macintosh; Intel Mac OS X 10_15_7) AppleWebKit/537.36 (KHTML, like Gecko) Chrome/94.0.4606.61 Safari/537.36",legacy,legacy,legacy,0,uniform,1,1,right,93,93,93,93,0,0,0,93,93,0,0,0,93,93,93,0,0,93,93,0,30-08-21,30-08-21,09:17:21,Thu Sep 30 2021 09:17:21 GMT+0200 (Θερινή ώρα Κεντρικής Ευρώπης),The main experiment item,yes,0,0,/Users/ethan/Documents/GitHub/OpenSesame/Sternberg/experiment_files,0,0,0,no,mono,no,18,no,white,no,no,768,105,3.6.1,legacy,legacy,9 5 8 1,osweb,1.4.0,1,2,y,37,,0,right,right,,space,right,right,right,725,130376,,11256,20983,20599,725,2,legacy,968,1680,30,1050,30,0,25,1680,1632986269562,4,1024,2,48000,-16,experiment,1,odd,MacIntel,5,771001,402678,,767754,33,768779,743163,33,11298,109087,773018,769785,773750,33,773018,Sternberg_updated,85,96118,94,yes,1024
91,91,1021,1021,black,no,experiment,Mozilla,Netscape,"5.0 (Macintosh; Intel Mac OS X 10_15_7) AppleWebKit/537.36 (KHTML, like Gecko) Chrome/94.0.4606.61 Safari/537.36",legacy,legacy,legacy,0,uniform,1,1,left,94,94,94,94,0,0,0,94,94,0,0,0,94,94,94,0,0,94,94,0,30-08-21,30-08-21,09:17:21,Thu Sep 30 2021 09:17:21 GMT+0200 (Θερινή ώρα Κεντρικής Ευρώπης),The main experiment item,yes,0,0,/Users/ethan/Documents/GitHub/OpenSesame/Sternberg/experiment_files,0,0,0,no,mono,no,18,no,white,no,no,768,105,3.6.1,legacy,legacy,5 2,osweb,1.4.0,1,0,n,37,,0,left,right,,space,right,right,left,869,130376,,11256,20983,20599,869,2,legacy,968,1680,30,1050,30,0,25,1680,1632986269562,2,1024,2,48000,-16,experiment,1,odd,MacIntel,7,777001,402678,,773751,33,774777,743163,33,11298,109087,779017,775784,779901,33,779017,Sternberg_updated,86,96987,95,yes,1024
91,91,1024,1024,black,no,experiment,Mozilla,Netscape,"5.0 (Macintosh; Intel Mac OS X 10_15_7) AppleWebKit/537.36 (KHTML, like Gecko) Chrome/94.0.4606.61 Safari/537.36",legacy,legacy,legacy,0,uniform,1,1,right,95,95,95,95,0,0,0,95,95,0,0,0,95,95,95,0,0,95,95,0,30-08-21,30-08-21,09:17:21,Thu Sep 30 2021 09:17:21 GMT+0200 (Θερινή ώρα Κεντρικής Ευρώπης),The main experiment item,yes,0,0,/Users/ethan/Documents/GitHub/OpenSesame/Sternberg/experiment_files,0,0,0,no,mono,no,18,no,white,no,no,768,105,3.6.1,legacy,legacy,2 4 8 5 1 3,osweb,1.4.0,1,1,y,37,,0,right,right,,space,right,right,right,1277,130376,,11256,20983,20599,1277,2,legacy,968,1680,30,1050,30,0,25,1680,1632986269562,6,1024,2,48000,-16,experiment,1,odd,MacIntel,2,783152,402678,,779902,33,780929,743163,33,11298,109087,785169,781936,786451,33,785169,Sternberg_updated,87,98264,96,yes,1024
91,91,1022,1022,black,no,experiment,Mozilla,Netscape,"5.0 (Macintosh; Intel Mac OS X 10_15_7) AppleWebKit/537.36 (KHTML, like Gecko) Chrome/94.0.4606.61 Safari/537.36",legacy,legacy,legacy,0,uniform,1,1,right,96,96,96,96,0,0,0,96,96,0,0,0,96,96,96,0,0,96,96,0,30-08-21,30-08-21,09:17:21,Thu Sep 30 2021 09:17:21 GMT+0200 (Θερινή ώρα Κεντρικής Ευρώπης),The main experiment item,yes,0,0,/Users/ethan/Documents/GitHub/OpenSesame/Sternberg/experiment_files,0,0,0,no,mono,no,18,no,white,no,no,768,105,3.6.1,legacy,legacy,7 8 6 3 1,osweb,1.4.0,1,5,y,37,,0,right,right,,space,right,right,right,844,130376,,11256,20983,20599,844,2,legacy,968,1680,30,1050,30,0,25,1680,1632986269562,5,1024,2,48000,-16,experiment,1,odd,MacIntel,1,789702,402678,,786452,33,787479,743163,33,11298,109087,791719,788486,792576,33,791719,Sternberg_updated,88,99108,97,yes,1024
91,91,1017,1017,black,no,experiment,Mozilla,Netscape,"5.0 (Macintosh; Intel Mac OS X 10_15_7) AppleWebKit/537.36 (KHTML, like Gecko) Chrome/94.0.4606.61 Safari/537.36",legacy,legacy,legacy,0,uniform,1,1,left,97,97,97,97,0,0,0,97,97,0,0,0,97,97,97,0,0,97,97,0,30-08-21,30-08-21,09:17:21,Thu Sep 30 2021 09:17:21 GMT+0200 (Θερινή ώρα Κεντρικής Ευρώπης),The main experiment item,yes,0,0,/Users/ethan/Documents/GitHub/OpenSesame/Sternberg/experiment_files,0,0,0,no,mono,no,18,no,white,no,no,768,105,3.6.1,legacy,legacy,2 8 7 9 5 3,osweb,1.4.0,1,0,n,37,,0,left,right,right,space,right,right,left,593,130376,138372,11256,20983,20599,593,2,legacy,968,1680,30,1050,30,0,25,1680,1632986269562,6,1024,2,48000,-16,experiment,1,odd,MacIntel,6,934201,402678,793594,792577,33,931989,743163,33,11298,109087,936217,932996,936817,33,936217,Sternberg_updated,89,99701,98,yes,1024
90,90,1013,1013,black,no,experiment,Mozilla,Netscape,"5.0 (Macintosh; Intel Mac OS X 10_15_7) AppleWebKit/537.36 (KHTML, like Gecko) Chrome/94.0.4606.61 Safari/537.36",legacy,legacy,legacy,0,uniform,0,0,right,98,98,98,98,0,0,0,98,98,0,0,0,98,98,98,0,0,98,98,0,30-08-21,30-08-21,09:17:21,Thu Sep 30 2021 09:17:21 GMT+0200 (Θερινή ώρα Κεντρικής Ευρώπης),The main experiment item,yes,0,0,/Users/ethan/Documents/GitHub/OpenSesame/Sternberg/experiment_files,0,0,0,no,mono,no,18,no,white,no,no,768,105,3.6.1,legacy,legacy,8 9 6 1,osweb,1.4.0,1,2,y,37,,0,left,right,right,space,right,right,left,549,130376,138372,11256,20983,20599,549,2,legacy,968,1680,30,1050,30,0,25,1680,1632986269562,4,1024,2,48000,-16,experiment,1,odd,MacIntel,9,940068,402678,793594,936818,33,937844,743163,33,11298,109087,942084,938851,942650,33,942084,Sternberg_updated,89,100250,99,yes,1024
90,90,1009,1009,black,no,experiment,Mozilla,Netscape,"5.0 (Macintosh; Intel Mac OS X 10_15_7) AppleWebKit/537.36 (KHTML, like Gecko) Chrome/94.0.4606.61 Safari/537.36",legacy,legacy,legacy,0,uniform,1,1,left,99,99,99,99,0,0,0,99,99,0,0,0,99,99,99,0,0,99,99,0,30-08-21,30-08-21,09:17:21,Thu Sep 30 2021 09:17:21 GMT+0200 (Θερινή ώρα Κεντρικής Ευρώπης),The main experiment item,yes,0,0,/Users/ethan/Documents/GitHub/OpenSesame/Sternberg/experiment_files,0,0,0,no,mono,no,18,no,white,no,no,768,105,3.6.1,legacy,legacy,3 4 2,osweb,1.4.0,1,0,n,37,,0,left,right,right,space,right,right,left,670,130376,138372,11256,20983,20599,670,2,legacy,968,1680,30,1050,30,0,25,1680,1632986269562,3,1024,2,48000,-16,experiment,1,odd,MacIntel,5,945896,402678,793594,936818,33,943673,942651,33,11298,109087,947913,944680,948596,33,947913,Sternberg_updated,90,100920,100,yes,1024
90,90,1007,1007,black,no,experiment,Mozilla,Netscape,"5.0 (Macintosh; Intel Mac OS X 10_15_7) AppleWebKit/537.36 (KHTML, like Gecko) Chrome/94.0.4606.61 Safari/537.36",legacy,legacy,legacy,0,uniform,1,1,right,100,100,100,100,0,0,0,100,100,0,0,0,100,100,100,0,0,100,100,0,30-08-21,30-08-21,09:17:21,Thu Sep 30 2021 09:17:21 GMT+0200 (Θερινή ώρα Κεντρικής Ευρώπης),The main experiment item,yes,0,0,/Users/ethan/Documents/GitHub/OpenSesame/Sternberg/experiment_files,0,0,0,no,mono,no,18,no,white,no,no,768,105,3.6.1,legacy,legacy,8 1 6,osweb,1.4.0,1,3,y,37,,0,right,right,right,space,right,right,right,762,130376,138372,11256,20983,20599,762,2,legacy,968,1680,30,1050,30,0,25,1680,1632986269562,3,1024,2,48000,-16,experiment,1,odd,MacIntel,6,951845,402678,793594,948597,33,949623,942651,33,11298,109087,953846,950630,954613,33,953846,Sternberg_updated,91,101682,101,yes,1024
90,90,1004,1004,black,no,experiment,Mozilla,Netscape,"5.0 (Macintosh; Intel Mac OS X 10_15_7) AppleWebKit/537.36 (KHTML, like Gecko) Chrome/94.0.4606.61 Safari/537.36",legacy,legacy,legacy,0,uniform,1,1,right,101,101,101,101,0,0,0,101,101,0,0,0,101,101,101,0,0,101,101,0,30-08-21,30-08-21,09:17:21,Thu Sep 30 2021 09:17:21 GMT+0200 (Θερινή ώρα Κεντρικής Ευρώπης),The main experiment item,yes,0,0,/Users/ethan/Documents/GitHub/OpenSesame/Sternberg/experiment_files,0,0,0,no,mono,no,18,no,white,no,no,768,105,3.6.1,legacy,legacy,3 5 7 1,osweb,1.4.0,1,3,y,37,,0,right,right,right,space,right,right,right,770,130376,138372,11256,20983,20599,770,2,legacy,968,1680,30,1050,30,0,25,1680,1632986269562,4,1024,2,48000,-16,experiment,1,odd,MacIntel,7,957860,402678,793594,954614,33,955637,942651,33,11298,109087,959877,956643,960659,33,959877,Sternberg_updated,92,102452,102,yes,1024
90,90,1004,1004,black,no,experiment,Mozilla,Netscape,"5.0 (Macintosh; Intel Mac OS X 10_15_7) AppleWebKit/537.36 (KHTML, like Gecko) Chrome/94.0.4606.61 Safari/537.36",legacy,legacy,legacy,0,uniform,1,1,left,102,102,102,102,0,0,0,102,102,0,0,0,102,102,102,0,0,102,102,0,30-08-21,30-08-21,09:17:21,Thu Sep 30 2021 09:17:21 GMT+0200 (Θερινή ώρα Κεντρικής Ευρώπης),The main experiment item,yes,0,0,/Users/ethan/Documents/GitHub/OpenSesame/Sternberg/experiment_files,0,0,0,no,mono,no,18,no,white,no,no,768,105,3.6.1,legacy,legacy,8 6 3 4 7,osweb,1.4.0,1,0,n,37,,0,left,right,right,space,right,right,left,956,130376,138372,11256,20983,20599,956,2,legacy,968,1680,30,1050,30,0,25,1680,1632986269562,5,1024,2,48000,-16,experiment,1,odd,MacIntel,1,963910,402678,793594,960660,33,961688,942651,33,11298,109087,965926,962693,966883,33,965926,Sternberg_updated,93,103408,103,yes,1024
90,90,1005,1005,black,no,experiment,Mozilla,Netscape,"5.0 (Macintosh; Intel Mac OS X 10_15_7) AppleWebKit/537.36 (KHTML, like Gecko) Chrome/94.0.4606.61 Safari/537.36",legacy,legacy,legacy,0,uniform,1,1,left,103,103,103,103,0,0,0,103,103,0,0,0,103,103,103,0,0,103,103,0,30-08-21,30-08-21,09:17:21,Thu Sep 30 2021 09:17:21 GMT+0200 (Θερινή ώρα Κεντρικής Ευρώπης),The main experiment item,yes,0,0,/Users/ethan/Documents/GitHub/OpenSesame/Sternberg/experiment_files,0,0,0,no,mono,no,18,no,white,no,no,768,105,3.6.1,legacy,legacy,1 4 3 6 5,osweb,1.4.0,1,0,n,37,,0,left,right,right,space,right,right,left,1111,130376,138372,11256,20983,20599,1111,2,legacy,968,1680,30,1050,30,0,25,1680,1632986269562,5,1024,2,48000,-16,experiment,1,odd,MacIntel,8,970117,402678,793594,966883,33,967896,942651,33,11298,109087,972134,968901,973251,33,972134,Sternberg_updated,94,104519,104,yes,1024
90,90,1004,1004,black,no,experiment,Mozilla,Netscape,"5.0 (Macintosh; Intel Mac OS X 10_15_7) AppleWebKit/537.36 (KHTML, like Gecko) Chrome/94.0.4606.61 Safari/537.36",legacy,legacy,legacy,0,uniform,1,1,right,104,104,104,104,0,0,0,104,104,0,0,0,104,104,104,0,0,104,104,0,30-08-21,30-08-21,09:17:21,Thu Sep 30 2021 09:17:21 GMT+0200 (Θερινή ώρα Κεντρικής Ευρώπης),The main experiment item,yes,0,0,/Users/ethan/Documents/GitHub/OpenSesame/Sternberg/experiment_files,0,0,0,no,mono,no,18,no,white,no,no,768,105,3.6.1,legacy,legacy,2 8 5 1,osweb,1.4.0,1,4,y,37,,0,right,right,right,space,right,right,right,953,130376,138372,11256,20983,20599,953,2,legacy,968,1680,30,1050,30,0,25,1680,1632986269562,4,1024,2,48000,-16,experiment,1,odd,MacIntel,1,976488,402678,793594,973252,33,974277,942651,33,11298,109087,978504,975284,979470,33,978504,Sternberg_updated,95,105472,105,yes,1024
91,91,1003,1003,black,no,experiment,Mozilla,Netscape,"5.0 (Macintosh; Intel Mac OS X 10_15_7) AppleWebKit/537.36 (KHTML, like Gecko) Chrome/94.0.4606.61 Safari/537.36",legacy,legacy,legacy,0,uniform,1,1,left,105,105,105,105,0,0,0,105,105,0,0,0,105,105,105,0,0,105,105,0,30-08-21,30-08-21,09:17:21,Thu Sep 30 2021 09:17:21 GMT+0200 (Θερινή ώρα Κεντρικής Ευρώπης),The main experiment item,yes,0,0,/Users/ethan/Documents/GitHub/OpenSesame/Sternberg/experiment_files,0,0,0,no,mono,no,18,no,white,no,no,768,105,3.6.1,legacy,legacy,7 8 6 1,osweb,1.4.0,1,0,n,37,,0,left,right,right,space,right,right,left,868,130376,138372,11256,20983,20599,868,2,legacy,968,1680,30,1050,30,0,25,1680,1632986269562,4,1024,2,48000,-16,experiment,1,odd,MacIntel,3,982720,402678,793594,979471,33,980498,942651,33,11298,109087,984737,981504,985620,33,984737,Sternberg_updated,96,106340,106,yes,1024
91,91,1006,1006,black,no,experiment,Mozilla,Netscape,"5.0 (Macintosh; Intel Mac OS X 10_15_7) AppleWebKit/537.36 (KHTML, like Gecko) Chrome/94.0.4606.61 Safari/537.36",legacy,legacy,legacy,0,uniform,1,1,right,106,106,106,106,0,0,0,106,106,0,0,0,106,106,106,0,0,106,106,0,30-08-21,30-08-21,09:17:21,Thu Sep 30 2021 09:17:21 GMT+0200 (Θερινή ώρα Κεντρικής Ευρώπης),The main experiment item,yes,0,0,/Users/ethan/Documents/GitHub/OpenSesame/Sternberg/experiment_files,0,0,0,no,mono,no,18,no,white,no,no,768,105,3.6.1,legacy,legacy,9 1 6 7 8,osweb,1.4.0,1,1,y,37,,0,right,right,right,space,right,right,right,1321,130376,138372,11256,20983,20599,1321,2,legacy,968,1680,30,1050,30,0,25,1680,1632986269562,5,1024,2,48000,-16,experiment,1,odd,MacIntel,9,988857,402678,793594,985620,33,986634,942651,33,11298,109087,990874,987640,992206,33,990873,Sternberg_updated,97,107661,107,yes,1024
91,91,1005,1005,black,no,experiment,Mozilla,Netscape,"5.0 (Macintosh; Intel Mac OS X 10_15_7) AppleWebKit/537.36 (KHTML, like Gecko) Chrome/94.0.4606.61 Safari/537.36",legacy,legacy,legacy,0,uniform,1,1,left,107,107,107,107,0,0,0,107,107,0,0,0,107,107,107,0,0,107,107,0,30-08-21,30-08-21,09:17:21,Thu Sep 30 2021 09:17:21 GMT+0200 (Θερινή ώρα Κεντρικής Ευρώπης),The main experiment item,yes,0,0,/Users/ethan/Documents/GitHub/OpenSesame/Sternberg/experiment_files,0,0,0,no,mono,no,18,no,white,no,no,768,105,3.6.1,legacy,legacy,2 7 5,osweb,1.4.0,1,0,n,37,,0,left,right,right,space,right,right,left,889,130376,138372,11256,20983,20599,889,2,legacy,968,1680,30,1050,30,0,25,1680,1632986269562,3,1024,2,48000,-16,experiment,1,odd,MacIntel,8,995456,402678,793594,992207,33,993233,942651,33,11298,109087,997473,994240,998362,33,997473,Sternberg_updated,98,108550,108,yes,1024
91,91,1002,1002,black,no,experiment,Mozilla,Netscape,"5.0 (Macintosh; Intel Mac OS X 10_15_7) AppleWebKit/537.36 (KHTML, like Gecko) Chrome/94.0.4606.61 Safari/537.36",legacy,legacy,legacy,0,uniform,1,1,right,108,108,108,108,0,0,0,108,108,0,0,0,108,108,108,0,0,108,108,0,30-08-21,30-08-21,09:17:21,Thu Sep 30 2021 09:17:21 GMT+0200 (Θερινή ώρα Κεντρικής Ευρώπης),The main experiment item,yes,0,0,/Users/ethan/Documents/GitHub/OpenSesame/Sternberg/experiment_files,0,0,0,no,mono,no,18,no,white,no,no,768,105,3.6.1,legacy,legacy,6 9 3 1,osweb,1.4.0,1,4,y,37,,0,right,right,right,space,right,right,right,664,130376,138372,11256,20983,20599,664,2,legacy,968,1680,30,1050,30,0,25,1680,1632986269562,4,1024,2,48000,-16,experiment,1,odd,MacIntel,1,1001613,402678,793594,998363,33,999390,942651,33,11298,109087,1003630,1000397,1004296,33,1003630,Sternberg_updated,99,109214,109,yes,1024
91,91,1002,1002,black,no,experiment,Mozilla,Netscape,"5.0 (Macintosh; Intel Mac OS X 10_15_7) AppleWebKit/537.36 (KHTML, like Gecko) Chrome/94.0.4606.61 Safari/537.36",legacy,legacy,legacy,0,uniform,1,1,right,109,109,109,109,0,0,0,109,109,0,0,0,109,109,109,0,0,109,109,0,30-08-21,30-08-21,09:17:21,Thu Sep 30 2021 09:17:21 GMT+0200 (Θερινή ώρα Κεντρικής Ευρώπης),The main experiment item,yes,0,0,/Users/ethan/Documents/GitHub/OpenSesame/Sternberg/experiment_files,0,0,0,no,mono,no,18,no,white,no,no,768,105,3.6.1,legacy,legacy,3 9 6 2,osweb,1.4.0,1,4,y,37,,0,right,right,right,space,right,right,right,1000,130376,138372,11256,20983,20599,1000,2,legacy,968,1680,30,1050,30,0,25,1680,1632986269562,4,1024,2,48000,-16,experiment,1,odd,MacIntel,2,1007530,402678,793594,1004296,33,1005308,942651,33,11298,109087,1009531,1006313,1010547,33,1009531,Sternberg_updated,100,110214,110,yes,1024
91,91,1001,1001,black,no,experiment,Mozilla,Netscape,"5.0 (Macintosh; Intel Mac OS X 10_15_7) AppleWebKit/537.36 (KHTML, like Gecko) Chrome/94.0.4606.61 Safari/537.36",legacy,legacy,legacy,0,uniform,1,1,right,110,110,110,110,0,0,0,110,110,0,0,0,110,110,110,0,0,110,110,0,30-08-21,30-08-21,09:17:21,Thu Sep 30 2021 09:17:21 GMT+0200 (Θερινή ώρα Κεντρικής Ευρώπης),The main experiment item,yes,0,0,/Users/ethan/Documents/GitHub/OpenSesame/Sternberg/experiment_files,0,0,0,no,mono,no,18,no,white,no,no,768,105,3.6.1,legacy,legacy,7 4 2 6 3 5,osweb,1.4.0,1,6,y,37,,0,right,right,right,space,right,right,right,882,130376,138372,11256,20983,20599,882,2,legacy,968,1680,30,1050,30,0,25,1680,1632986269562,6,1024,2,48000,-16,experiment,1,odd,MacIntel,5,1013798,402678,793594,1010548,33,1011574,942651,33,11298,109087,1015814,1012581,1016713,33,1015814,Sternberg_updated,101,111096,111,yes,1024
91,91,1002,1002,black,no,experiment,Mozilla,Netscape,"5.0 (Macintosh; Intel Mac OS X 10_15_7) AppleWebKit/537.36 (KHTML, like Gecko) Chrome/94.0.4606.61 Safari/537.36",legacy,legacy,legacy,0,uniform,1,1,left,111,111,111,111,0,0,0,111,111,0,0,0,111,111,111,0,0,111,111,0,30-08-21,30-08-21,09:17:21,Thu Sep 30 2021 09:17:21 GMT+0200 (Θερινή ώρα Κεντρικής Ευρώπης),The main experiment item,yes,0,0,/Users/ethan/Documents/GitHub/OpenSesame/Sternberg/experiment_files,0,0,0,no,mono,no,18,no,white,no,no,768,105,3.6.1,legacy,legacy,4 8 1 2,osweb,1.4.0,1,0,n,37,,0,left,right,right,space,right,right,left,1101,130376,138372,11256,20983,20599,1101,2,legacy,968,1680,30,1050,30,0,25,1680,1632986269562,4,1024,2,48000,-16,experiment,1,odd,MacIntel,7,1019967,402678,793594,1016714,33,1017742,942651,33,11298,109087,1021983,1018751,1023099,33,1021983,Sternberg_updated,102,112197,112,yes,1024
91,91,1001,1001,black,no,experiment,Mozilla,Netscape,"5.0 (Macintosh; Intel Mac OS X 10_15_7) AppleWebKit/537.36 (KHTML, like Gecko) Chrome/94.0.4606.61 Safari/537.36",legacy,legacy,legacy,0,uniform,1,1,left,112,112,112,112,0,0,0,112,112,0,0,0,112,112,112,0,0,112,112,0,30-08-21,30-08-21,09:17:21,Thu Sep 30 2021 09:17:21 GMT+0200 (Θερινή ώρα Κεντρικής Ευρώπης),The main experiment item,yes,0,0,/Users/ethan/Documents/GitHub/OpenSesame/Sternberg/experiment_files,0,0,0,no,mono,no,18,no,white,no,no,768,105,3.6.1,legacy,legacy,1 8 7,osweb,1.4.0,1,0,n,37,,0,left,right,right,space,right,right,left,888,130376,138372,11256,20983,20599,888,2,legacy,968,1680,30,1050,30,0,25,1680,1632986269562,3,1024,2,48000,-16,experiment,1,odd,MacIntel,4,1026349,402678,793594,1023100,33,1024126,942651,33,11298,109087,1028366,1025133,1029266,33,1028366,Sternberg_updated,103,113085,113,yes,1024
90,90,997,997,black,no,experiment,Mozilla,Netscape,"5.0 (Macintosh; Intel Mac OS X 10_15_7) AppleWebKit/537.36 (KHTML, like Gecko) Chrome/94.0.4606.61 Safari/537.36",legacy,legacy,legacy,0,uniform,0,0,left,113,113,113,113,0,0,0,113,113,0,0,0,113,113,113,0,0,113,113,0,30-08-21,30-08-21,09:17:21,Thu Sep 30 2021 09:17:21 GMT+0200 (Θερινή ώρα Κεντρικής Ευρώπης),The main experiment item,yes,0,0,/Users/ethan/Documents/GitHub/OpenSesame/Sternberg/experiment_files,0,0,0,no,mono,no,18,no,white,no,no,768,105,3.6.1,legacy,legacy,6 9 5,osweb,1.4.0,1,0,n,37,,0,right,right,right,space,right,right,right,553,130376,138372,11256,20983,20599,553,2,legacy,968,1680,30,1050,30,0,25,1680,1632986269562,3,1024,2,48000,-16,experiment,1,odd,MacIntel,8,1032505,402678,793594,1029267,33,1030282,942651,33,11298,109087,1034522,1031289,1035088,33,1034522,Sternberg_updated,103,113638,114,yes,1024
90,90,1001,1001,black,no,experiment,Mozilla,Netscape,"5.0 (Macintosh; Intel Mac OS X 10_15_7) AppleWebKit/537.36 (KHTML, like Gecko) Chrome/94.0.4606.61 Safari/537.36",legacy,legacy,legacy,0,uniform,1,1,left,114,114,114,114,0,0,0,114,114,0,0,0,114,114,114,0,0,114,114,0,30-08-21,30-08-21,09:17:21,Thu Sep 30 2021 09:17:21 GMT+0200 (Θερινή ώρα Κεντρικής Ευρώπης),The main experiment item,yes,0,0,/Users/ethan/Documents/GitHub/OpenSesame/Sternberg/experiment_files,0,0,0,no,mono,no,18,no,white,no,no,768,105,3.6.1,legacy,legacy,6 2 9 3 8 4,osweb,1.4.0,1,0,n,37,,0,left,right,right,space,right,right,left,1461,130376,138372,11256,20983,20599,1461,2,legacy,968,1680,30,1050,30,0,25,1680,1632986269562,6,1024,2,48000,-16,experiment,1,odd,MacIntel,1,1038338,402678,793594,1029267,33,1036116,1035089,33,11298,109087,1040355,1037122,1041821,33,1040355,Sternberg_updated,104,115099,115,yes,1024
91,91,1001,1001,black,no,experiment,Mozilla,Netscape,"5.0 (Macintosh; Intel Mac OS X 10_15_7) AppleWebKit/537.36 (KHTML, like Gecko) Chrome/94.0.4606.61 Safari/537.36",legacy,legacy,legacy,0,uniform,1,1,right,115,115,115,115,0,0,0,115,115,0,0,0,115,115,115,0,0,115,115,0,30-08-21,30-08-21,09:17:21,Thu Sep 30 2021 09:17:21 GMT+0200 (Θερινή ώρα Κεντρικής Ευρώπης),The main experiment item,yes,0,0,/Users/ethan/Documents/GitHub/OpenSesame/Sternberg/experiment_files,0,0,0,no,mono,no,18,no,white,no,no,768,105,3.6.1,legacy,legacy,3 4 9 6 2 9,osweb,1.4.0,1,5,y,37,,0,right,right,right,space,right,right,right,970,130376,138372,11256,20983,20599,970,2,legacy,968,1680,30,1050,30,0,25,1680,1632986269562,6,1024,2,48000,-16,experiment,1,odd,MacIntel,2,1045066,402678,793594,1041822,33,1042842,1035089,33,11298,109087,1047083,1043849,1048065,33,1047083,Sternberg_updated,105,116069,116,yes,1024
91,91,1005,1005,black,no,experiment,Mozilla,Netscape,"5.0 (Macintosh; Intel Mac OS X 10_15_7) AppleWebKit/537.36 (KHTML, like Gecko) Chrome/94.0.4606.61 Safari/537.36",legacy,legacy,legacy,0,uniform,1,1,right,116,116,116,116,0,0,0,116,116,0,0,0,116,116,116,0,0,116,116,0,30-08-21,30-08-21,09:17:21,Thu Sep 30 2021 09:17:21 GMT+0200 (Θερινή ώρα Κεντρικής Ευρώπης),The main experiment item,yes,0,0,/Users/ethan/Documents/GitHub/OpenSesame/Sternberg/experiment_files,0,0,0,no,mono,no,18,no,white,no,no,768,105,3.6.1,legacy,legacy,6 1 2,osweb,1.4.0,1,3,y,37,,0,right,right,right,space,right,right,right,1488,130376,138372,11256,20983,20599,1488,2,legacy,968,1680,30,1050,30,0,25,1680,1632986269562,3,1024,2,48000,-16,experiment,1,odd,MacIntel,2,1051315,402678,793594,1048066,33,1049094,1035089,33,11298,109087,1053337,1050099,1054837,33,1053337,Sternberg_updated,106,117557,117,yes,1024
