acc,accuracy,average_response_time,avg_rt,background,bidi,block,browser_codename,browser_name,browser_version,canvas_backend,clock_backend,color_backend,compensation,coordinates,correct,correct_keyboard_response,correct_response,count_ISI,count_break1,count_break_2,count_correct_feedback,count_credits,count_experiment,count_experimentLoop,count_fixation,count_incorrect_feedback,count_instructions1a,count_instructions1b,count_instructions2,count_keyboard_response,count_memory_set,count_new_logger,count_osweb,count_practiceLoop,count_practiceSequence,count_probe,count_thankYou,date_startdate,date_startdateUTC,date_starttime,datetime,description,disable_garbage_collection,experiment_debug,experiment_parameters,experiment_path,experiment_pilot,experiment_taskname,experiment_taskversion,font_bold,font_family,font_italic,font_size,font_underline,foreground,form_clicks,fullscreen,height,jatosStudyResultId,jatosVersion,keyboard_backend,mouse_backend,numberSet,opensesame_codename,opensesame_version,penwidth,posInSet,present,queryParams_batchId,queryParams_generalMultiple,repeat_cycle,response,response_break1,response_break_2,response_instructions1a,response_instructions1b,response_instructions2,response_keyboard_response,response_time,response_time_break1,response_time_break_2,response_time_instructions1a,response_time_instructions1b,response_time_instructions2,response_time_keyboard_response,round_decimals,sampler_backend,screen_availableHeight,screen_availableWidth,screen_colorDepth,screen_height,screen_pixelDepth,screen_screenX,screen_screenY,screen_width,sessionid,setSize,sound_buf_size,sound_channels,sound_freq,sound_sample_size,start,subject_nr,subject_parity,system_os,target,time_ISI,time_break1,time_break_2,time_correct_feedback,time_experimentLoop,time_fixation,time_incorrect_feedback,time_instructions1a,time_instructions1b,time_instructions2,time_keyboard_response,time_memory_set,time_new_logger,time_practiceLoop,time_probe,title,total_correct,total_response_time,total_responses,uniform_coordinates,width
100,100,861,861,black,no,practice,Mozilla,Netscape,5.0 (Macintosh),legacy,legacy,legacy,0,uniform,1,1,right,0,0,0,0,0,0,0,0,0,0,0,0,0,0,0,0,0,0,0,0,30-08-21,30-08-21,09:17:22,Thu Sep 30 2021 09:17:22 GMT+0200 (Central European Summer Time),The main experiment item,yes,0,0,/Users/ethan/Documents/GitHub/OpenSesame/Sternberg/experiment_files,0,0,0,no,mono,no,18,no,white,no,no,768,106,3.6.1,legacy,legacy,1 7 9 8 5,osweb,1.4.0,1,4,y,37,,0,right,,,space,right,,right,861,,,11595,15051,,861,2,legacy,875,1440,24,900,24,0,32,1440,1632986335674,5,1024,2,48000,-16,experiment,0,even,MacIntel,8,28950,,,,38,26736,,38,11650,,30960,27748,31834,38,30959,Sternberg_updated,1,861,1,yes,1024
100,100,1093,1093,black,no,practice,Mozilla,Netscape,5.0 (Macintosh),legacy,legacy,legacy,0,uniform,1,1,left,1,1,1,1,0,0,0,1,1,0,0,0,1,1,1,0,0,1,1,0,30-08-21,30-08-21,09:17:22,Thu Sep 30 2021 09:17:22 GMT+0200 (Central European Summer Time),The main experiment item,yes,0,0,/Users/ethan/Documents/GitHub/OpenSesame/Sternberg/experiment_files,0,0,0,no,mono,no,18,no,white,no,no,768,106,3.6.1,legacy,legacy,5,osweb,1.4.0,1,0,n,37,,0,left,,,space,right,,left,1325,,,11595,15051,,1325,2,legacy,875,1440,24,900,24,0,32,1440,1632986335674,1,1024,2,48000,-16,experiment,0,even,MacIntel,3,35079,,,31838,38,32868,,38,11650,,37089,33875,38414,38,37089,Sternberg_updated,2,2186,2,yes,1024
100,100,1103,1103,black,no,practice,Mozilla,Netscape,5.0 (Macintosh),legacy,legacy,legacy,0,uniform,1,1,left,2,2,2,2,0,0,0,2,2,0,0,0,2,2,2,0,0,2,2,0,30-08-21,30-08-21,09:17:22,Thu Sep 30 2021 09:17:22 GMT+0200 (Central European Summer Time),The main experiment item,yes,0,0,/Users/ethan/Documents/GitHub/OpenSesame/Sternberg/experiment_files,0,0,0,no,mono,no,18,no,white,no,no,768,106,3.6.1,legacy,legacy,4 1 5,osweb,1.4.0,1,0,n,37,,0,left,,,space,right,,left,1123,,,11595,15051,,1123,2,legacy,875,1440,24,900,24,0,32,1440,1632986335674,3,1024,2,48000,-16,experiment,0,even,MacIntel,2,41644,,,38416,38,39431,,38,11650,,43661,40434,44786,38,43660,Sternberg_updated,3,3309,3,yes,1024
75,75,1011,1011,black,no,practice,Mozilla,Netscape,5.0 (Macintosh),legacy,legacy,legacy,0,uniform,0,0,left,3,3,3,3,0,0,0,3,3,0,0,0,3,3,3,0,0,3,3,0,30-08-21,30-08-21,09:17:22,Thu Sep 30 2021 09:17:22 GMT+0200 (Central European Summer Time),The main experiment item,yes,0,0,/Users/ethan/Documents/GitHub/OpenSesame/Sternberg/experiment_files,0,0,0,no,mono,no,18,no,white,no,no,768,106,3.6.1,legacy,legacy,5 7 8 4 1 2,osweb,1.4.0,1,0,n,37,,0,right,,,space,right,,right,736,,,11595,15051,,736,2,legacy,875,1440,24,900,24,0,32,1440,1632986335674,6,1024,2,48000,-16,experiment,0,even,MacIntel,6,48027,,,44787,38,45803,,38,11650,,50036,46817,50777,38,50036,Sternberg_updated,3,4045,4,yes,1024
80,80,1011,1011,black,no,practice,Mozilla,Netscape,5.0 (Macintosh),legacy,legacy,legacy,0,uniform,1,1,right,4,4,4,4,0,0,0,4,4,0,0,0,4,4,4,0,0,4,4,0,30-08-21,30-08-21,09:17:22,Thu Sep 30 2021 09:17:22 GMT+0200 (Central European Summer Time),The main experiment item,yes,0,0,/Users/ethan/Documents/GitHub/OpenSesame/Sternberg/experiment_files,0,0,0,no,mono,no,18,no,white,no,no,768,106,3.6.1,legacy,legacy,1 5 2 9,osweb,1.4.0,1,2,y,37,,0,right,,,space,right,,right,1011,,,11595,15051,,1011,2,legacy,875,1440,24,900,24,0,32,1440,1632986335674,4,1024,2,48000,-16,experiment,0,even,MacIntel,5,54007,,,44787,38,51794,50778,38,11650,,56017,52805,57037,38,56017,Sternberg_updated,4,5056,5,yes,1024
83,83,1021,1021,black,no,practice,Mozilla,Netscape,5.0 (Macintosh),legacy,legacy,legacy,0,uniform,1,1,right,5,5,5,5,0,0,0,5,5,0,0,0,5,5,5,0,0,5,5,0,30-08-21,30-08-21,09:17:22,Thu Sep 30 2021 09:17:22 GMT+0200 (Central European Summer Time),The main experiment item,yes,0,0,/Users/ethan/Documents/GitHub/OpenSesame/Sternberg/experiment_files,0,0,0,no,mono,no,18,no,white,no,no,768,106,3.6.1,legacy,legacy,4 8,osweb,1.4.0,1,1,y,37,,0,right,,,space,right,,right,1071,,,11595,15051,,1071,2,legacy,875,1440,24,900,24,0,32,1440,1632986335674,2,1024,2,48000,-16,experiment,0,even,MacIntel,4,60262,,,57038,38,58057,50778,38,11650,,62277,59059,63363,38,62277,Sternberg_updated,5,6127,6,yes,1024
86,86,1024,1024,black,no,practice,Mozilla,Netscape,5.0 (Macintosh),legacy,legacy,legacy,0,uniform,1,1,left,6,6,6,6,0,0,0,6,6,0,0,0,6,6,6,0,0,6,6,0,30-08-21,30-08-21,09:17:22,Thu Sep 30 2021 09:17:22 GMT+0200 (Central European Summer Time),The main experiment item,yes,0,0,/Users/ethan/Documents/GitHub/OpenSesame/Sternberg/experiment_files,0,0,0,no,mono,no,18,no,white,no,no,768,106,3.6.1,legacy,legacy,9 6 7 4 5,osweb,1.4.0,1,0,n,37,,0,left,,,space,right,,left,1039,,,11595,15051,,1039,2,legacy,875,1440,24,900,24,0,32,1440,1632986335674,5,1024,2,48000,-16,experiment,0,even,MacIntel,3,66617,,,63364,38,64385,50778,38,11650,,68628,65401,69678,38,68628,Sternberg_updated,6,7166,7,yes,1024
88,88,1009,1009,black,no,practice,Mozilla,Netscape,5.0 (Macintosh),legacy,legacy,legacy,0,uniform,1,1,right,7,7,7,7,0,0,0,7,7,0,0,0,7,7,7,0,0,7,7,0,30-08-21,30-08-21,09:17:22,Thu Sep 30 2021 09:17:22 GMT+0200 (Central European Summer Time),The main experiment item,yes,0,0,/Users/ethan/Documents/GitHub/OpenSesame/Sternberg/experiment_files,0,0,0,no,mono,no,18,no,white,no,no,768,106,3.6.1,legacy,legacy,2 9 4,osweb,1.4.0,1,3,y,37,,0,right,,,space,right,,right,907,,,11595,15051,,907,2,legacy,875,1440,24,900,24,0,32,1440,1632986335674,3,1024,2,48000,-16,experiment,0,even,MacIntel,4,72918,,,69679,38,70696,50778,38,11650,,74926,71710,75847,38,74926,Sternberg_updated,7,8073,8,yes,1024
89,89,988,988,black,no,practice,Mozilla,Netscape,5.0 (Macintosh),legacy,legacy,legacy,0,uniform,1,1,right,8,8,8,8,0,0,0,8,8,0,0,0,8,8,8,0,0,8,8,0,30-08-21,30-08-21,09:17:22,Thu Sep 30 2021 09:17:22 GMT+0200 (Central European Summer Time),The main experiment item,yes,0,0,/Users/ethan/Documents/GitHub/OpenSesame/Sternberg/experiment_files,0,0,0,no,mono,no,18,no,white,no,no,768,106,3.6.1,legacy,legacy,6,osweb,1.4.0,1,1,y,37,,0,right,,,space,right,,right,823,,,11595,15051,,823,2,legacy,875,1440,24,900,24,0,32,1440,1632986335674,1,1024,2,48000,-16,experiment,0,even,MacIntel,6,79072,,,75849,38,76862,50778,38,11650,,81089,77865,81913,38,81089,Sternberg_updated,8,8896,9,yes,1024
90,90,983,983,black,no,practice,Mozilla,Netscape,5.0 (Macintosh),legacy,legacy,legacy,0,uniform,1,1,left,9,9,9,9,0,0,0,9,9,0,0,0,9,9,9,0,0,9,9,0,30-08-21,30-08-21,09:17:22,Thu Sep 30 2021 09:17:22 GMT+0200 (Central European Summer Time),The main experiment item,yes,0,0,/Users/ethan/Documents/GitHub/OpenSesame/Sternberg/experiment_files,0,0,0,no,mono,no,18,no,white,no,no,768,106,3.6.1,legacy,legacy,3 1 9 4,osweb,1.4.0,1,0,n,37,,0,left,,,space,right,,left,934,,,11595,15051,,934,2,legacy,875,1440,24,900,24,0,32,1440,1632986335674,4,1024,2,48000,-16,experiment,0,even,MacIntel,6,85144,,,81914,38,82934,50778,38,11650,,87147,83935,88085,38,87147,Sternberg_updated,9,9830,10,yes,1024
91,91,983,983,black,no,practice,Mozilla,Netscape,5.0 (Macintosh),legacy,legacy,legacy,0,uniform,1,1,left,10,10,10,10,0,0,0,10,10,0,0,0,10,10,10,0,0,10,10,0,30-08-21,30-08-21,09:17:22,Thu Sep 30 2021 09:17:22 GMT+0200 (Central European Summer Time),The main experiment item,yes,0,0,/Users/ethan/Documents/GitHub/OpenSesame/Sternberg/experiment_files,0,0,0,no,mono,no,18,no,white,no,no,768,106,3.6.1,legacy,legacy,2 1,osweb,1.4.0,1,0,n,37,,0,left,,,space,right,,left,984,,,11595,15051,,984,2,legacy,875,1440,24,900,24,0,32,1440,1632986335674,2,1024,2,48000,-16,experiment,0,even,MacIntel,5,91319,,,88086,38,89107,50778,38,11650,,93331,90115,94318,38,93331,Sternberg_updated,10,10814,11,yes,1024
83,83,985,985,black,no,practice,Mozilla,Netscape,5.0 (Macintosh),legacy,legacy,legacy,0,uniform,0,0,right,11,11,11,11,0,0,0,11,11,0,0,0,11,11,11,0,0,11,11,0,30-08-21,30-08-21,09:17:22,Thu Sep 30 2021 09:17:22 GMT+0200 (Central European Summer Time),The main experiment item,yes,0,0,/Users/ethan/Documents/GitHub/OpenSesame/Sternberg/experiment_files,0,0,0,no,mono,no,18,no,white,no,no,768,106,3.6.1,legacy,legacy,4 3 1 7 9 8,osweb,1.4.0,1,1,y,37,,0,left,,,space,right,,left,1005,,,11595,15051,,1005,2,legacy,875,1440,24,900,24,0,32,1440,1632986335674,6,1024,2,48000,-16,experiment,0,even,MacIntel,4,97553,,,94319,38,95340,50778,38,11650,,99555,96349,100571,38,99555,Sternberg_updated,10,11819,12,yes,1024
85,85,963,963,black,no,experiment,Mozilla,Netscape,5.0 (Macintosh),legacy,legacy,legacy,0,uniform,1,1,left,12,12,12,12,0,0,0,12,12,0,0,0,12,12,12,0,0,12,12,0,30-08-21,30-08-21,09:17:22,Thu Sep 30 2021 09:17:22 GMT+0200 (Central European Summer Time),The main experiment item,yes,0,0,/Users/ethan/Documents/GitHub/OpenSesame/Sternberg/experiment_files,0,0,0,no,mono,no,18,no,white,no,no,768,106,3.6.1,legacy,legacy,1 8 7,osweb,1.4.0,1,0,n,37,,0,left,,,space,right,right,left,706,,,11595,15051,11683,706,2,legacy,875,1440,24,900,24,0,32,1440,1632986335674,3,1024,2,48000,-16,experiment,0,even,MacIntel,4,115512,,,94319,38,113287,100572,38,11650,101579,117517,114304,118237,38,117517,Sternberg_updated,11,12525,13,yes,1024
86,86,951,951,black,no,experiment,Mozilla,Netscape,5.0 (Macintosh),legacy,legacy,legacy,0,uniform,1,1,left,13,13,13,13,0,0,0,13,13,0,0,0,13,13,13,0,0,13,13,0,30-08-21,30-08-21,09:17:22,Thu Sep 30 2021 09:17:22 GMT+0200 (Central European Summer Time),The main experiment item,yes,0,0,/Users/ethan/Documents/GitHub/OpenSesame/Sternberg/experiment_files,0,0,0,no,mono,no,18,no,white,no,no,768,106,3.6.1,legacy,legacy,1 7 5 2 9,osweb,1.4.0,1,0,n,37,,0,left,,,space,right,right,left,791,,,11595,15051,11683,791,2,legacy,875,1440,24,900,24,0,32,1440,1632986335674,5,1024,2,48000,-16,experiment,0,even,MacIntel,3,121461,,,118238,38,119257,100572,38,11650,101579,123475,120259,124278,38,123475,Sternberg_updated,12,13316,14,yes,1024
87,87,930,930,black,no,experiment,Mozilla,Netscape,5.0 (Macintosh),legacy,legacy,legacy,0,uniform,1,1,left,14,14,14,14,0,0,0,14,14,0,0,0,14,14,14,0,0,14,14,0,30-08-21,30-08-21,09:17:22,Thu Sep 30 2021 09:17:22 GMT+0200 (Central European Summer Time),The main experiment item,yes,0,0,/Users/ethan/Documents/GitHub/OpenSesame/Sternberg/experiment_files,0,0,0,no,mono,no,18,no,white,no,no,768,106,3.6.1,legacy,legacy,6 8,osweb,1.4.0,1,0,n,37,,0,left,,,space,right,right,left,640,,,11595,15051,11683,640,2,legacy,875,1440,24,900,24,0,32,1440,1632986335674,2,1024,2,48000,-16,experiment,0,even,MacIntel,9,127501,,,124279,38,125294,100572,38,11650,101579,129509,126296,130149,38,129509,Sternberg_updated,13,13956,15,yes,1024
81,81,925,925,black,no,experiment,Mozilla,Netscape,5.0 (Macintosh),legacy,legacy,legacy,0,uniform,0,0,right,15,15,15,15,0,0,0,15,15,0,0,0,15,15,15,0,0,15,15,0,30-08-21,30-08-21,09:17:22,Thu Sep 30 2021 09:17:22 GMT+0200 (Central European Summer Time),The main experiment item,yes,0,0,/Users/ethan/Documents/GitHub/OpenSesame/Sternberg/experiment_files,0,0,0,no,mono,no,18,no,white,no,no,768,106,3.6.1,legacy,legacy,8 5 3 7 4 6,osweb,1.4.0,1,6,y,37,,0,left,,,space,right,right,left,848,,,11595,15051,11683,848,2,legacy,875,1440,24,900,24,0,32,1440,1632986335674,6,1024,2,48000,-16,experiment,0,even,MacIntel,6,133404,,,130151,38,131181,100572,38,11650,101579,135421,132196,136279,38,135421,Sternberg_updated,13,14804,16,yes,1024
82,82,914,914,black,no,experiment,Mozilla,Netscape,5.0 (Macintosh),legacy,legacy,legacy,0,uniform,1,1,right,16,16,16,16,0,0,0,16,16,0,0,0,16,16,16,0,0,16,16,0,30-08-21,30-08-21,09:17:22,Thu Sep 30 2021 09:17:22 GMT+0200 (Central European Summer Time),The main experiment item,yes,0,0,/Users/ethan/Documents/GitHub/OpenSesame/Sternberg/experiment_files,0,0,0,no,mono,no,18,no,white,no,no,768,106,3.6.1,legacy,legacy,8 1 6,osweb,1.4.0,1,3,y,37,,0,right,,,space,right,right,right,732,,,11595,15051,11683,732,2,legacy,875,1440,24,900,24,0,32,1440,1632986335674,3,1024,2,48000,-16,experiment,0,even,MacIntel,6,139508,,,130151,38,137297,136281,38,11650,101579,141512,138300,142248,38,141512,Sternberg_updated,14,15536,17,yes,1024
83,83,925,925,black,no,experiment,Mozilla,Netscape,5.0 (Macintosh),legacy,legacy,legacy,0,uniform,1,1,right,17,17,17,17,0,0,0,17,17,0,0,0,17,17,17,0,0,17,17,0,30-08-21,30-08-21,09:17:22,Thu Sep 30 2021 09:17:22 GMT+0200 (Central European Summer Time),The main experiment item,yes,0,0,/Users/ethan/Documents/GitHub/OpenSesame/Sternberg/experiment_files,0,0,0,no,mono,no,18,no,white,no,no,768,106,3.6.1,legacy,legacy,5 7 8 2 3 8,osweb,1.4.0,1,5,y,37,,0,right,,,space,right,right,right,1114,,,11595,15051,11683,1114,2,legacy,875,1440,24,900,24,0,32,1440,1632986335674,6,1024,2,48000,-16,experiment,0,even,MacIntel,3,145490,,,142250,38,143268,136281,38,11650,101579,147503,144286,148622,38,147503,Sternberg_updated,15,16650,18,yes,1024
84,84,911,911,black,no,experiment,Mozilla,Netscape,5.0 (Macintosh),legacy,legacy,legacy,0,uniform,1,1,right,18,18,18,18,0,0,0,18,18,0,0,0,18,18,18,0,0,18,18,0,30-08-21,30-08-21,09:17:22,Thu Sep 30 2021 09:17:22 GMT+0200 (Central European Summer Time),The main experiment item,yes,0,0,/Users/ethan/Documents/GitHub/OpenSesame/Sternberg/experiment_files,0,0,0,no,mono,no,18,no,white,no,no,768,106,3.6.1,legacy,legacy,8,osweb,1.4.0,1,1,y,37,,0,right,,,space,right,right,right,653,,,11595,15051,11683,653,2,legacy,875,1440,24,900,24,0,32,1440,1632986335674,1,1024,2,48000,-16,experiment,0,even,MacIntel,8,151857,,,148623,38,149645,136281,38,11650,101579,153870,150654,154537,38,153870,Sternberg_updated,16,17303,19,yes,1024
85,85,910,910,black,no,experiment,Mozilla,Netscape,5.0 (Macintosh),legacy,legacy,legacy,0,uniform,1,1,left,19,19,19,19,0,0,0,19,19,0,0,0,19,19,19,0,0,19,19,0,30-08-21,30-08-21,09:17:22,Thu Sep 30 2021 09:17:22 GMT+0200 (Central European Summer Time),The main experiment item,yes,0,0,/Users/ethan/Documents/GitHub/OpenSesame/Sternberg/experiment_files,0,0,0,no,mono,no,18,no,white,no,no,768,106,3.6.1,legacy,legacy,5 7 3,osweb,1.4.0,1,0,n,37,,0,left,,,space,right,right,left,888,,,11595,15051,11683,888,2,legacy,875,1440,24,900,24,0,32,1440,1632986335674,3,1024,2,48000,-16,experiment,0,even,MacIntel,9,157755,,,154537,38,155550,136281,38,11650,101579,159772,156551,160675,38,159772,Sternberg_updated,17,18191,20,yes,1024
86,86,908,908,black,no,experiment,Mozilla,Netscape,5.0 (Macintosh),legacy,legacy,legacy,0,uniform,1,1,right,20,20,20,20,0,0,0,20,20,0,0,0,20,20,20,0,0,20,20,0,30-08-21,30-08-21,09:17:22,Thu Sep 30 2021 09:17:22 GMT+0200 (Central European Summer Time),The main experiment item,yes,0,0,/Users/ethan/Documents/GitHub/OpenSesame/Sternberg/experiment_files,0,0,0,no,mono,no,18,no,white,no,no,768,106,3.6.1,legacy,legacy,8 5 4 7 3 1,osweb,1.4.0,1,2,y,37,,0,right,,,space,right,right,right,886,,,11595,15051,11683,886,2,legacy,875,1440,24,900,24,0,32,1440,1632986335674,6,1024,2,48000,-16,experiment,0,even,MacIntel,5,163915,,,160675,38,161701,136281,38,11650,101579,165933,162702,166822,38,165933,Sternberg_updated,18,19077,21,yes,1024
86,86,891,891,black,no,experiment,Mozilla,Netscape,5.0 (Macintosh),legacy,legacy,legacy,0,uniform,1,1,right,21,21,21,21,0,0,0,21,21,0,0,0,21,21,21,0,0,21,21,0,30-08-21,30-08-21,09:17:22,Thu Sep 30 2021 09:17:22 GMT+0200 (Central European Summer Time),The main experiment item,yes,0,0,/Users/ethan/Documents/GitHub/OpenSesame/Sternberg/experiment_files,0,0,0,no,mono,no,18,no,white,no,no,768,106,3.6.1,legacy,legacy,2 3,osweb,1.4.0,1,1,y,37,,0,right,,,space,right,right,right,516,,,11595,15051,11683,516,2,legacy,875,1440,24,900,24,0,32,1440,1632986335674,2,1024,2,48000,-16,experiment,0,even,MacIntel,2,170051,,,166824,38,167840,136281,38,11650,101579,172056,168841,172576,38,172056,Sternberg_updated,19,19593,22,yes,1024
87,87,882,882,black,no,experiment,Mozilla,Netscape,5.0 (Macintosh),legacy,legacy,legacy,0,uniform,1,1,right,22,22,22,22,0,0,0,22,22,0,0,0,22,22,22,0,0,22,22,0,30-08-21,30-08-21,09:17:22,Thu Sep 30 2021 09:17:22 GMT+0200 (Central European Summer Time),The main experiment item,yes,0,0,/Users/ethan/Documents/GitHub/OpenSesame/Sternberg/experiment_files,0,0,0,no,mono,no,18,no,white,no,no,768,106,3.6.1,legacy,legacy,5 2 6,osweb,1.4.0,1,2,y,37,,0,right,,,space,right,right,right,689,,,11595,15051,11683,689,2,legacy,875,1440,24,900,24,0,32,1440,1632986335674,3,1024,2,48000,-16,experiment,0,even,MacIntel,2,175814,,,172577,38,173595,136281,38,11650,101579,177828,174611,178531,38,177828,Sternberg_updated,20,20282,23,yes,1024
88,88,880,880,black,no,experiment,Mozilla,Netscape,5.0 (Macintosh),legacy,legacy,legacy,0,uniform,1,1,left,23,23,23,23,0,0,0,23,23,0,0,0,23,23,23,0,0,23,23,0,30-08-21,30-08-21,09:17:22,Thu Sep 30 2021 09:17:22 GMT+0200 (Central European Summer Time),The main experiment item,yes,0,0,/Users/ethan/Documents/GitHub/OpenSesame/Sternberg/experiment_files,0,0,0,no,mono,no,18,no,white,no,no,768,106,3.6.1,legacy,legacy,4 2 7 6 1 3,osweb,1.4.0,1,0,n,37,,0,left,,,space,right,right,left,847,,,11595,15051,11683,847,2,legacy,875,1440,24,900,24,0,32,1440,1632986335674,6,1024,2,48000,-16,experiment,0,even,MacIntel,8,181755,,,178532,38,179546,136281,38,11650,101579,183764,180548,184622,38,183764,Sternberg_updated,21,21129,24,yes,1024
88,88,879,879,black,no,experiment,Mozilla,Netscape,5.0 (Macintosh),legacy,legacy,legacy,0,uniform,1,1,left,24,24,24,24,0,0,0,24,24,0,0,0,24,24,24,0,0,24,24,0,30-08-21,30-08-21,09:17:22,Thu Sep 30 2021 09:17:22 GMT+0200 (Central European Summer Time),The main experiment item,yes,0,0,/Users/ethan/Documents/GitHub/OpenSesame/Sternberg/experiment_files,0,0,0,no,mono,no,18,no,white,no,no,768,106,3.6.1,legacy,legacy,4 8 1 2,osweb,1.4.0,1,0,n,37,,0,left,,,space,right,right,left,837,,,11595,15051,11683,837,2,legacy,875,1440,24,900,24,0,32,1440,1632986335674,4,1024,2,48000,-16,experiment,0,even,MacIntel,7,187863,,,184624,38,185637,136281,38,11650,101579,189878,186655,190720,38,189878,Sternberg_updated,22,21966,25,yes,1024
88,88,873,873,black,no,experiment,Mozilla,Netscape,5.0 (Macintosh),legacy,legacy,legacy,0,uniform,1,1,right,25,25,25,25,0,0,0,25,25,0,0,0,25,25,25,0,0,25,25,0,30-08-21,30-08-21,09:17:22,Thu Sep 30 2021 09:17:22 GMT+0200 (Central European Summer Time),The main experiment item,yes,0,0,/Users/ethan/Documents/GitHub/OpenSesame/Sternberg/experiment_files,0,0,0,no,mono,no,18,no,white,no,no,768,106,3.6.1,legacy,legacy,4 1 5,osweb,1.4.0,1,2,y,37,,0,right,,,space,right,right,right,719,,,11595,15051,11683,719,2,legacy,875,1440,24,900,24,0,32,1440,1632986335674,3,1024,2,48000,-16,experiment,0,even,MacIntel,1,193950,,,190720,38,191739,136281,38,11650,101579,195955,192742,196691,38,195955,Sternberg_updated,23,22685,26,yes,1024
89,89,867,867,black,no,experiment,Mozilla,Netscape,5.0 (Macintosh),legacy,legacy,legacy,0,uniform,1,1,left,26,26,26,26,0,0,0,26,26,0,0,0,26,26,26,0,0,26,26,0,30-08-21,30-08-21,09:17:22,Thu Sep 30 2021 09:17:22 GMT+0200 (Central European Summer Time),The main experiment item,yes,0,0,/Users/ethan/Documents/GitHub/OpenSesame/Sternberg/experiment_files,0,0,0,no,mono,no,18,no,white,no,no,768,106,3.6.1,legacy,legacy,4 1,osweb,1.4.0,1,0,n,37,,0,left,,,space,right,right,left,724,,,11595,15051,11683,724,2,legacy,875,1440,24,900,24,0,32,1440,1632986335674,2,1024,2,48000,-16,experiment,0,even,MacIntel,6,199926,,,196692,38,197712,136281,38,11650,101579,201939,198724,202677,38,201939,Sternberg_updated,24,23409,27,yes,1024
89,89,859,859,black,no,experiment,Mozilla,Netscape,5.0 (Macintosh),legacy,legacy,legacy,0,uniform,1,1,right,27,27,27,27,0,0,0,27,27,0,0,0,27,27,27,0,0,27,27,0,30-08-21,30-08-21,09:17:22,Thu Sep 30 2021 09:17:22 GMT+0200 (Central European Summer Time),The main experiment item,yes,0,0,/Users/ethan/Documents/GitHub/OpenSesame/Sternberg/experiment_files,0,0,0,no,mono,no,18,no,white,no,no,768,106,3.6.1,legacy,legacy,3 5 7 1,osweb,1.4.0,1,3,y,37,,0,right,,,space,right,right,right,648,,,11595,15051,11683,648,2,legacy,875,1440,24,900,24,0,32,1440,1632986335674,4,1024,2,48000,-16,experiment,0,even,MacIntel,7,205923,,,202677,38,203690,136281,38,11650,101579,207931,204707,208584,38,207931,Sternberg_updated,25,24057,28,yes,1024
90,90,850,850,black,no,experiment,Mozilla,Netscape,5.0 (Macintosh),legacy,legacy,legacy,0,uniform,1,1,right,28,28,28,28,0,0,0,28,28,0,0,0,28,28,28,0,0,28,28,0,30-08-21,30-08-21,09:17:22,Thu Sep 30 2021 09:17:22 GMT+0200 (Central European Summer Time),The main experiment item,yes,0,0,/Users/ethan/Documents/GitHub/OpenSesame/Sternberg/experiment_files,0,0,0,no,mono,no,18,no,white,no,no,768,106,3.6.1,legacy,legacy,2 5 4 8 7,osweb,1.4.0,1,3,y,37,,0,right,,,space,right,right,right,593,,,11595,15051,11683,593,2,legacy,875,1440,24,900,24,0,32,1440,1632986335674,5,1024,2,48000,-16,experiment,0,even,MacIntel,4,211807,,,208586,38,209598,136281,38,11650,101579,213811,210603,214414,38,213811,Sternberg_updated,26,24650,29,yes,1024
90,90,843,843,black,no,experiment,Mozilla,Netscape,5.0 (Macintosh),legacy,legacy,legacy,0,uniform,1,1,left,29,29,29,29,0,0,0,29,29,0,0,0,29,29,29,0,0,29,29,0,30-08-21,30-08-21,09:17:22,Thu Sep 30 2021 09:17:22 GMT+0200 (Central European Summer Time),The main experiment item,yes,0,0,/Users/ethan/Documents/GitHub/OpenSesame/Sternberg/experiment_files,0,0,0,no,mono,no,18,no,white,no,no,768,106,3.6.1,legacy,legacy,2 3 8 5 6 7,osweb,1.4.0,1,0,n,37,,0,left,,,space,right,right,left,632,,,11595,15051,11683,632,2,legacy,875,1440,24,900,24,0,32,1440,1632986335674,6,1024,2,48000,-16,experiment,0,even,MacIntel,1,217641,,,214415,38,215431,136281,38,11650,101579,219651,216433,220288,38,219651,Sternberg_updated,27,25282,30,yes,1024
90,90,832,832,black,no,experiment,Mozilla,Netscape,5.0 (Macintosh),legacy,legacy,legacy,0,uniform,1,1,right,30,30,30,30,0,0,0,30,30,0,0,0,30,30,30,0,0,30,30,0,30-08-21,30-08-21,09:17:22,Thu Sep 30 2021 09:17:22 GMT+0200 (Central European Summer Time),The main experiment item,yes,0,0,/Users/ethan/Documents/GitHub/OpenSesame/Sternberg/experiment_files,0,0,0,no,mono,no,18,no,white,no,no,768,106,3.6.1,legacy,legacy,6 1 2,osweb,1.4.0,1,3,y,37,,0,right,,,space,right,right,right,512,,,11595,15051,11683,512,2,legacy,875,1440,24,900,24,0,32,1440,1632986335674,3,1024,2,48000,-16,experiment,0,even,MacIntel,2,223512,,,220288,38,221309,136281,38,11650,101579,225526,222310,226045,38,225525,Sternberg_updated,28,25794,31,yes,1024
91,91,823,823,black,no,experiment,Mozilla,Netscape,5.0 (Macintosh),legacy,legacy,legacy,0,uniform,1,1,left,31,31,31,31,0,0,0,31,31,0,0,0,31,31,31,0,0,31,31,0,30-08-21,30-08-21,09:17:22,Thu Sep 30 2021 09:17:22 GMT+0200 (Central European Summer Time),The main experiment item,yes,0,0,/Users/ethan/Documents/GitHub/OpenSesame/Sternberg/experiment_files,0,0,0,no,mono,no,18,no,white,no,no,768,106,3.6.1,legacy,legacy,1 7 5 2,osweb,1.4.0,1,0,n,37,,0,left,,,space,right,right,left,553,,,11595,15051,11683,553,2,legacy,875,1440,24,900,24,0,32,1440,1632986335674,4,1024,2,48000,-16,experiment,0,even,MacIntel,3,229283,,,226046,38,227060,136281,38,11650,101579,231291,228076,231844,38,231291,Sternberg_updated,29,26347,32,yes,1024
91,91,820,820,black,no,experiment,Mozilla,Netscape,5.0 (Macintosh),legacy,legacy,legacy,0,uniform,1,1,left,32,32,32,32,0,0,0,32,32,0,0,0,32,32,32,0,0,32,32,0,30-08-21,30-08-21,09:17:22,Thu Sep 30 2021 09:17:22 GMT+0200 (Central European Summer Time),The main experiment item,yes,0,0,/Users/ethan/Documents/GitHub/OpenSesame/Sternberg/experiment_files,0,0,0,no,mono,no,18,no,white,no,no,768,106,3.6.1,legacy,legacy,7 6 4 8 1 2,osweb,1.4.0,1,0,n,37,,0,left,,,space,right,right,left,707,,,11595,15051,11683,707,2,legacy,875,1440,24,900,24,0,32,1440,1632986335674,6,1024,2,48000,-16,experiment,0,even,MacIntel,9,235080,,,231846,38,232870,136281,38,11650,101579,237088,233872,237796,38,237088,Sternberg_updated,30,27054,33,yes,1024
91,91,816,816,black,no,experiment,Mozilla,Netscape,5.0 (Macintosh),legacy,legacy,legacy,0,uniform,1,1,left,33,33,33,33,0,0,0,33,33,0,0,0,33,33,33,0,0,33,33,0,30-08-21,30-08-21,09:17:22,Thu Sep 30 2021 09:17:22 GMT+0200 (Central European Summer Time),The main experiment item,yes,0,0,/Users/ethan/Documents/GitHub/OpenSesame/Sternberg/experiment_files,0,0,0,no,mono,no,18,no,white,no,no,768,106,3.6.1,legacy,legacy,3 9 1,osweb,1.4.0,1,0,n,37,,0,left,,,space,right,right,left,702,,,11595,15051,11683,702,2,legacy,875,1440,24,900,24,0,32,1440,1632986335674,3,1024,2,48000,-16,experiment,0,even,MacIntel,7,241026,,,237797,38,238811,136281,38,11650,101579,243034,239822,243738,38,243034,Sternberg_updated,31,27756,34,yes,1024
91,91,830,830,black,no,experiment,Mozilla,Netscape,5.0 (Macintosh),legacy,legacy,legacy,0,uniform,1,1,left,34,34,34,34,0,0,0,34,34,0,0,0,34,34,34,0,0,34,34,0,30-08-21,30-08-21,09:17:22,Thu Sep 30 2021 09:17:22 GMT+0200 (Central European Summer Time),The main experiment item,yes,0,0,/Users/ethan/Documents/GitHub/OpenSesame/Sternberg/experiment_files,0,0,0,no,mono,no,18,no,white,no,no,768,106,3.6.1,legacy,legacy,9 8 2 7 4,osweb,1.4.0,1,0,n,37,,0,left,,,space,right,right,left,1306,,,11595,15051,11683,1306,2,legacy,875,1440,24,900,24,0,32,1440,1632986335674,5,1024,2,48000,-16,experiment,0,even,MacIntel,5,246985,,,243739,38,244756,136281,38,11650,101579,248997,245768,250314,38,248997,Sternberg_updated,32,29062,35,yes,1024
92,92,828,828,black,no,experiment,Mozilla,Netscape,5.0 (Macintosh),legacy,legacy,legacy,0,uniform,1,1,left,35,35,35,35,0,0,0,35,35,0,0,0,35,35,35,0,0,35,35,0,30-08-21,30-08-21,09:17:22,Thu Sep 30 2021 09:17:22 GMT+0200 (Central European Summer Time),The main experiment item,yes,0,0,/Users/ethan/Documents/GitHub/OpenSesame/Sternberg/experiment_files,0,0,0,no,mono,no,18,no,white,no,no,768,106,3.6.1,legacy,legacy,4 2 6 9,osweb,1.4.0,1,0,n,37,,0,left,,,space,right,right,left,743,,,11595,15051,11683,743,2,legacy,875,1440,24,900,24,0,32,1440,1632986335674,4,1024,2,48000,-16,experiment,0,even,MacIntel,7,253548,,,250314,38,251330,136281,38,11650,101579,255557,252332,256312,38,255557,Sternberg_updated,33,29805,36,yes,1024
92,92,821,821,black,no,experiment,Mozilla,Netscape,5.0 (Macintosh),legacy,legacy,legacy,0,uniform,1,1,right,36,36,36,36,0,0,0,36,36,0,0,0,36,36,36,0,0,36,36,0,30-08-21,30-08-21,09:17:22,Thu Sep 30 2021 09:17:22 GMT+0200 (Central European Summer Time),The main experiment item,yes,0,0,/Users/ethan/Documents/GitHub/OpenSesame/Sternberg/experiment_files,0,0,0,no,mono,no,18,no,white,no,no,768,106,3.6.1,legacy,legacy,3 2 1 4 7,osweb,1.4.0,1,2,y,37,,0,right,,,space,right,right,right,578,,,11595,15051,11683,578,2,legacy,875,1440,24,900,24,0,32,1440,1632986335674,5,1024,2,48000,-16,experiment,0,even,MacIntel,2,259546,,,256312,38,257325,136281,38,11650,101579,261554,258343,262137,38,261554,Sternberg_updated,34,30383,37,yes,1024
92,92,815,815,black,no,experiment,Mozilla,Netscape,5.0 (Macintosh),legacy,legacy,legacy,0,uniform,1,1,right,37,37,37,37,0,0,0,37,37,0,0,0,37,37,37,0,0,37,37,0,30-08-21,30-08-21,09:17:22,Thu Sep 30 2021 09:17:22 GMT+0200 (Central European Summer Time),The main experiment item,yes,0,0,/Users/ethan/Documents/GitHub/OpenSesame/Sternberg/experiment_files,0,0,0,no,mono,no,18,no,white,no,no,768,106,3.6.1,legacy,legacy,6 7 9 3 1 2,osweb,1.4.0,1,1,y,37,,0,right,,,space,right,right,right,578,,,11595,15051,11683,578,2,legacy,875,1440,24,900,24,0,32,1440,1632986335674,6,1024,2,48000,-16,experiment,0,even,MacIntel,6,265363,,,262138,38,263154,136281,38,11650,101579,267372,264156,267959,38,267372,Sternberg_updated,35,30961,38,yes,1024
92,92,817,817,black,no,experiment,Mozilla,Netscape,5.0 (Macintosh),legacy,legacy,legacy,0,uniform,1,1,right,38,38,38,38,0,0,0,38,38,0,0,0,38,38,38,0,0,38,38,0,30-08-21,30-08-21,09:17:22,Thu Sep 30 2021 09:17:22 GMT+0200 (Central European Summer Time),The main experiment item,yes,0,0,/Users/ethan/Documents/GitHub/OpenSesame/Sternberg/experiment_files,0,0,0,no,mono,no,18,no,white,no,no,768,106,3.6.1,legacy,legacy,4 9 7 8 5 3,osweb,1.4.0,1,4,y,37,,0,right,,,space,right,right,right,899,,,11595,15051,11683,899,2,legacy,875,1440,24,900,24,0,32,1440,1632986335674,6,1024,2,48000,-16,experiment,0,even,MacIntel,8,271198,,,267960,38,268977,136281,38,11650,101579,273210,269994,274113,38,273210,Sternberg_updated,36,31860,39,yes,1024
93,93,816,816,black,no,experiment,Mozilla,Netscape,5.0 (Macintosh),legacy,legacy,legacy,0,uniform,1,1,right,39,39,39,39,0,0,0,39,39,0,0,0,39,39,39,0,0,39,39,0,30-08-21,30-08-21,09:17:22,Thu Sep 30 2021 09:17:22 GMT+0200 (Central European Summer Time),The main experiment item,yes,0,0,/Users/ethan/Documents/GitHub/OpenSesame/Sternberg/experiment_files,0,0,0,no,mono,no,18,no,white,no,no,768,106,3.6.1,legacy,legacy,4 3 2 5 8,osweb,1.4.0,1,2,y,37,,0,right,,,space,right,right,right,764,,,11595,15051,11683,764,2,legacy,875,1440,24,900,24,0,32,1440,1632986335674,5,1024,2,48000,-16,experiment,0,even,MacIntel,3,277347,,,274114,38,275131,136281,38,11650,101579,279364,276132,280133,38,279364,Sternberg_updated,37,32624,40,yes,1024
93,93,811,811,black,no,experiment,Mozilla,Netscape,5.0 (Macintosh),legacy,legacy,legacy,0,uniform,1,1,right,40,40,40,40,0,0,0,40,40,0,0,0,40,40,40,0,0,40,40,0,30-08-21,30-08-21,09:17:22,Thu Sep 30 2021 09:17:22 GMT+0200 (Central European Summer Time),The main experiment item,yes,0,0,/Users/ethan/Documents/GitHub/OpenSesame/Sternberg/experiment_files,0,0,0,no,mono,no,18,no,white,no,no,768,106,3.6.1,legacy,legacy,9 1 6 7 8,osweb,1.4.0,1,1,y,37,,0,right,,,space,right,right,right,640,,,11595,15051,11683,640,2,legacy,875,1440,24,900,24,0,32,1440,1632986335674,5,1024,2,48000,-16,experiment,0,even,MacIntel,9,283367,,,280133,38,281147,136281,38,11650,101579,285375,282163,286025,38,285375,Sternberg_updated,38,33264,41,yes,1024
93,93,811,811,black,no,experiment,Mozilla,Netscape,5.0 (Macintosh),legacy,legacy,legacy,0,uniform,1,1,left,41,41,41,41,0,0,0,41,41,0,0,0,41,41,41,0,0,41,41,0,30-08-21,30-08-21,09:17:22,Thu Sep 30 2021 09:17:22 GMT+0200 (Central European Summer Time),The main experiment item,yes,0,0,/Users/ethan/Documents/GitHub/OpenSesame/Sternberg/experiment_files,0,0,0,no,mono,no,18,no,white,no,no,768,106,3.6.1,legacy,legacy,7 1,osweb,1.4.0,1,0,n,37,,0,left,,,space,right,right,left,804,,,11595,15051,11683,804,2,legacy,875,1440,24,900,24,0,32,1440,1632986335674,2,1024,2,48000,-16,experiment,0,even,MacIntel,8,289251,,,286026,38,287041,136281,38,11650,101579,291260,288043,292080,38,291260,Sternberg_updated,39,34068,42,yes,1024
93,93,811,811,black,no,experiment,Mozilla,Netscape,5.0 (Macintosh),legacy,legacy,legacy,0,uniform,1,1,left,42,42,42,42,0,0,0,42,42,0,0,0,42,42,42,0,0,42,42,0,30-08-21,30-08-21,09:17:22,Thu Sep 30 2021 09:17:22 GMT+0200 (Central European Summer Time),The main experiment item,yes,0,0,/Users/ethan/Documents/GitHub/OpenSesame/Sternberg/experiment_files,0,0,0,no,mono,no,18,no,white,no,no,768,106,3.6.1,legacy,legacy,7 4 2 8 1 9,osweb,1.4.0,1,0,n,37,,0,left,,,space,right,right,left,786,,,11595,15051,11683,786,2,legacy,875,1440,24,900,24,0,32,1440,1632986335674,6,1024,2,48000,-16,experiment,0,even,MacIntel,5,295313,,,292081,38,293100,136281,38,11650,101579,297326,294110,298112,38,297326,Sternberg_updated,40,34854,43,yes,1024
93,93,812,812,black,no,experiment,Mozilla,Netscape,5.0 (Macintosh),legacy,legacy,legacy,0,uniform,1,1,right,43,43,43,43,0,0,0,43,43,0,0,0,43,43,43,0,0,43,43,0,30-08-21,30-08-21,09:17:22,Thu Sep 30 2021 09:17:22 GMT+0200 (Central European Summer Time),The main experiment item,yes,0,0,/Users/ethan/Documents/GitHub/OpenSesame/Sternberg/experiment_files,0,0,0,no,mono,no,18,no,white,no,no,768,106,3.6.1,legacy,legacy,2 4 6 9,osweb,1.4.0,1,3,y,37,,0,right,,,space,right,right,right,869,,,11595,15051,11683,869,2,legacy,875,1440,24,900,24,0,32,1440,1632986335674,4,1024,2,48000,-16,experiment,0,even,MacIntel,6,301361,,,298113,38,299132,136281,38,11650,101579,303372,300144,304256,38,303372,Sternberg_updated,41,35723,44,yes,1024
93,93,815,815,black,no,experiment,Mozilla,Netscape,5.0 (Macintosh),legacy,legacy,legacy,0,uniform,1,1,left,44,44,44,44,0,0,0,44,44,0,0,0,44,44,44,0,0,44,44,0,30-08-21,30-08-21,09:17:22,Thu Sep 30 2021 09:17:22 GMT+0200 (Central European Summer Time),The main experiment item,yes,0,0,/Users/ethan/Documents/GitHub/OpenSesame/Sternberg/experiment_files,0,0,0,no,mono,no,18,no,white,no,no,768,106,3.6.1,legacy,legacy,1 5 3 2 8,osweb,1.4.0,1,0,n,37,,0,left,,,space,right,right,left,954,,,11595,15051,11683,954,2,legacy,875,1440,24,900,24,0,32,1440,1632986335674,5,1024,2,48000,-16,experiment,0,even,MacIntel,4,307479,,,304257,38,305270,136281,38,11650,101579,309487,306272,310457,38,309487,Sternberg_updated,42,36677,45,yes,1024
93,93,810,810,black,no,experiment,Mozilla,Netscape,5.0 (Macintosh),legacy,legacy,legacy,0,uniform,1,1,right,45,45,45,45,0,0,0,45,45,0,0,0,45,45,45,0,0,45,45,0,30-08-21,30-08-21,09:17:22,Thu Sep 30 2021 09:17:22 GMT+0200 (Central European Summer Time),The main experiment item,yes,0,0,/Users/ethan/Documents/GitHub/OpenSesame/Sternberg/experiment_files,0,0,0,no,mono,no,18,no,white,no,no,768,106,3.6.1,legacy,legacy,7 6,osweb,1.4.0,1,2,y,37,,0,right,,,space,right,right,right,574,,,11595,15051,11683,574,2,legacy,875,1440,24,900,24,0,32,1440,1632986335674,2,1024,2,48000,-16,experiment,0,even,MacIntel,6,313680,,,310459,38,311470,136281,38,11650,101579,315697,312472,316287,38,315697,Sternberg_updated,43,37251,46,yes,1024
94,94,805,805,black,no,experiment,Mozilla,Netscape,5.0 (Macintosh),legacy,legacy,legacy,0,uniform,1,1,right,46,46,46,46,0,0,0,46,46,0,0,0,46,46,46,0,0,46,46,0,30-08-21,30-08-21,09:17:22,Thu Sep 30 2021 09:17:22 GMT+0200 (Central European Summer Time),The main experiment item,yes,0,0,/Users/ethan/Documents/GitHub/OpenSesame/Sternberg/experiment_files,0,0,0,no,mono,no,18,no,white,no,no,768,106,3.6.1,legacy,legacy,8 9 6 1,osweb,1.4.0,1,2,y,37,,0,right,,,space,right,right,right,590,,,11595,15051,11683,590,2,legacy,875,1440,24,900,24,0,32,1440,1632986335674,4,1024,2,48000,-16,experiment,0,even,MacIntel,9,319511,,,316289,38,317301,136281,38,11650,101579,321514,318303,322118,38,321514,Sternberg_updated,44,37841,47,yes,1024
94,94,801,801,black,no,experiment,Mozilla,Netscape,5.0 (Macintosh),legacy,legacy,legacy,0,uniform,1,1,right,47,47,47,47,0,0,0,47,47,0,0,0,47,47,47,0,0,47,47,0,30-08-21,30-08-21,09:17:22,Thu Sep 30 2021 09:17:22 GMT+0200 (Central European Summer Time),The main experiment item,yes,0,0,/Users/ethan/Documents/GitHub/OpenSesame/Sternberg/experiment_files,0,0,0,no,mono,no,18,no,white,no,no,768,106,3.6.1,legacy,legacy,8 7 3,osweb,1.4.0,1,1,y,37,,0,right,,,space,right,right,right,613,,,11595,15051,11683,613,2,legacy,875,1440,24,900,24,0,32,1440,1632986335674,3,1024,2,48000,-16,experiment,0,even,MacIntel,8,325350,,,322118,38,323136,136281,38,11650,101579,327364,324148,327980,38,327364,Sternberg_updated,45,38454,48,yes,1024
94,94,801,801,black,no,experiment,Mozilla,Netscape,5.0 (Macintosh),legacy,legacy,legacy,0,uniform,1,1,left,48,48,48,48,0,0,0,48,48,0,0,0,48,48,48,0,0,48,48,0,30-08-21,30-08-21,09:17:22,Thu Sep 30 2021 09:17:22 GMT+0200 (Central European Summer Time),The main experiment item,yes,0,0,/Users/ethan/Documents/GitHub/OpenSesame/Sternberg/experiment_files,0,0,0,no,mono,no,18,no,white,no,no,768,106,3.6.1,legacy,legacy,2 6 4 3 9,osweb,1.4.0,1,0,n,37,,0,left,,,space,right,right,left,811,,,11595,15051,11683,811,2,legacy,875,1440,24,900,24,0,32,1440,1632986335674,5,1024,2,48000,-16,experiment,0,even,MacIntel,1,331203,,,327981,38,328994,136281,38,11650,101579,333211,329996,334031,38,333211,Sternberg_updated,46,39265,49,yes,1024
94,94,800,800,black,no,experiment,Mozilla,Netscape,5.0 (Macintosh),legacy,legacy,legacy,0,uniform,1,1,left,49,49,49,49,0,0,0,49,49,0,0,0,49,49,49,0,0,49,49,0,30-08-21,30-08-21,09:17:22,Thu Sep 30 2021 09:17:22 GMT+0200 (Central European Summer Time),The main experiment item,yes,0,0,/Users/ethan/Documents/GitHub/OpenSesame/Sternberg/experiment_files,0,0,0,no,mono,no,18,no,white,no,no,768,106,3.6.1,legacy,legacy,8 5 4 2 9 6,osweb,1.4.0,1,0,n,37,,0,left,,,space,right,right,left,711,,,11595,15051,11683,711,2,legacy,875,1440,24,900,24,0,32,1440,1632986335674,6,1024,2,48000,-16,experiment,0,even,MacIntel,3,337272,,,334032,38,335058,136281,38,11650,101579,339278,336062,340006,38,339278,Sternberg_updated,47,39976,50,yes,1024
94,94,798,798,black,no,experiment,Mozilla,Netscape,5.0 (Macintosh),legacy,legacy,legacy,0,uniform,1,1,right,50,50,50,50,0,0,0,50,50,0,0,0,50,50,50,0,0,50,50,0,30-08-21,30-08-21,09:17:22,Thu Sep 30 2021 09:17:22 GMT+0200 (Central European Summer Time),The main experiment item,yes,0,0,/Users/ethan/Documents/GitHub/OpenSesame/Sternberg/experiment_files,0,0,0,no,mono,no,18,no,white,no,no,768,106,3.6.1,legacy,legacy,7 8 4 6 9 5,osweb,1.4.0,1,4,y,37,,0,right,,,space,right,right,right,719,,,11595,15051,11683,719,2,legacy,875,1440,24,900,24,0,32,1440,1632986335674,6,1024,2,48000,-16,experiment,0,even,MacIntel,6,343242,,,340006,38,341017,136281,38,11650,101579,345245,342034,345981,38,345245,Sternberg_updated,48,40695,51,yes,1024
94,94,793,793,black,no,experiment,Mozilla,Netscape,5.0 (Macintosh),legacy,legacy,legacy,0,uniform,1,1,right,51,51,51,51,0,0,0,51,51,0,0,0,51,51,51,0,0,51,51,0,30-08-21,30-08-21,09:17:22,Thu Sep 30 2021 09:17:22 GMT+0200 (Central European Summer Time),The main experiment item,yes,0,0,/Users/ethan/Documents/GitHub/OpenSesame/Sternberg/experiment_files,0,0,0,no,mono,no,18,no,white,no,no,768,106,3.6.1,legacy,legacy,6 5,osweb,1.4.0,1,2,y,37,,0,right,,,space,right,right,right,566,,,11595,15051,11683,566,2,legacy,875,1440,24,900,24,0,32,1440,1632986335674,2,1024,2,48000,-16,experiment,0,even,MacIntel,5,349219,,,345982,38,347000,136281,38,11650,101579,351231,348015,351801,38,351231,Sternberg_updated,49,41261,52,yes,1024
94,94,791,791,black,no,experiment,Mozilla,Netscape,5.0 (Macintosh),legacy,legacy,legacy,0,uniform,1,1,right,52,52,52,52,0,0,0,52,52,0,0,0,52,52,52,0,0,52,52,0,30-08-21,30-08-21,09:17:22,Thu Sep 30 2021 09:17:22 GMT+0200 (Central European Summer Time),The main experiment item,yes,0,0,/Users/ethan/Documents/GitHub/OpenSesame/Sternberg/experiment_files,0,0,0,no,mono,no,18,no,white,no,no,768,106,3.6.1,legacy,legacy,9 6 2 4 1,osweb,1.4.0,1,4,y,37,,0,right,,,space,right,right,right,649,,,11595,15051,11683,649,2,legacy,875,1440,24,900,24,0,32,1440,1632986335674,5,1024,2,48000,-16,experiment,0,even,MacIntel,4,355023,,,351802,38,352814,136281,38,11650,101579,357030,353816,357684,38,357030,Sternberg_updated,50,41910,53,yes,1024
94,94,790,790,black,no,experiment,Mozilla,Netscape,5.0 (Macintosh),legacy,legacy,legacy,0,uniform,1,1,right,53,53,53,53,0,0,0,53,53,0,0,0,53,53,53,0,0,53,53,0,30-08-21,30-08-21,09:17:22,Thu Sep 30 2021 09:17:22 GMT+0200 (Central European Summer Time),The main experiment item,yes,0,0,/Users/ethan/Documents/GitHub/OpenSesame/Sternberg/experiment_files,0,0,0,no,mono,no,18,no,white,no,no,768,106,3.6.1,legacy,legacy,8 5 1 3 9,osweb,1.4.0,1,4,y,37,,0,right,,,space,right,right,right,742,,,11595,15051,11683,742,2,legacy,875,1440,24,900,24,0,32,1440,1632986335674,5,1024,2,48000,-16,experiment,0,even,MacIntel,3,360933,,,357684,38,358710,136281,38,11650,101579,362936,359725,363694,38,362936,Sternberg_updated,51,42652,54,yes,1024
95,95,785,785,black,no,experiment,Mozilla,Netscape,5.0 (Macintosh),legacy,legacy,legacy,0,uniform,1,1,right,54,54,54,54,0,0,0,54,54,0,0,0,54,54,54,0,0,54,54,0,30-08-21,30-08-21,09:17:22,Thu Sep 30 2021 09:17:22 GMT+0200 (Central European Summer Time),The main experiment item,yes,0,0,/Users/ethan/Documents/GitHub/OpenSesame/Sternberg/experiment_files,0,0,0,no,mono,no,18,no,white,no,no,768,106,3.6.1,legacy,legacy,9 3 1 2 5,osweb,1.4.0,1,4,y,37,,0,right,,,space,right,right,right,524,,,11595,15051,11683,524,2,legacy,875,1440,24,900,24,0,32,1440,1632986335674,5,1024,2,48000,-16,experiment,0,even,MacIntel,2,366925,,,363695,38,364709,136281,38,11650,101579,368931,365720,369467,38,368931,Sternberg_updated,52,43176,55,yes,1024
95,95,782,782,black,no,experiment,Mozilla,Netscape,5.0 (Macintosh),legacy,legacy,legacy,0,uniform,1,1,left,55,55,55,55,0,0,0,55,55,0,0,0,55,55,55,0,0,55,55,0,30-08-21,30-08-21,09:17:22,Thu Sep 30 2021 09:17:22 GMT+0200 (Central European Summer Time),The main experiment item,yes,0,0,/Users/ethan/Documents/GitHub/OpenSesame/Sternberg/experiment_files,0,0,0,no,mono,no,18,no,white,no,no,768,106,3.6.1,legacy,legacy,1 6 4,osweb,1.4.0,1,0,n,37,,0,left,right,,space,right,right,left,619,102366,,11595,15051,11683,619,2,legacy,875,1440,24,900,24,0,32,1440,1632986335674,3,1024,2,48000,-16,experiment,0,even,MacIntel,7,475088,370476,,369468,38,472868,136281,38,11650,101579,477100,473884,477719,38,477100,Sternberg_updated,53,43795,56,yes,1024
95,95,780,780,black,no,experiment,Mozilla,Netscape,5.0 (Macintosh),legacy,legacy,legacy,0,uniform,1,1,left,56,56,56,56,0,0,0,56,56,0,0,0,56,56,56,0,0,56,56,0,30-08-21,30-08-21,09:17:22,Thu Sep 30 2021 09:17:22 GMT+0200 (Central European Summer Time),The main experiment item,yes,0,0,/Users/ethan/Documents/GitHub/OpenSesame/Sternberg/experiment_files,0,0,0,no,mono,no,18,no,white,no,no,768,106,3.6.1,legacy,legacy,1 4 3 6 5,osweb,1.4.0,1,0,n,37,,0,left,right,,space,right,right,left,638,102366,,11595,15051,11683,638,2,legacy,875,1440,24,900,24,0,32,1440,1632986335674,5,1024,2,48000,-16,experiment,0,even,MacIntel,8,480957,370476,,477720,38,478733,136281,38,11650,101579,482965,479751,483607,38,482965,Sternberg_updated,54,44433,57,yes,1024
95,95,775,775,black,no,experiment,Mozilla,Netscape,5.0 (Macintosh),legacy,legacy,legacy,0,uniform,1,1,left,57,57,57,57,0,0,0,57,57,0,0,0,57,57,57,0,0,57,57,0,30-08-21,30-08-21,09:17:22,Thu Sep 30 2021 09:17:22 GMT+0200 (Central European Summer Time),The main experiment item,yes,0,0,/Users/ethan/Documents/GitHub/OpenSesame/Sternberg/experiment_files,0,0,0,no,mono,no,18,no,white,no,no,768,106,3.6.1,legacy,legacy,7 1 5 6 3,osweb,1.4.0,1,0,n,37,,0,left,right,,space,right,right,left,510,102366,,11595,15051,11683,510,2,legacy,875,1440,24,900,24,0,32,1440,1632986335674,5,1024,2,48000,-16,experiment,0,even,MacIntel,8,486861,370476,,483608,38,484633,136281,38,11650,101579,488879,485650,489402,38,488878,Sternberg_updated,55,44943,58,yes,1024
95,95,777,777,black,no,experiment,Mozilla,Netscape,5.0 (Macintosh),legacy,legacy,legacy,0,uniform,1,1,left,58,58,58,58,0,0,0,58,58,0,0,0,58,58,58,0,0,58,58,0,30-08-21,30-08-21,09:17:22,Thu Sep 30 2021 09:17:22 GMT+0200 (Central European Summer Time),The main experiment item,yes,0,0,/Users/ethan/Documents/GitHub/OpenSesame/Sternberg/experiment_files,0,0,0,no,mono,no,18,no,white,no,no,768,106,3.6.1,legacy,legacy,6 2 9 3 8 4,osweb,1.4.0,1,0,n,37,,0,left,right,,space,right,right,left,905,102366,,11595,15051,11683,905,2,legacy,875,1440,24,900,24,0,32,1440,1632986335674,6,1024,2,48000,-16,experiment,0,even,MacIntel,1,492631,370476,,489402,38,490418,136281,38,11650,101579,494639,491429,495559,38,494639,Sternberg_updated,56,45848,59,yes,1024
95,95,777,777,black,no,experiment,Mozilla,Netscape,5.0 (Macintosh),legacy,legacy,legacy,0,uniform,1,1,right,59,59,59,59,0,0,0,59,59,0,0,0,59,59,59,0,0,59,59,0,30-08-21,30-08-21,09:17:22,Thu Sep 30 2021 09:17:22 GMT+0200 (Central European Summer Time),The main experiment item,yes,0,0,/Users/ethan/Documents/GitHub/OpenSesame/Sternberg/experiment_files,0,0,0,no,mono,no,18,no,white,no,no,768,106,3.6.1,legacy,legacy,3 5 9 6 2 4,osweb,1.4.0,1,1,y,37,,0,right,right,,space,right,right,right,793,102366,,11595,15051,11683,793,2,legacy,875,1440,24,900,24,0,32,1440,1632986335674,6,1024,2,48000,-16,experiment,0,even,MacIntel,3,498797,370476,,495560,38,496577,136281,38,11650,101579,500809,497594,501612,38,500809,Sternberg_updated,57,46641,60,yes,1024
95,95,774,774,black,no,experiment,Mozilla,Netscape,5.0 (Macintosh),legacy,legacy,legacy,0,uniform,1,1,left,60,60,60,60,0,0,0,60,60,0,0,0,60,60,60,0,0,60,60,0,30-08-21,30-08-21,09:17:22,Thu Sep 30 2021 09:17:22 GMT+0200 (Central European Summer Time),The main experiment item,yes,0,0,/Users/ethan/Documents/GitHub/OpenSesame/Sternberg/experiment_files,0,0,0,no,mono,no,18,no,white,no,no,768,106,3.6.1,legacy,legacy,9 5 3 2 8 6,osweb,1.4.0,1,0,n,37,,0,left,right,,space,right,right,left,602,102366,,11595,15051,11683,602,2,legacy,875,1440,24,900,24,0,32,1440,1632986335674,6,1024,2,48000,-16,experiment,0,even,MacIntel,7,504852,370476,,501613,38,502627,136281,38,11650,101579,506859,503644,507466,38,506859,Sternberg_updated,58,47243,61,yes,1024
95,95,774,774,black,no,experiment,Mozilla,Netscape,5.0 (Macintosh),legacy,legacy,legacy,0,uniform,1,1,right,61,61,61,61,0,0,0,61,61,0,0,0,61,61,61,0,0,61,61,0,30-08-21,30-08-21,09:17:22,Thu Sep 30 2021 09:17:22 GMT+0200 (Central European Summer Time),The main experiment item,yes,0,0,/Users/ethan/Documents/GitHub/OpenSesame/Sternberg/experiment_files,0,0,0,no,mono,no,18,no,white,no,no,768,106,3.6.1,legacy,legacy,8 9 5 6 7,osweb,1.4.0,1,1,y,37,,0,right,right,,space,right,right,right,741,102366,,11595,15051,11683,741,2,legacy,875,1440,24,900,24,0,32,1440,1632986335674,5,1024,2,48000,-16,experiment,0,even,MacIntel,8,510719,370476,,507466,38,508493,136281,38,11650,101579,512735,509509,513493,38,512735,Sternberg_updated,59,47984,62,yes,1024
95,95,773,773,black,no,experiment,Mozilla,Netscape,5.0 (Macintosh),legacy,legacy,legacy,0,uniform,1,1,right,62,62,62,62,0,0,0,62,62,0,0,0,62,62,62,0,0,62,62,0,30-08-21,30-08-21,09:17:22,Thu Sep 30 2021 09:17:22 GMT+0200 (Central European Summer Time),The main experiment item,yes,0,0,/Users/ethan/Documents/GitHub/OpenSesame/Sternberg/experiment_files,0,0,0,no,mono,no,18,no,white,no,no,768,106,3.6.1,legacy,legacy,8 9 5 7 1 6,osweb,1.4.0,1,4,y,37,,0,right,right,,space,right,right,right,727,102366,,11595,15051,11683,727,2,legacy,875,1440,24,900,24,0,32,1440,1632986335674,6,1024,2,48000,-16,experiment,0,even,MacIntel,7,516731,370476,,513494,38,514509,136281,38,11650,101579,518740,515525,519479,38,518740,Sternberg_updated,60,48711,63,yes,1024
95,95,773,773,black,no,experiment,Mozilla,Netscape,5.0 (Macintosh),legacy,legacy,legacy,0,uniform,1,1,right,63,63,63,63,0,0,0,63,63,0,0,0,63,63,63,0,0,63,63,0,30-08-21,30-08-21,09:17:22,Thu Sep 30 2021 09:17:22 GMT+0200 (Central European Summer Time),The main experiment item,yes,0,0,/Users/ethan/Documents/GitHub/OpenSesame/Sternberg/experiment_files,0,0,0,no,mono,no,18,no,white,no,no,768,106,3.6.1,legacy,legacy,3 5 4 7,osweb,1.4.0,1,1,y,37,,0,right,right,,space,right,right,right,739,102366,,11595,15051,11683,739,2,legacy,875,1440,24,900,24,0,32,1440,1632986335674,4,1024,2,48000,-16,experiment,0,even,MacIntel,3,522718,370476,,519481,38,520499,136281,38,11650,101579,524730,521513,525483,38,524730,Sternberg_updated,61,49450,64,yes,1024
95,95,773,773,black,no,experiment,Mozilla,Netscape,5.0 (Macintosh),legacy,legacy,legacy,0,uniform,1,1,right,64,64,64,64,0,0,0,64,64,0,0,0,64,64,64,0,0,64,64,0,30-08-21,30-08-21,09:17:22,Thu Sep 30 2021 09:17:22 GMT+0200 (Central European Summer Time),The main experiment item,yes,0,0,/Users/ethan/Documents/GitHub/OpenSesame/Sternberg/experiment_files,0,0,0,no,mono,no,18,no,white,no,no,768,106,3.6.1,legacy,legacy,5 2 9 6 1 7,osweb,1.4.0,1,3,y,37,,0,right,right,,space,right,right,right,810,102366,,11595,15051,11683,810,2,legacy,875,1440,24,900,24,0,32,1440,1632986335674,6,1024,2,48000,-16,experiment,0,even,MacIntel,9,528703,370476,,525483,38,526498,136281,38,11650,101579,530711,527499,531534,38,530711,Sternberg_updated,62,50260,65,yes,1024
95,95,771,771,black,no,experiment,Mozilla,Netscape,5.0 (Macintosh),legacy,legacy,legacy,0,uniform,1,1,left,65,65,65,65,0,0,0,65,65,0,0,0,65,65,65,0,0,65,65,0,30-08-21,30-08-21,09:17:22,Thu Sep 30 2021 09:17:22 GMT+0200 (Central European Summer Time),The main experiment item,yes,0,0,/Users/ethan/Documents/GitHub/OpenSesame/Sternberg/experiment_files,0,0,0,no,mono,no,18,no,white,no,no,768,106,3.6.1,legacy,legacy,9 7 4 5 8,osweb,1.4.0,1,0,n,37,,0,left,right,,space,right,right,left,631,102366,,11595,15051,11683,631,2,legacy,875,1440,24,900,24,0,32,1440,1632986335674,5,1024,2,48000,-16,experiment,0,even,MacIntel,6,534757,370476,,531535,38,532551,136281,38,11650,101579,536774,533554,537412,38,536774,Sternberg_updated,63,50891,66,yes,1024
96,96,775,775,black,no,experiment,Mozilla,Netscape,5.0 (Macintosh),legacy,legacy,legacy,0,uniform,1,1,left,66,66,66,66,0,0,0,66,66,0,0,0,66,66,66,0,0,66,66,0,30-08-21,30-08-21,09:17:22,Thu Sep 30 2021 09:17:22 GMT+0200 (Central European Summer Time),The main experiment item,yes,0,0,/Users/ethan/Documents/GitHub/OpenSesame/Sternberg/experiment_files,0,0,0,no,mono,no,18,no,white,no,no,768,106,3.6.1,legacy,legacy,6 9 5,osweb,1.4.0,1,0,n,37,,0,left,right,,space,right,right,left,1006,102366,,11595,15051,11683,1006,2,legacy,875,1440,24,900,24,0,32,1440,1632986335674,3,1024,2,48000,-16,experiment,0,even,MacIntel,8,540653,370476,,537413,38,538429,136281,38,11650,101579,542657,539445,543676,38,542657,Sternberg_updated,64,51897,67,yes,1024
96,96,770,770,black,no,experiment,Mozilla,Netscape,5.0 (Macintosh),legacy,legacy,legacy,0,uniform,1,1,right,67,67,67,67,0,0,0,67,67,0,0,0,67,67,67,0,0,67,67,0,30-08-21,30-08-21,09:17:22,Thu Sep 30 2021 09:17:22 GMT+0200 (Central European Summer Time),The main experiment item,yes,0,0,/Users/ethan/Documents/GitHub/OpenSesame/Sternberg/experiment_files,0,0,0,no,mono,no,18,no,white,no,no,768,106,3.6.1,legacy,legacy,3 4,osweb,1.4.0,1,1,y,37,,0,right,right,,space,right,right,right,496,102366,,11595,15051,11683,496,2,legacy,875,1440,24,900,24,0,32,1440,1632986335674,2,1024,2,48000,-16,experiment,0,even,MacIntel,3,546907,370476,,543676,38,544693,136281,38,11650,101579,548921,545705,549424,38,548921,Sternberg_updated,65,52393,68,yes,1024
96,96,767,767,black,no,experiment,Mozilla,Netscape,5.0 (Macintosh),legacy,legacy,legacy,0,uniform,1,1,right,68,68,68,68,0,0,0,68,68,0,0,0,68,68,68,0,0,68,68,0,30-08-21,30-08-21,09:17:22,Thu Sep 30 2021 09:17:22 GMT+0200 (Central European Summer Time),The main experiment item,yes,0,0,/Users/ethan/Documents/GitHub/OpenSesame/Sternberg/experiment_files,0,0,0,no,mono,no,18,no,white,no,no,768,106,3.6.1,legacy,legacy,6 9 3 1,osweb,1.4.0,1,4,y,37,,0,right,right,,space,right,right,right,559,102366,,11595,15051,11683,559,2,legacy,875,1440,24,900,24,0,32,1440,1632986335674,4,1024,2,48000,-16,experiment,0,even,MacIntel,1,552671,370476,,549425,38,550440,136281,38,11650,101579,554679,551454,555254,38,554679,Sternberg_updated,66,52952,69,yes,1024
96,96,767,767,black,no,experiment,Mozilla,Netscape,5.0 (Macintosh),legacy,legacy,legacy,0,uniform,1,1,right,69,69,69,69,0,0,0,69,69,0,0,0,69,69,69,0,0,69,69,0,30-08-21,30-08-21,09:17:22,Thu Sep 30 2021 09:17:22 GMT+0200 (Central European Summer Time),The main experiment item,yes,0,0,/Users/ethan/Documents/GitHub/OpenSesame/Sternberg/experiment_files,0,0,0,no,mono,no,18,no,white,no,no,768,106,3.6.1,legacy,legacy,7 8 6 3 1,osweb,1.4.0,1,5,y,37,,0,right,right,,space,right,right,right,722,102366,,11595,15051,11683,722,2,legacy,875,1440,24,900,24,0,32,1440,1632986335674,5,1024,2,48000,-16,experiment,0,even,MacIntel,1,558489,370476,,555255,38,556266,136281,38,11650,101579,560506,557282,561229,38,560506,Sternberg_updated,67,53674,70,yes,1024
96,96,766,766,black,no,experiment,Mozilla,Netscape,5.0 (Macintosh),legacy,legacy,legacy,0,uniform,1,1,right,70,70,70,70,0,0,0,70,70,0,0,0,70,70,70,0,0,70,70,0,30-08-21,30-08-21,09:17:22,Thu Sep 30 2021 09:17:22 GMT+0200 (Central European Summer Time),The main experiment item,yes,0,0,/Users/ethan/Documents/GitHub/OpenSesame/Sternberg/experiment_files,0,0,0,no,mono,no,18,no,white,no,no,768,106,3.6.1,legacy,legacy,9 8 4,osweb,1.4.0,1,1,y,37,,0,right,right,,space,right,right,right,700,102366,,11595,15051,11683,700,2,legacy,875,1440,24,900,24,0,32,1440,1632986335674,3,1024,2,48000,-16,experiment,0,even,MacIntel,9,564471,370476,,561230,38,562248,136281,38,11650,101579,566475,563264,567178,38,566475,Sternberg_updated,68,54374,71,yes,1024
96,96,765,765,black,no,experiment,Mozilla,Netscape,5.0 (Macintosh),legacy,legacy,legacy,0,uniform,1,1,right,71,71,71,71,0,0,0,71,71,0,0,0,71,71,71,0,0,71,71,0,30-08-21,30-08-21,09:17:22,Thu Sep 30 2021 09:17:22 GMT+0200 (Central European Summer Time),The main experiment item,yes,0,0,/Users/ethan/Documents/GitHub/OpenSesame/Sternberg/experiment_files,0,0,0,no,mono,no,18,no,white,no,no,768,106,3.6.1,legacy,legacy,9 5 8 1,osweb,1.4.0,1,2,y,37,,0,right,right,,space,right,right,right,729,102366,,11595,15051,11683,729,2,legacy,875,1440,24,900,24,0,32,1440,1632986335674,4,1024,2,48000,-16,experiment,0,even,MacIntel,5,570400,370476,,567179,38,568196,136281,38,11650,101579,572411,569198,573149,38,572411,Sternberg_updated,69,55103,72,yes,1024
96,96,765,765,black,no,experiment,Mozilla,Netscape,5.0 (Macintosh),legacy,legacy,legacy,0,uniform,1,1,right,72,72,72,72,0,0,0,72,72,0,0,0,72,72,72,0,0,72,72,0,30-08-21,30-08-21,09:17:22,Thu Sep 30 2021 09:17:22 GMT+0200 (Central European Summer Time),The main experiment item,yes,0,0,/Users/ethan/Documents/GitHub/OpenSesame/Sternberg/experiment_files,0,0,0,no,mono,no,18,no,white,no,no,768,106,3.6.1,legacy,legacy,2 3 7 4,osweb,1.4.0,1,1,y,37,,0,right,right,,space,right,right,right,719,102366,,11595,15051,11683,719,2,legacy,875,1440,24,900,24,0,32,1440,1632986335674,4,1024,2,48000,-16,experiment,0,even,MacIntel,2,576381,370476,,573150,38,574162,136281,38,11650,101579,578388,575178,579112,38,578388,Sternberg_updated,70,55822,73,yes,1024
96,96,764,764,black,no,experiment,Mozilla,Netscape,5.0 (Macintosh),legacy,legacy,legacy,0,uniform,1,1,right,73,73,73,73,0,0,0,73,73,0,0,0,73,73,73,0,0,73,73,0,30-08-21,30-08-21,09:17:22,Thu Sep 30 2021 09:17:22 GMT+0200 (Central European Summer Time),The main experiment item,yes,0,0,/Users/ethan/Documents/GitHub/OpenSesame/Sternberg/experiment_files,0,0,0,no,mono,no,18,no,white,no,no,768,106,3.6.1,legacy,legacy,6 9 7 4 5 1,osweb,1.4.0,1,2,y,37,,0,right,right,,space,right,right,right,736,102366,,11595,15051,11683,736,2,legacy,875,1440,24,900,24,0,32,1440,1632986335674,6,1024,2,48000,-16,experiment,0,even,MacIntel,9,582333,370476,,579113,38,580124,136281,38,11650,101579,584350,581130,585093,38,584350,Sternberg_updated,71,56558,74,yes,1024
96,96,766,766,black,no,experiment,Mozilla,Netscape,5.0 (Macintosh),legacy,legacy,legacy,0,uniform,1,1,left,74,74,74,74,0,0,0,74,74,0,0,0,74,74,74,0,0,74,74,0,30-08-21,30-08-21,09:17:22,Thu Sep 30 2021 09:17:22 GMT+0200 (Central European Summer Time),The main experiment item,yes,0,0,/Users/ethan/Documents/GitHub/OpenSesame/Sternberg/experiment_files,0,0,0,no,mono,no,18,no,white,no,no,768,106,3.6.1,legacy,legacy,8 4 3 5,osweb,1.4.0,1,0,n,37,,0,left,right,,space,right,right,left,905,102366,,11595,15051,11683,905,2,legacy,875,1440,24,900,24,0,32,1440,1632986335674,4,1024,2,48000,-16,experiment,0,even,MacIntel,6,588335,370476,,585093,38,586113,136281,38,11650,101579,590339,587128,591259,38,590339,Sternberg_updated,72,57463,75,yes,1024
96,96,764,764,black,no,experiment,Mozilla,Netscape,5.0 (Macintosh),legacy,legacy,legacy,0,uniform,1,1,right,75,75,75,75,0,0,0,75,75,0,0,0,75,75,75,0,0,75,75,0,30-08-21,30-08-21,09:17:22,Thu Sep 30 2021 09:17:22 GMT+0200 (Central European Summer Time),The main experiment item,yes,0,0,/Users/ethan/Documents/GitHub/OpenSesame/Sternberg/experiment_files,0,0,0,no,mono,no,18,no,white,no,no,768,106,3.6.1,legacy,legacy,9 5 3 8 4,osweb,1.4.0,1,1,y,37,,0,right,right,,space,right,right,right,607,102366,,11595,15051,11683,607,2,legacy,875,1440,24,900,24,0,32,1440,1632986335674,5,1024,2,48000,-16,experiment,0,even,MacIntel,9,594493,370476,,591259,38,592278,136281,38,11650,101579,596504,593290,597125,38,596504,Sternberg_updated,73,58070,76,yes,1024
96,96,763,763,black,no,experiment,Mozilla,Netscape,5.0 (Macintosh),legacy,legacy,legacy,0,uniform,1,1,left,76,76,76,76,0,0,0,76,76,0,0,0,76,76,76,0,0,76,76,0,30-08-21,30-08-21,09:17:22,Thu Sep 30 2021 09:17:22 GMT+0200 (Central European Summer Time),The main experiment item,yes,0,0,/Users/ethan/Documents/GitHub/OpenSesame/Sternberg/experiment_files,0,0,0,no,mono,no,18,no,white,no,no,768,106,3.6.1,legacy,legacy,7 9 1 6,osweb,1.4.0,1,0,n,37,,0,left,right,,space,right,right,left,652,102366,,11595,15051,11683,652,2,legacy,875,1440,24,900,24,0,32,1440,1632986335674,4,1024,2,48000,-16,experiment,0,even,MacIntel,4,600376,370476,,597126,38,598144,136281,38,11650,101579,602386,599159,603055,38,602386,Sternberg_updated,74,58722,77,yes,1024
96,96,762,762,black,no,experiment,Mozilla,Netscape,5.0 (Macintosh),legacy,legacy,legacy,0,uniform,1,1,left,77,77,77,77,0,0,0,77,77,0,0,0,77,77,77,0,0,77,77,0,30-08-21,30-08-21,09:17:22,Thu Sep 30 2021 09:17:22 GMT+0200 (Central European Summer Time),The main experiment item,yes,0,0,/Users/ethan/Documents/GitHub/OpenSesame/Sternberg/experiment_files,0,0,0,no,mono,no,18,no,white,no,no,768,106,3.6.1,legacy,legacy,1 3 2 6 9,osweb,1.4.0,1,0,n,37,,0,left,right,,space,right,right,left,675,102366,,11595,15051,11683,675,2,legacy,875,1440,24,900,24,0,32,1440,1632986335674,5,1024,2,48000,-16,experiment,0,even,MacIntel,5,606277,370476,,603056,38,604068,136281,38,11650,101579,608280,605074,608968,38,608280,Sternberg_updated,75,59397,78,yes,1024
96,96,759,759,black,no,experiment,Mozilla,Netscape,5.0 (Macintosh),legacy,legacy,legacy,0,uniform,1,1,right,78,78,78,78,0,0,0,78,78,0,0,0,78,78,78,0,0,78,78,0,30-08-21,30-08-21,09:17:22,Thu Sep 30 2021 09:17:22 GMT+0200 (Central European Summer Time),The main experiment item,yes,0,0,/Users/ethan/Documents/GitHub/OpenSesame/Sternberg/experiment_files,0,0,0,no,mono,no,18,no,white,no,no,768,106,3.6.1,legacy,legacy,7,osweb,1.4.0,1,1,y,37,,0,right,right,,space,right,right,right,541,102366,,11595,15051,11683,541,2,legacy,875,1440,24,900,24,0,32,1440,1632986335674,1,1024,2,48000,-16,experiment,0,even,MacIntel,7,612207,370476,,608969,38,609984,136281,38,11650,101579,614215,610999,614767,38,614215,Sternberg_updated,76,59938,79,yes,1024
96,96,760,760,black,no,experiment,Mozilla,Netscape,5.0 (Macintosh),legacy,legacy,legacy,0,uniform,1,1,left,79,79,79,79,0,0,0,79,79,0,0,0,79,79,79,0,0,79,79,0,30-08-21,30-08-21,09:17:22,Thu Sep 30 2021 09:17:22 GMT+0200 (Central European Summer Time),The main experiment item,yes,0,0,/Users/ethan/Documents/GitHub/OpenSesame/Sternberg/experiment_files,0,0,0,no,mono,no,18,no,white,no,no,768,106,3.6.1,legacy,legacy,5 2,osweb,1.4.0,1,0,n,37,,0,left,right,,space,right,right,left,897,102366,,11595,15051,11683,897,2,legacy,875,1440,24,900,24,0,32,1440,1632986335674,2,1024,2,48000,-16,experiment,0,even,MacIntel,7,618005,370476,,614768,38,615786,136281,38,11650,101579,620017,616802,620920,38,620017,Sternberg_updated,77,60835,80,yes,1024
96,96,760,760,black,no,experiment,Mozilla,Netscape,5.0 (Macintosh),legacy,legacy,legacy,0,uniform,1,1,left,80,80,80,80,0,0,0,80,80,0,0,0,80,80,80,0,0,80,80,0,30-08-21,30-08-21,09:17:22,Thu Sep 30 2021 09:17:22 GMT+0200 (Central European Summer Time),The main experiment item,yes,0,0,/Users/ethan/Documents/GitHub/OpenSesame/Sternberg/experiment_files,0,0,0,no,mono,no,18,no,white,no,no,768,106,3.6.1,legacy,legacy,8 2 1 4 5 9,osweb,1.4.0,1,0,n,37,,0,left,right,,space,right,right,left,694,102366,,11595,15051,11683,694,2,legacy,875,1440,24,900,24,0,32,1440,1632986335674,6,1024,2,48000,-16,experiment,0,even,MacIntel,7,624170,370476,,620921,38,621937,136281,38,11650,101579,626180,622954,626882,38,626180,Sternberg_updated,78,61529,81,yes,1024
96,96,756,756,black,no,experiment,Mozilla,Netscape,5.0 (Macintosh),legacy,legacy,legacy,0,uniform,1,1,right,81,81,81,81,0,0,0,81,81,0,0,0,81,81,81,0,0,81,81,0,30-08-21,30-08-21,09:17:22,Thu Sep 30 2021 09:17:22 GMT+0200 (Central European Summer Time),The main experiment item,yes,0,0,/Users/ethan/Documents/GitHub/OpenSesame/Sternberg/experiment_files,0,0,0,no,mono,no,18,no,white,no,no,768,106,3.6.1,legacy,legacy,2 6 1 7 4,osweb,1.4.0,1,2,y,37,,0,right,right,,space,right,right,right,428,102366,,11595,15051,11683,428,2,legacy,875,1440,24,900,24,0,32,1440,1632986335674,5,1024,2,48000,-16,experiment,0,even,MacIntel,6,630102,370476,,626884,38,627896,136281,38,11650,101579,632109,628898,632543,38,632109,Sternberg_updated,79,61957,82,yes,1024
96,96,754,754,black,no,experiment,Mozilla,Netscape,5.0 (Macintosh),legacy,legacy,legacy,0,uniform,1,1,left,82,82,82,82,0,0,0,82,82,0,0,0,82,82,82,0,0,82,82,0,30-08-21,30-08-21,09:17:22,Thu Sep 30 2021 09:17:22 GMT+0200 (Central European Summer Time),The main experiment item,yes,0,0,/Users/ethan/Documents/GitHub/OpenSesame/Sternberg/experiment_files,0,0,0,no,mono,no,18,no,white,no,no,768,106,3.6.1,legacy,legacy,9,osweb,1.4.0,1,0,n,37,,0,left,right,,space,right,right,left,591,102366,,11595,15051,11683,591,2,legacy,875,1440,24,900,24,0,32,1440,1632986335674,1,1024,2,48000,-16,experiment,0,even,MacIntel,6,635779,370476,,632544,38,633557,136281,38,11650,101579,637783,634572,638374,38,637783,Sternberg_updated,80,62548,83,yes,1024
96,96,757,757,black,no,experiment,Mozilla,Netscape,5.0 (Macintosh),legacy,legacy,legacy,0,uniform,1,1,left,83,83,83,83,0,0,0,83,83,0,0,0,83,83,83,0,0,83,83,0,30-08-21,30-08-21,09:17:22,Thu Sep 30 2021 09:17:22 GMT+0200 (Central European Summer Time),The main experiment item,yes,0,0,/Users/ethan/Documents/GitHub/OpenSesame/Sternberg/experiment_files,0,0,0,no,mono,no,18,no,white,no,no,768,106,3.6.1,legacy,legacy,3 4 2,osweb,1.4.0,1,0,n,37,,0,left,right,,space,right,right,left,1005,102366,,11595,15051,11683,1005,2,legacy,875,1440,24,900,24,0,32,1440,1632986335674,3,1024,2,48000,-16,experiment,0,even,MacIntel,5,641615,370476,,638376,38,639394,136281,38,11650,101579,643625,640413,644646,38,643625,Sternberg_updated,81,63553,84,yes,1024
96,96,755,755,black,no,experiment,Mozilla,Netscape,5.0 (Macintosh),legacy,legacy,legacy,0,uniform,1,1,right,84,84,84,84,0,0,0,84,84,0,0,0,84,84,84,0,0,84,84,0,30-08-21,30-08-21,09:17:22,Thu Sep 30 2021 09:17:22 GMT+0200 (Central European Summer Time),The main experiment item,yes,0,0,/Users/ethan/Documents/GitHub/OpenSesame/Sternberg/experiment_files,0,0,0,no,mono,no,18,no,white,no,no,768,106,3.6.1,legacy,legacy,4 1 8 7 5,osweb,1.4.0,1,3,y,37,,0,right,right,,space,right,right,right,623,102366,,11595,15051,11683,623,2,legacy,875,1440,24,900,24,0,32,1440,1632986335674,5,1024,2,48000,-16,experiment,0,even,MacIntel,8,647892,370476,,644647,38,645662,136281,38,11650,101579,649900,646676,650537,38,649900,Sternberg_updated,82,64176,85,yes,1024
95,95,753,753,black,no,experiment,Mozilla,Netscape,5.0 (Macintosh),legacy,legacy,legacy,0,uniform,0,0,right,85,85,85,85,0,0,0,85,85,0,0,0,85,85,85,0,0,85,85,0,30-08-21,30-08-21,09:17:22,Thu Sep 30 2021 09:17:22 GMT+0200 (Central European Summer Time),The main experiment item,yes,0,0,/Users/ethan/Documents/GitHub/OpenSesame/Sternberg/experiment_files,0,0,0,no,mono,no,18,no,white,no,no,768,106,3.6.1,legacy,legacy,2 4 8 5 1 3,osweb,1.4.0,1,1,y,37,,0,left,right,,space,right,right,left,592,102366,,11595,15051,11683,592,2,legacy,875,1440,24,900,24,0,32,1440,1632986335674,6,1024,2,48000,-16,experiment,0,even,MacIntel,2,653756,370476,,650537,38,651550,136281,38,11650,101579,655757,652554,656365,38,655757,Sternberg_updated,82,64768,86,yes,1024
95,95,754,754,black,no,experiment,Mozilla,Netscape,5.0 (Macintosh),legacy,legacy,legacy,0,uniform,1,1,left,86,86,86,86,0,0,0,86,86,0,0,0,86,86,86,0,0,86,86,0,30-08-21,30-08-21,09:17:22,Thu Sep 30 2021 09:17:22 GMT+0200 (Central European Summer Time),The main experiment item,yes,0,0,/Users/ethan/Documents/GitHub/OpenSesame/Sternberg/experiment_files,0,0,0,no,mono,no,18,no,white,no,no,768,106,3.6.1,legacy,legacy,2 8 9,osweb,1.4.0,1,0,n,37,,0,left,right,,space,right,right,left,790,102366,,11595,15051,11683,790,2,legacy,875,1440,24,900,24,0,32,1440,1632986335674,3,1024,2,48000,-16,experiment,0,even,MacIntel,6,659606,370476,,650537,38,657383,656366,38,11650,101579,661611,658400,662414,38,661611,Sternberg_updated,83,65558,87,yes,1024
95,95,752,752,black,no,experiment,Mozilla,Netscape,5.0 (Macintosh),legacy,legacy,legacy,0,uniform,1,1,right,87,87,87,87,0,0,0,87,87,0,0,0,87,87,87,0,0,87,87,0,30-08-21,30-08-21,09:17:22,Thu Sep 30 2021 09:17:22 GMT+0200 (Central European Summer Time),The main experiment item,yes,0,0,/Users/ethan/Documents/GitHub/OpenSesame/Sternberg/experiment_files,0,0,0,no,mono,no,18,no,white,no,no,768,106,3.6.1,legacy,legacy,3 9 6 2,osweb,1.4.0,1,4,y,37,,0,right,right,,space,right,right,right,616,102366,,11595,15051,11683,616,2,legacy,875,1440,24,900,24,0,32,1440,1632986335674,4,1024,2,48000,-16,experiment,0,even,MacIntel,2,665650,370476,,662414,38,663432,656366,38,11650,101579,667662,664446,668281,38,667662,Sternberg_updated,84,66174,88,yes,1024
96,96,751,751,black,no,experiment,Mozilla,Netscape,5.0 (Macintosh),legacy,legacy,legacy,0,uniform,1,1,left,88,88,88,88,0,0,0,88,88,0,0,0,88,88,88,0,0,88,88,0,30-08-21,30-08-21,09:17:22,Thu Sep 30 2021 09:17:22 GMT+0200 (Central European Summer Time),The main experiment item,yes,0,0,/Users/ethan/Documents/GitHub/OpenSesame/Sternberg/experiment_files,0,0,0,no,mono,no,18,no,white,no,no,768,106,3.6.1,legacy,legacy,5,osweb,1.4.0,1,0,n,37,,0,left,right,,space,right,right,left,651,102366,,11595,15051,11683,651,2,legacy,875,1440,24,900,24,0,32,1440,1632986335674,1,1024,2,48000,-16,experiment,0,even,MacIntel,8,671515,370476,,668282,38,669295,656366,38,11650,101579,673523,670312,674179,38,673523,Sternberg_updated,85,66825,89,yes,1024
96,96,751,751,black,no,experiment,Mozilla,Netscape,5.0 (Macintosh),legacy,legacy,legacy,0,uniform,1,1,right,89,89,89,89,0,0,0,89,89,0,0,0,89,89,89,0,0,89,89,0,30-08-21,30-08-21,09:17:22,Thu Sep 30 2021 09:17:22 GMT+0200 (Central European Summer Time),The main experiment item,yes,0,0,/Users/ethan/Documents/GitHub/OpenSesame/Sternberg/experiment_files,0,0,0,no,mono,no,18,no,white,no,no,768,106,3.6.1,legacy,legacy,9 1 7 2,osweb,1.4.0,1,2,y,37,,0,right,right,,space,right,right,right,764,102366,,11595,15051,11683,764,2,legacy,875,1440,24,900,24,0,32,1440,1632986335674,4,1024,2,48000,-16,experiment,0,even,MacIntel,1,677402,370476,,674180,38,675194,656366,38,11650,101579,679419,676195,680194,38,679419,Sternberg_updated,86,67589,90,yes,1024
96,96,751,751,black,no,experiment,Mozilla,Netscape,5.0 (Macintosh),legacy,legacy,legacy,0,uniform,1,1,left,90,90,90,90,0,0,0,90,90,0,0,0,90,90,90,0,0,90,90,0,30-08-21,30-08-21,09:17:22,Thu Sep 30 2021 09:17:22 GMT+0200 (Central European Summer Time),The main experiment item,yes,0,0,/Users/ethan/Documents/GitHub/OpenSesame/Sternberg/experiment_files,0,0,0,no,mono,no,18,no,white,no,no,768,106,3.6.1,legacy,legacy,2 8 9 4 1,osweb,1.4.0,1,0,n,37,,0,left,right,,space,right,right,left,747,102366,,11595,15051,11683,747,2,legacy,875,1440,24,900,24,0,32,1440,1632986335674,5,1024,2,48000,-16,experiment,0,even,MacIntel,5,683433,370476,,680194,38,681210,656366,38,11650,101579,685437,682225,686190,38,685437,Sternberg_updated,87,68336,91,yes,1024
96,96,755,755,black,no,experiment,Mozilla,Netscape,5.0 (Macintosh),legacy,legacy,legacy,0,uniform,1,1,right,91,91,91,91,0,0,0,91,91,0,0,0,91,91,91,0,0,91,91,0,30-08-21,30-08-21,09:17:22,Thu Sep 30 2021 09:17:22 GMT+0200 (Central European Summer Time),The main experiment item,yes,0,0,/Users/ethan/Documents/GitHub/OpenSesame/Sternberg/experiment_files,0,0,0,no,mono,no,18,no,white,no,no,768,106,3.6.1,legacy,legacy,3 9 7 6 4,osweb,1.4.0,1,3,y,37,,0,right,right,,space,right,right,right,1124,102366,,11595,15051,11683,1124,2,legacy,875,1440,24,900,24,0,32,1440,1632986335674,5,1024,2,48000,-16,experiment,0,even,MacIntel,7,689427,370476,,686190,38,687209,656366,38,11650,101579,691439,688224,692576,38,691439,Sternberg_updated,88,69460,92,yes,1024
96,96,754,754,black,no,experiment,Mozilla,Netscape,5.0 (Macintosh),legacy,legacy,legacy,0,uniform,1,1,right,92,92,92,92,0,0,0,92,92,0,0,0,92,92,92,0,0,92,92,0,30-08-21,30-08-21,09:17:22,Thu Sep 30 2021 09:17:22 GMT+0200 (Central European Summer Time),The main experiment item,yes,0,0,/Users/ethan/Documents/GitHub/OpenSesame/Sternberg/experiment_files,0,0,0,no,mono,no,18,no,white,no,no,768,106,3.6.1,legacy,legacy,5 7 3 6 2,osweb,1.4.0,1,5,y,37,,0,right,right,,space,right,right,right,678,102366,,11595,15051,11683,678,2,legacy,875,1440,24,900,24,0,32,1440,1632986335674,5,1024,2,48000,-16,experiment,0,even,MacIntel,2,695811,370476,,692576,38,693594,656366,38,11650,101579,697822,694609,698504,38,697822,Sternberg_updated,89,70138,93,yes,1024
95,95,752,752,black,no,experiment,Mozilla,Netscape,5.0 (Macintosh),legacy,legacy,legacy,0,uniform,0,0,left,93,93,93,93,0,0,0,93,93,0,0,0,93,93,93,0,0,93,93,0,30-08-21,30-08-21,09:17:22,Thu Sep 30 2021 09:17:22 GMT+0200 (Central European Summer Time),The main experiment item,yes,0,0,/Users/ethan/Documents/GitHub/OpenSesame/Sternberg/experiment_files,0,0,0,no,mono,no,18,no,white,no,no,768,106,3.6.1,legacy,legacy,1,osweb,1.4.0,1,0,n,37,,0,right,right,,space,right,right,right,516,102366,,11595,15051,11683,516,2,legacy,875,1440,24,900,24,0,32,1440,1632986335674,1,1024,2,48000,-16,experiment,0,even,MacIntel,7,701725,370476,,698504,38,699519,656366,38,11650,101579,703732,700521,704248,38,703732,Sternberg_updated,89,70654,94,yes,1024
95,95,752,752,black,no,experiment,Mozilla,Netscape,5.0 (Macintosh),legacy,legacy,legacy,0,uniform,1,1,right,94,94,94,94,0,0,0,94,94,0,0,0,94,94,94,0,0,94,94,0,30-08-21,30-08-21,09:17:22,Thu Sep 30 2021 09:17:22 GMT+0200 (Central European Summer Time),The main experiment item,yes,0,0,/Users/ethan/Documents/GitHub/OpenSesame/Sternberg/experiment_files,0,0,0,no,mono,no,18,no,white,no,no,768,106,3.6.1,legacy,legacy,6 8 9 3 4 9,osweb,1.4.0,1,5,y,37,,0,right,right,,space,right,right,right,755,102366,,11595,15051,11683,755,2,legacy,875,1440,24,900,24,0,32,1440,1632986335674,6,1024,2,48000,-16,experiment,0,even,MacIntel,4,707472,370476,,698504,38,705264,704249,38,11650,101579,709480,706265,710250,38,709480,Sternberg_updated,90,71409,95,yes,1024
95,95,751,751,black,no,experiment,Mozilla,Netscape,5.0 (Macintosh),legacy,legacy,legacy,0,uniform,1,1,right,95,95,95,95,0,0,0,95,95,0,0,0,95,95,95,0,0,95,95,0,30-08-21,30-08-21,09:17:22,Thu Sep 30 2021 09:17:22 GMT+0200 (Central European Summer Time),The main experiment item,yes,0,0,/Users/ethan/Documents/GitHub/OpenSesame/Sternberg/experiment_files,0,0,0,no,mono,no,18,no,white,no,no,768,106,3.6.1,legacy,legacy,8 3,osweb,1.4.0,1,2,y,37,,0,right,right,,space,right,right,right,723,102366,,11595,15051,11683,723,2,legacy,875,1440,24,900,24,0,32,1440,1632986335674,2,1024,2,48000,-16,experiment,0,even,MacIntel,3,713483,370476,,710251,38,711268,704249,38,11650,101579,715495,712280,716231,38,715494,Sternberg_updated,91,72132,96,yes,1024
95,95,752,752,black,no,experiment,Mozilla,Netscape,5.0 (Macintosh),legacy,legacy,legacy,0,uniform,1,1,left,96,96,96,96,0,0,0,96,96,0,0,0,96,96,96,0,0,96,96,0,30-08-21,30-08-21,09:17:22,Thu Sep 30 2021 09:17:22 GMT+0200 (Central European Summer Time),The main experiment item,yes,0,0,/Users/ethan/Documents/GitHub/OpenSesame/Sternberg/experiment_files,0,0,0,no,mono,no,18,no,white,no,no,768,106,3.6.1,legacy,legacy,5 3 2 6 9 8,osweb,1.4.0,1,0,n,37,,0,left,right,,space,right,right,left,767,102366,,11595,15051,11683,767,2,legacy,875,1440,24,900,24,0,32,1440,1632986335674,6,1024,2,48000,-16,experiment,0,even,MacIntel,4,719477,370476,,716233,38,717249,704249,38,11650,101579,721488,718261,722271,38,721488,Sternberg_updated,92,72899,97,yes,1024
95,95,751,751,black,no,experiment,Mozilla,Netscape,5.0 (Macintosh),legacy,legacy,legacy,0,uniform,1,1,left,97,97,97,97,0,0,0,97,97,0,0,0,97,97,97,0,0,97,97,0,30-08-21,30-08-21,09:17:22,Thu Sep 30 2021 09:17:22 GMT+0200 (Central European Summer Time),The main experiment item,yes,0,0,/Users/ethan/Documents/GitHub/OpenSesame/Sternberg/experiment_files,0,0,0,no,mono,no,18,no,white,no,no,768,106,3.6.1,legacy,legacy,3 9 8 1 6 4,osweb,1.4.0,1,0,n,37,,0,left,right,right,space,right,right,left,684,102366,50906,11595,15051,11683,684,2,legacy,875,1440,24,900,24,0,32,1440,1632986335674,6,1024,2,48000,-16,experiment,0,even,MacIntel,7,776403,370476,723277,722272,38,774196,704249,38,11650,101579,778409,775199,779110,38,778409,Sternberg_updated,93,73583,98,yes,1024
95,95,749,749,black,no,experiment,Mozilla,Netscape,5.0 (Macintosh),legacy,legacy,legacy,0,uniform,1,1,left,98,98,98,98,0,0,0,98,98,0,0,0,98,98,98,0,0,98,98,0,30-08-21,30-08-21,09:17:22,Thu Sep 30 2021 09:17:22 GMT+0200 (Central European Summer Time),The main experiment item,yes,0,0,/Users/ethan/Documents/GitHub/OpenSesame/Sternberg/experiment_files,0,0,0,no,mono,no,18,no,white,no,no,768,106,3.6.1,legacy,legacy,7 8 6 1,osweb,1.4.0,1,0,n,37,,0,left,right,right,space,right,right,left,566,102366,50906,11595,15051,11683,566,2,legacy,875,1440,24,900,24,0,32,1440,1632986335674,4,1024,2,48000,-16,experiment,0,even,MacIntel,3,782345,370476,723277,779111,38,780122,704249,38,11650,101579,784353,781139,784922,38,784353,Sternberg_updated,94,74149,99,yes,1024
95,95,750,750,black,no,experiment,Mozilla,Netscape,5.0 (Macintosh),legacy,legacy,legacy,0,uniform,1,1,right,99,99,99,99,0,0,0,99,99,0,0,0,99,99,99,0,0,99,99,0,30-08-21,30-08-21,09:17:22,Thu Sep 30 2021 09:17:22 GMT+0200 (Central European Summer Time),The main experiment item,yes,0,0,/Users/ethan/Documents/GitHub/OpenSesame/Sternberg/experiment_files,0,0,0,no,mono,no,18,no,white,no,no,768,106,3.6.1,legacy,legacy,2 8 5 1,osweb,1.4.0,1,4,y,37,,0,right,right,right,space,right,right,right,824,102366,50906,11595,15051,11683,824,2,legacy,875,1440,24,900,24,0,32,1440,1632986335674,4,1024,2,48000,-16,experiment,0,even,MacIntel,1,788158,370476,723277,784923,38,785938,704249,38,11650,101579,790161,786955,790998,38,790161,Sternberg_updated,95,74973,100,yes,1024
95,95,749,749,black,no,experiment,Mozilla,Netscape,5.0 (Macintosh),legacy,legacy,legacy,0,uniform,1,1,left,100,100,100,100,0,0,0,100,100,0,0,0,100,100,100,0,0,100,100,0,30-08-21,30-08-21,09:17:22,Thu Sep 30 2021 09:17:22 GMT+0200 (Central European Summer Time),The main experiment item,yes,0,0,/Users/ethan/Documents/GitHub/OpenSesame/Sternberg/experiment_files,0,0,0,no,mono,no,18,no,white,no,no,768,106,3.6.1,legacy,legacy,2 5 1 4,osweb,1.4.0,1,0,n,37,,0,left,right,right,space,right,right,left,675,102366,50906,11595,15051,11683,675,2,legacy,875,1440,24,900,24,0,32,1440,1632986335674,4,1024,2,48000,-16,experiment,0,even,MacIntel,6,794249,370476,723277,790999,38,792017,704249,38,11650,101579,796260,793033,796944,38,796260,Sternberg_updated,96,75648,101,yes,1024
95,95,750,750,black,no,experiment,Mozilla,Netscape,5.0 (Macintosh),legacy,legacy,legacy,0,uniform,1,1,right,101,101,101,101,0,0,0,101,101,0,0,0,101,101,101,0,0,101,101,0,30-08-21,30-08-21,09:17:22,Thu Sep 30 2021 09:17:22 GMT+0200 (Central European Summer Time),The main experiment item,yes,0,0,/Users/ethan/Documents/GitHub/OpenSesame/Sternberg/experiment_files,0,0,0,no,mono,no,18,no,white,no,no,768,106,3.6.1,legacy,legacy,4 6 2 5 1,osweb,1.4.0,1,5,y,37,,0,right,right,right,space,right,right,right,857,102366,50906,11595,15051,11683,857,2,legacy,875,1440,24,900,24,0,32,1440,1632986335674,5,1024,2,48000,-16,experiment,0,even,MacIntel,1,800176,370476,723277,796945,38,797957,704249,38,11650,101579,802184,798972,803059,38,802184,Sternberg_updated,97,76505,102,yes,1024
95,95,749,749,black,no,experiment,Mozilla,Netscape,5.0 (Macintosh),legacy,legacy,legacy,0,uniform,1,1,right,102,102,102,102,0,0,0,102,102,0,0,0,102,102,102,0,0,102,102,0,30-08-21,30-08-21,09:17:22,Thu Sep 30 2021 09:17:22 GMT+0200 (Central European Summer Time),The main experiment item,yes,0,0,/Users/ethan/Documents/GitHub/OpenSesame/Sternberg/experiment_files,0,0,0,no,mono,no,18,no,white,no,no,768,106,3.6.1,legacy,legacy,7 1 8 5 6 2,osweb,1.4.0,1,2,y,37,,0,right,right,right,space,right,right,right,655,102366,50906,11595,15051,11683,655,2,legacy,875,1440,24,900,24,0,32,1440,1632986335674,6,1024,2,48000,-16,experiment,0,even,MacIntel,1,806294,370476,723277,803060,38,804085,704249,38,11650,101579,808298,805086,808954,38,808298,Sternberg_updated,98,77160,103,yes,1024
95,95,748,748,black,no,experiment,Mozilla,Netscape,5.0 (Macintosh),legacy,legacy,legacy,0,uniform,1,1,right,103,103,103,103,0,0,0,103,103,0,0,0,103,103,103,0,0,103,103,0,30-08-21,30-08-21,09:17:22,Thu Sep 30 2021 09:17:22 GMT+0200 (Central European Summer Time),The main experiment item,yes,0,0,/Users/ethan/Documents/GitHub/OpenSesame/Sternberg/experiment_files,0,0,0,no,mono,no,18,no,white,no,no,768,106,3.6.1,legacy,legacy,4,osweb,1.4.0,1,1,y,37,,0,right,right,right,space,right,right,right,619,102366,50906,11595,15051,11683,619,2,legacy,875,1440,24,900,24,0,32,1440,1632986335674,1,1024,2,48000,-16,experiment,0,even,MacIntel,4,812183,370476,723277,808955,38,809968,704249,38,11650,101579,814191,810980,814810,38,814191,Sternberg_updated,99,77779,104,yes,1024
95,95,750,750,black,no,experiment,Mozilla,Netscape,5.0 (Macintosh),legacy,legacy,legacy,0,uniform,1,1,right,104,104,104,104,0,0,0,104,104,0,0,0,104,104,104,0,0,104,104,0,30-08-21,30-08-21,09:17:22,Thu Sep 30 2021 09:17:22 GMT+0200 (Central European Summer Time),The main experiment item,yes,0,0,/Users/ethan/Documents/GitHub/OpenSesame/Sternberg/experiment_files,0,0,0,no,mono,no,18,no,white,no,no,768,106,3.6.1,legacy,legacy,3 4 9 6 2 9,osweb,1.4.0,1,5,y,37,,0,right,right,right,space,right,right,right,951,102366,50906,11595,15051,11683,951,2,legacy,875,1440,24,900,24,0,32,1440,1632986335674,6,1024,2,48000,-16,experiment,0,even,MacIntel,2,818051,370476,723277,814812,38,815829,704249,38,11650,101579,820062,816845,821029,38,820062,Sternberg_updated,100,78730,105,yes,1024
95,95,755,755,black,no,experiment,Mozilla,Netscape,5.0 (Macintosh),legacy,legacy,legacy,0,uniform,1,1,left,105,105,105,105,0,0,0,105,105,0,0,0,105,105,105,0,0,105,105,0,30-08-21,30-08-21,09:17:22,Thu Sep 30 2021 09:17:22 GMT+0200 (Central European Summer Time),The main experiment item,yes,0,0,/Users/ethan/Documents/GitHub/OpenSesame/Sternberg/experiment_files,0,0,0,no,mono,no,18,no,white,no,no,768,106,3.6.1,legacy,legacy,1 4 9 2 5,osweb,1.4.0,1,0,n,37,,0,left,right,right,space,right,right,left,1261,102366,50906,11595,15051,11683,1261,2,legacy,875,1440,24,900,24,0,32,1440,1632986335674,5,1024,2,48000,-16,experiment,0,even,MacIntel,7,824264,370476,723277,821030,38,822041,704249,38,11650,101579,826273,823058,827541,38,826273,Sternberg_updated,101,79991,106,yes,1024
95,95,755,755,black,no,experiment,Mozilla,Netscape,5.0 (Macintosh),legacy,legacy,legacy,0,uniform,1,1,left,106,106,106,106,0,0,0,106,106,0,0,0,106,106,106,0,0,106,106,0,30-08-21,30-08-21,09:17:22,Thu Sep 30 2021 09:17:22 GMT+0200 (Central European Summer Time),The main experiment item,yes,0,0,/Users/ethan/Documents/GitHub/OpenSesame/Sternberg/experiment_files,0,0,0,no,mono,no,18,no,white,no,no,768,106,3.6.1,legacy,legacy,2 8 7 9 5 3,osweb,1.4.0,1,0,n,37,,0,left,right,right,space,right,right,left,801,102366,50906,11595,15051,11683,801,2,legacy,875,1440,24,900,24,0,32,1440,1632986335674,6,1024,2,48000,-16,experiment,0,even,MacIntel,6,830759,370476,723277,827542,38,828553,704249,38,11650,101579,832765,829555,833583,38,832765,Sternberg_updated,102,80792,107,yes,1024
95,95,759,759,black,no,experiment,Mozilla,Netscape,5.0 (Macintosh),legacy,legacy,legacy,0,uniform,1,1,left,107,107,107,107,0,0,0,107,107,0,0,0,107,107,107,0,0,107,107,0,30-08-21,30-08-21,09:17:22,Thu Sep 30 2021 09:17:22 GMT+0200 (Central European Summer Time),The main experiment item,yes,0,0,/Users/ethan/Documents/GitHub/OpenSesame/Sternberg/experiment_files,0,0,0,no,mono,no,18,no,white,no,no,768,106,3.6.1,legacy,legacy,3 4 9 6 7 8,osweb,1.4.0,1,0,n,37,,0,left,right,right,space,right,right,left,1194,102366,50906,11595,15051,11683,1194,2,legacy,875,1440,24,900,24,0,32,1440,1632986335674,6,1024,2,48000,-16,experiment,0,even,MacIntel,2,836805,370476,723277,833584,38,834596,704249,38,11650,101579,838811,835597,840019,38,838811,Sternberg_updated,103,81986,108,yes,1024
95,95,764,764,black,no,experiment,Mozilla,Netscape,5.0 (Macintosh),legacy,legacy,legacy,0,uniform,1,1,left,108,108,108,108,0,0,0,108,108,0,0,0,108,108,108,0,0,108,108,0,30-08-21,30-08-21,09:17:22,Thu Sep 30 2021 09:17:22 GMT+0200 (Central European Summer Time),The main experiment item,yes,0,0,/Users/ethan/Documents/GitHub/OpenSesame/Sternberg/experiment_files,0,0,0,no,mono,no,18,no,white,no,no,768,106,3.6.1,legacy,legacy,7 3 2 8,osweb,1.4.0,1,0,n,37,,0,left,right,right,space,right,right,left,1275,102366,50906,11595,15051,11683,1275,2,legacy,875,1440,24,900,24,0,32,1440,1632986335674,4,1024,2,48000,-16,experiment,0,even,MacIntel,4,843258,370476,723277,840019,38,841035,704249,38,11650,101579,845261,842051,846550,38,845261,Sternberg_updated,104,83261,109,yes,1024
95,95,763,763,black,no,experiment,Mozilla,Netscape,5.0 (Macintosh),legacy,legacy,legacy,0,uniform,1,1,left,109,109,109,109,0,0,0,109,109,0,0,0,109,109,109,0,0,109,109,0,30-08-21,30-08-21,09:17:22,Thu Sep 30 2021 09:17:22 GMT+0200 (Central European Summer Time),The main experiment item,yes,0,0,/Users/ethan/Documents/GitHub/OpenSesame/Sternberg/experiment_files,0,0,0,no,mono,no,18,no,white,no,no,768,106,3.6.1,legacy,legacy,2 7 5,osweb,1.4.0,1,0,n,37,,0,left,right,right,space,right,right,left,706,102366,50906,11595,15051,11683,706,2,legacy,875,1440,24,900,24,0,32,1440,1632986335674,3,1024,2,48000,-16,experiment,0,even,MacIntel,8,849782,370476,723277,846551,38,847563,704249,38,11650,101579,851786,848575,852506,38,851786,Sternberg_updated,105,83967,110,yes,1024
95,95,766,766,black,no,experiment,Mozilla,Netscape,5.0 (Macintosh),legacy,legacy,legacy,0,uniform,1,1,right,110,110,110,110,0,0,0,110,110,0,0,0,110,110,110,0,0,110,110,0,30-08-21,30-08-21,09:17:22,Thu Sep 30 2021 09:17:22 GMT+0200 (Central European Summer Time),The main experiment item,yes,0,0,/Users/ethan/Documents/GitHub/OpenSesame/Sternberg/experiment_files,0,0,0,no,mono,no,18,no,white,no,no,768,106,3.6.1,legacy,legacy,9 3 8 2 1 4,osweb,1.4.0,1,3,y,37,,0,right,right,right,space,right,right,right,1063,102366,50906,11595,15051,11683,1063,2,legacy,875,1440,24,900,24,0,32,1440,1632986335674,6,1024,2,48000,-16,experiment,0,even,MacIntel,8,855738,370476,723277,852507,38,853523,704249,38,11650,101579,857749,854535,858815,38,857749,Sternberg_updated,106,85030,111,yes,1024
96,96,766,766,black,no,experiment,Mozilla,Netscape,5.0 (Macintosh),legacy,legacy,legacy,0,uniform,1,1,right,111,111,111,111,0,0,0,111,111,0,0,0,111,111,111,0,0,111,111,0,30-08-21,30-08-21,09:17:22,Thu Sep 30 2021 09:17:22 GMT+0200 (Central European Summer Time),The main experiment item,yes,0,0,/Users/ethan/Documents/GitHub/OpenSesame/Sternberg/experiment_files,0,0,0,no,mono,no,18,no,white,no,no,768,106,3.6.1,legacy,legacy,7 1 3,osweb,1.4.0,1,2,y,37,,0,right,right,right,space,right,right,right,728,102366,50906,11595,15051,11683,728,2,legacy,875,1440,24,900,24,0,32,1440,1632986335674,3,1024,2,48000,-16,experiment,0,even,MacIntel,1,862064,370476,723277,858815,38,859830,704249,38,11650,101579,864071,860847,864812,38,864071,Sternberg_updated,107,85758,112,yes,1024
96,96,766,766,black,no,experiment,Mozilla,Netscape,5.0 (Macintosh),legacy,legacy,legacy,0,uniform,1,1,left,112,112,112,112,0,0,0,112,112,0,0,0,112,112,112,0,0,112,112,0,30-08-21,30-08-21,09:17:22,Thu Sep 30 2021 09:17:22 GMT+0200 (Central European Summer Time),The main experiment item,yes,0,0,/Users/ethan/Documents/GitHub/OpenSesame/Sternberg/experiment_files,0,0,0,no,mono,no,18,no,white,no,no,768,106,3.6.1,legacy,legacy,1 7 8 3 9,osweb,1.4.0,1,0,n,37,,0,left,right,right,space,right,right,left,766,102366,50906,11595,15051,11683,766,2,legacy,875,1440,24,900,24,0,32,1440,1632986335674,5,1024,2,48000,-16,experiment,0,even,MacIntel,2,868032,370476,723277,864812,38,865824,704249,38,11650,101579,870036,866829,870806,38,870036,Sternberg_updated,108,86524,113,yes,1024
96,96,766,766,black,no,experiment,Mozilla,Netscape,5.0 (Macintosh),legacy,legacy,legacy,0,uniform,1,1,right,113,113,113,113,0,0,0,113,113,0,0,0,113,113,113,0,0,113,113,0,30-08-21,30-08-21,09:17:22,Thu Sep 30 2021 09:17:22 GMT+0200 (Central European Summer Time),The main experiment item,yes,0,0,/Users/ethan/Documents/GitHub/OpenSesame/Sternberg/experiment_files,0,0,0,no,mono,no,18,no,white,no,no,768,106,3.6.1,legacy,legacy,1 4 9 3 2 5,osweb,1.4.0,1,3,y,37,,0,right,right,right,space,right,right,right,824,102366,50906,11595,15051,11683,824,2,legacy,875,1440,24,900,24,0,32,1440,1632986335674,6,1024,2,48000,-16,experiment,0,even,MacIntel,9,874045,370476,723277,870807,38,871822,704249,38,11650,101579,876053,872839,876889,38,876053,Sternberg_updated,109,87348,114,yes,1024
96,96,767,767,black,no,experiment,Mozilla,Netscape,5.0 (Macintosh),legacy,legacy,legacy,0,uniform,1,1,left,114,114,114,114,0,0,0,114,114,0,0,0,114,114,114,0,0,114,114,0,30-08-21,30-08-21,09:17:22,Thu Sep 30 2021 09:17:22 GMT+0200 (Central European Summer Time),The main experiment item,yes,0,0,/Users/ethan/Documents/GitHub/OpenSesame/Sternberg/experiment_files,0,0,0,no,mono,no,18,no,white,no,no,768,106,3.6.1,legacy,legacy,8 5 7 3 6,osweb,1.4.0,1,0,n,37,,0,left,right,right,space,right,right,left,871,102366,50906,11595,15051,11683,871,2,legacy,875,1440,24,900,24,0,32,1440,1632986335674,5,1024,2,48000,-16,experiment,0,even,MacIntel,9,880121,370476,723277,876890,38,877908,704249,38,11650,101579,882135,878918,883021,38,882135,Sternberg_updated,110,88219,115,yes,1024
96,96,766,766,black,no,experiment,Mozilla,Netscape,5.0 (Macintosh),legacy,legacy,legacy,0,uniform,1,1,left,115,115,115,115,0,0,0,115,115,0,0,0,115,115,115,0,0,115,115,0,30-08-21,30-08-21,09:17:22,Thu Sep 30 2021 09:17:22 GMT+0200 (Central European Summer Time),The main experiment item,yes,0,0,/Users/ethan/Documents/GitHub/OpenSesame/Sternberg/experiment_files,0,0,0,no,mono,no,18,no,white,no,no,768,106,3.6.1,legacy,legacy,6 9 7 3 8 2,osweb,1.4.0,1,0,n,37,,0,left,right,right,space,right,right,left,651,102366,50906,11595,15051,11683,651,2,legacy,875,1440,24,900,24,0,32,1440,1632986335674,6,1024,2,48000,-16,experiment,0,even,MacIntel,5,886254,370476,723277,883022,38,884041,704249,38,11650,101579,888273,885051,888938,38,888273,Sternberg_updated,111,88870,116,yes,1024
96,96,769,769,black,no,experiment,Mozilla,Netscape,5.0 (Macintosh),legacy,legacy,legacy,0,uniform,1,1,right,116,116,116,116,0,0,0,116,116,0,0,0,116,116,116,0,0,116,116,0,30-08-21,30-08-21,09:17:22,Thu Sep 30 2021 09:17:22 GMT+0200 (Central European Summer Time),The main experiment item,yes,0,0,/Users/ethan/Documents/GitHub/OpenSesame/Sternberg/experiment_files,0,0,0,no,mono,no,18,no,white,no,no,768,106,3.6.1,legacy,legacy,7 4 2 6 3 5,osweb,1.4.0,1,6,y,37,,0,right,right,right,space,right,right,right,1102,102366,50906,11595,15051,11683,1102,2,legacy,875,1440,24,900,24,0,32,1440,1632986335674,6,1024,2,48000,-16,experiment,0,even,MacIntel,5,892182,370476,723277,888939,38,889957,704249,38,11650,101579,894189,890974,895292,38,894189,Sternberg_updated,112,89972,117,yes,1024
96,96,769,769,black,no,experiment,Mozilla,Netscape,5.0 (Macintosh),legacy,legacy,legacy,0,uniform,1,1,left,117,117,117,117,0,0,0,117,117,0,0,0,117,117,117,0,0,117,117,0,30-08-21,30-08-21,09:17:22,Thu Sep 30 2021 09:17:22 GMT+0200 (Central European Summer Time),The main experiment item,yes,0,0,/Users/ethan/Documents/GitHub/OpenSesame/Sternberg/experiment_files,0,0,0,no,mono,no,18,no,white,no,no,768,106,3.6.1,legacy,legacy,2 8 6 3 1,osweb,1.4.0,1,0,n,37,,0,left,right,right,space,right,right,left,766,102366,50906,11595,15051,11683,766,2,legacy,875,1440,24,900,24,0,32,1440,1632986335674,5,1024,2,48000,-16,experiment,0,even,MacIntel,7,898527,370476,723277,895292,38,896305,704249,38,11650,101579,900544,897321,901320,38,900544,Sternberg_updated,113,90738,118,yes,1024
96,96,768,768,black,no,experiment,Mozilla,Netscape,5.0 (Macintosh),legacy,legacy,legacy,0,uniform,1,1,right,118,118,118,118,0,0,0,118,118,0,0,0,118,118,118,0,0,118,118,0,30-08-21,30-08-21,09:17:22,Thu Sep 30 2021 09:17:22 GMT+0200 (Central European Summer Time),The main experiment item,yes,0,0,/Users/ethan/Documents/GitHub/OpenSesame/Sternberg/experiment_files,0,0,0,no,mono,no,18,no,white,no,no,768,106,3.6.1,legacy,legacy,9 4 2,osweb,1.4.0,1,1,y,37,,0,right,right,right,space,right,right,right,639,102366,50906,11595,15051,11683,639,2,legacy,875,1440,24,900,24,0,32,1440,1632986335674,3,1024,2,48000,-16,experiment,0,even,MacIntel,9,904558,370476,723277,901320,38,902337,704249,38,11650,101579,906568,903353,907221,38,906568,Sternberg_updated,114,91377,119,yes,1024
96,96,769,769,black,no,experiment,Mozilla,Netscape,5.0 (Macintosh),legacy,legacy,legacy,0,uniform,1,1,left,119,119,119,119,0,0,0,119,119,0,0,0,119,119,119,0,0,119,119,0,30-08-21,30-08-21,09:17:22,Thu Sep 30 2021 09:17:22 GMT+0200 (Central European Summer Time),The main experiment item,yes,0,0,/Users/ethan/Documents/GitHub/OpenSesame/Sternberg/experiment_files,0,0,0,no,mono,no,18,no,white,no,no,768,106,3.6.1,legacy,legacy,8 6 3 4 7,osweb,1.4.0,1,0,n,37,,0,left,right,right,space,right,right,left,953,102366,50906,11595,15051,11683,953,2,legacy,875,1440,24,900,24,0,32,1440,1632986335674,5,1024,2,48000,-16,experiment,0,even,MacIntel,1,910457,370476,723277,907222,38,908239,704249,38,11650,101579,912468,909255,913437,38,912468,Sternberg_updated,115,92330,120,yes,1024
96,96,770,770,black,no,experiment,Mozilla,Netscape,5.0 (Macintosh),legacy,legacy,legacy,0,uniform,1,1,left,120,120,120,120,0,0,0,120,120,0,0,0,120,120,120,0,0,120,120,0,30-08-21,30-08-21,09:17:22,Thu Sep 30 2021 09:17:22 GMT+0200 (Central European Summer Time),The main experiment item,yes,0,0,/Users/ethan/Documents/GitHub/OpenSesame/Sternberg/experiment_files,0,0,0,no,mono,no,18,no,white,no,no,768,106,3.6.1,legacy,legacy,1 6 4 3 9 7,osweb,1.4.0,1,0,n,37,,0,left,right,right,space,right,right,left,810,102366,50906,11595,15051,11683,810,2,legacy,875,1440,24,900,24,0,32,1440,1632986335674,6,1024,2,48000,-16,experiment,0,even,MacIntel,8,916684,370476,723277,913438,38,914456,704249,38,11650,101579,918697,915467,919513,38,918697,Sternberg_updated,116,93140,121,yes,1024
96,96,770,770,black,no,experiment,Mozilla,Netscape,5.0 (Macintosh),legacy,legacy,legacy,0,uniform,1,1,left,121,121,121,121,0,0,0,121,121,0,0,0,121,121,121,0,0,121,121,0,30-08-21,30-08-21,09:17:22,Thu Sep 30 2021 09:17:22 GMT+0200 (Central European Summer Time),The main experiment item,yes,0,0,/Users/ethan/Documents/GitHub/OpenSesame/Sternberg/experiment_files,0,0,0,no,mono,no,18,no,white,no,no,768,106,3.6.1,legacy,legacy,6 7 5 9,osweb,1.4.0,1,0,n,37,,0,left,right,right,space,right,right,left,816,102366,50906,11595,15051,11683,816,2,legacy,875,1440,24,900,24,0,32,1440,1632986335674,4,1024,2,48000,-16,experiment,0,even,MacIntel,2,922750,370476,723277,919513,38,920525,704249,38,11650,101579,924757,921541,925576,38,924757,Sternberg_updated,117,93956,122,yes,1024
96,96,768,768,black,no,experiment,Mozilla,Netscape,5.0 (Macintosh),legacy,legacy,legacy,0,uniform,1,1,right,122,122,122,122,0,0,0,122,122,0,0,0,122,122,122,0,0,122,122,0,30-08-21,30-08-21,09:17:22,Thu Sep 30 2021 09:17:22 GMT+0200 (Central European Summer Time),The main experiment item,yes,0,0,/Users/ethan/Documents/GitHub/OpenSesame/Sternberg/experiment_files,0,0,0,no,mono,no,18,no,white,no,no,768,106,3.6.1,legacy,legacy,6 2,osweb,1.4.0,1,1,y,37,,0,right,right,right,space,right,right,right,544,102366,50906,11595,15051,11683,544,2,legacy,875,1440,24,900,24,0,32,1440,1632986335674,2,1024,2,48000,-16,experiment,0,even,MacIntel,6,928811,370476,723277,925577,38,926601,704249,38,11650,101579,930813,927602,931370,38,930813,Sternberg_updated,118,94500,123,yes,1024
96,96,769,769,black,no,experiment,Mozilla,Netscape,5.0 (Macintosh),legacy,legacy,legacy,0,uniform,1,1,left,123,123,123,123,0,0,0,123,123,0,0,0,123,123,123,0,0,123,123,0,30-08-21,30-08-21,09:17:22,Thu Sep 30 2021 09:17:22 GMT+0200 (Central European Summer Time),The main experiment item,yes,0,0,/Users/ethan/Documents/GitHub/OpenSesame/Sternberg/experiment_files,0,0,0,no,mono,no,18,no,white,no,no,768,106,3.6.1,legacy,legacy,8 4 3 9,osweb,1.4.0,1,0,n,37,,0,left,right,right,space,right,right,left,818,102366,50906,11595,15051,11683,818,2,legacy,875,1440,24,900,24,0,32,1440,1632986335674,4,1024,2,48000,-16,experiment,0,even,MacIntel,5,934599,370476,723277,931371,38,932386,704249,38,11650,101579,936606,933395,937426,38,936606,Sternberg_updated,119,95318,124,yes,1024
96,96,769,769,black,no,experiment,Mozilla,Netscape,5.0 (Macintosh),legacy,legacy,legacy,0,uniform,1,1,left,124,124,124,124,0,0,0,124,124,0,0,0,124,124,124,0,0,124,124,0,30-08-21,30-08-21,09:17:22,Thu Sep 30 2021 09:17:22 GMT+0200 (Central European Summer Time),The main experiment item,yes,0,0,/Users/ethan/Documents/GitHub/OpenSesame/Sternberg/experiment_files,0,0,0,no,mono,no,18,no,white,no,no,768,106,3.6.1,legacy,legacy,6 8 4,osweb,1.4.0,1,0,n,37,,0,left,right,right,space,right,right,left,842,102366,50906,11595,15051,11683,842,2,legacy,875,1440,24,900,24,0,32,1440,1632986335674,3,1024,2,48000,-16,experiment,0,even,MacIntel,1,940664,370476,723277,937426,38,938451,704249,38,11650,101579,942675,939462,943526,38,942675,Sternberg_updated,120,96160,125,yes,1024
96,96,769,769,black,no,experiment,Mozilla,Netscape,5.0 (Macintosh),legacy,legacy,legacy,0,uniform,1,1,left,125,125,125,125,0,0,0,125,125,0,0,0,125,125,125,0,0,125,125,0,30-08-21,30-08-21,09:17:22,Thu Sep 30 2021 09:17:22 GMT+0200 (Central European Summer Time),The main experiment item,yes,0,0,/Users/ethan/Documents/GitHub/OpenSesame/Sternberg/experiment_files,0,0,0,no,mono,no,18,no,white,no,no,768,106,3.6.1,legacy,legacy,1 4 9 3,osweb,1.4.0,1,0,n,37,,0,left,right,right,space,right,right,left,736,102366,50906,11595,15051,11683,736,2,legacy,875,1440,24,900,24,0,32,1440,1632986335674,4,1024,2,48000,-16,experiment,0,even,MacIntel,5,946761,370476,723277,943526,38,944544,704249,38,11650,101579,948768,945555,949510,38,948768,Sternberg_updated,121,96896,126,yes,1024
96,96,769,769,black,no,experiment,Mozilla,Netscape,5.0 (Macintosh),legacy,legacy,legacy,0,uniform,1,1,left,126,126,126,126,0,0,0,126,126,0,0,0,126,126,126,0,0,126,126,0,30-08-21,30-08-21,09:17:22,Thu Sep 30 2021 09:17:22 GMT+0200 (Central European Summer Time),The main experiment item,yes,0,0,/Users/ethan/Documents/GitHub/OpenSesame/Sternberg/experiment_files,0,0,0,no,mono,no,18,no,white,no,no,768,106,3.6.1,legacy,legacy,5 3 8 7 2 4,osweb,1.4.0,1,0,n,37,,0,left,right,right,space,right,right,left,771,102366,50906,11595,15051,11683,771,2,legacy,875,1440,24,900,24,0,32,1440,1632986335674,6,1024,2,48000,-16,experiment,0,even,MacIntel,9,952762,370476,723277,949513,38,950536,704249,38,11650,101579,954779,951552,955552,38,954779,Sternberg_updated,122,97667,127,yes,1024
96,96,771,771,black,no,experiment,Mozilla,Netscape,5.0 (Macintosh),legacy,legacy,legacy,0,uniform,1,1,right,127,127,127,127,0,0,0,127,127,0,0,0,127,127,127,0,0,127,127,0,30-08-21,30-08-21,09:17:22,Thu Sep 30 2021 09:17:22 GMT+0200 (Central European Summer Time),The main experiment item,yes,0,0,/Users/ethan/Documents/GitHub/OpenSesame/Sternberg/experiment_files,0,0,0,no,mono,no,18,no,white,no,no,768,106,3.6.1,legacy,legacy,7 2 3,osweb,1.4.0,1,3,y,37,,0,right,right,right,space,right,right,right,1023,102366,50906,11595,15051,11683,1023,2,legacy,875,1440,24,900,24,0,32,1440,1632986335674,3,1024,2,48000,-16,experiment,0,even,MacIntel,3,958788,370476,723277,955552,38,956565,704249,38,11650,101579,960792,957581,961828,38,960792,Sternberg_updated,123,98690,128,yes,1024
96,96,776,776,black,no,experiment,Mozilla,Netscape,5.0 (Macintosh),legacy,legacy,legacy,0,uniform,1,1,right,128,128,128,128,0,0,0,128,128,0,0,0,128,128,128,0,0,128,128,0,30-08-21,30-08-21,09:17:22,Thu Sep 30 2021 09:17:22 GMT+0200 (Central European Summer Time),The main experiment item,yes,0,0,/Users/ethan/Documents/GitHub/OpenSesame/Sternberg/experiment_files,0,0,0,no,mono,no,18,no,white,no,no,768,106,3.6.1,legacy,legacy,4 6 5 8,osweb,1.4.0,1,1,y,37,,0,right,right,right,space,right,right,right,1434,102366,50906,11595,15051,11683,1434,2,legacy,875,1440,24,900,24,0,32,1440,1632986335674,4,1024,2,48000,-16,experiment,0,even,MacIntel,4,965058,370476,723277,961829,38,962844,704249,38,11650,101579,967069,963856,968506,38,967069,Sternberg_updated,124,100124,129,yes,1024
96,96,777,777,black,no,experiment,Mozilla,Netscape,5.0 (Macintosh),legacy,legacy,legacy,0,uniform,1,1,left,129,129,129,129,0,0,0,129,129,0,0,0,129,129,129,0,0,129,129,0,30-08-21,30-08-21,09:17:22,Thu Sep 30 2021 09:17:22 GMT+0200 (Central European Summer Time),The main experiment item,yes,0,0,/Users/ethan/Documents/GitHub/OpenSesame/Sternberg/experiment_files,0,0,0,no,mono,no,18,no,white,no,no,768,106,3.6.1,legacy,legacy,6 3 1 7 9 8,osweb,1.4.0,1,0,n,37,,0,left,right,right,space,right,right,left,832,102366,50906,11595,15051,11683,832,2,legacy,875,1440,24,900,24,0,32,1440,1632986335674,6,1024,2,48000,-16,experiment,0,even,MacIntel,4,971744,370476,723277,968506,38,969524,704249,38,11650,101579,973754,970540,974591,38,973754,Sternberg_updated,125,100956,130,yes,1024
96,96,778,778,black,no,experiment,Mozilla,Netscape,5.0 (Macintosh),legacy,legacy,legacy,0,uniform,1,1,left,130,130,130,130,0,0,0,130,130,0,0,0,130,130,130,0,0,130,130,0,30-08-21,30-08-21,09:17:22,Thu Sep 30 2021 09:17:22 GMT+0200 (Central European Summer Time),The main experiment item,yes,0,0,/Users/ethan/Documents/GitHub/OpenSesame/Sternberg/experiment_files,0,0,0,no,mono,no,18,no,white,no,no,768,106,3.6.1,legacy,legacy,6 9 4 5 2,osweb,1.4.0,1,0,n,37,,0,left,right,right,space,right,right,left,1018,102366,50906,11595,15051,11683,1018,2,legacy,875,1440,24,900,24,0,32,1440,1632986335674,5,1024,2,48000,-16,experiment,0,even,MacIntel,1,977839,370476,723277,974591,38,975608,704249,38,11650,101579,979850,976623,980884,38,979850,Sternberg_updated,126,101974,131,yes,1024
96,96,777,777,black,no,experiment,Mozilla,Netscape,5.0 (Macintosh),legacy,legacy,legacy,0,uniform,1,1,right,131,131,131,131,0,0,0,131,131,0,0,0,131,131,131,0,0,131,131,0,30-08-21,30-08-21,09:17:22,Thu Sep 30 2021 09:17:22 GMT+0200 (Central European Summer Time),The main experiment item,yes,0,0,/Users/ethan/Documents/GitHub/OpenSesame/Sternberg/experiment_files,0,0,0,no,mono,no,18,no,white,no,no,768,106,3.6.1,legacy,legacy,6 7 8 5,osweb,1.4.0,1,3,y,37,,0,right,right,right,space,right,right,right,560,102366,50906,11595,15051,11683,560,2,legacy,875,1440,24,900,24,0,32,1440,1632986335674,4,1024,2,48000,-16,experiment,0,even,MacIntel,8,984120,370476,723277,980885,38,981897,704249,38,11650,101579,986127,982912,986697,38,986127,Sternberg_updated,127,102534,132,yes,1024
