acc,accuracy,average_response_time,avg_rt,background,bidi,block,browser_codename,browser_name,browser_version,canvas_backend,clock_backend,color_backend,compensation,coordinates,correct,correct_keyboard_response,correct_response,count_ISI,count_break1,count_break_2,count_correct_feedback,count_credits,count_experiment,count_experimentLoop,count_fixation,count_incorrect_feedback,count_instructions1a,count_instructions1b,count_instructions2,count_keyboard_response,count_memory_set,count_new_logger,count_osweb,count_practiceLoop,count_practiceSequence,count_probe,count_thankYou,date_startdate,date_startdateUTC,date_starttime,datetime,description,disable_garbage_collection,experiment_debug,experiment_parameters,experiment_path,experiment_pilot,experiment_taskname,experiment_taskversion,font_bold,font_family,font_italic,font_size,font_underline,foreground,form_clicks,fullscreen,height,jatosStudyResultId,jatosVersion,keyboard_backend,mouse_backend,numberSet,opensesame_codename,opensesame_version,penwidth,posInSet,present,queryParams_batchId,queryParams_generalMultiple,repeat_cycle,response,response_break1,response_break_2,response_instructions1a,response_instructions1b,response_instructions2,response_keyboard_response,response_time,response_time_break1,response_time_break_2,response_time_instructions1a,response_time_instructions1b,response_time_instructions2,response_time_keyboard_response,round_decimals,sampler_backend,screen_availableHeight,screen_availableWidth,screen_colorDepth,screen_height,screen_pixelDepth,screen_screenX,screen_screenY,screen_width,sessionid,setSize,sound_buf_size,sound_channels,sound_freq,sound_sample_size,start,subject_nr,subject_parity,system_os,target,time_ISI,time_break1,time_break_2,time_correct_feedback,time_experimentLoop,time_fixation,time_incorrect_feedback,time_instructions1a,time_instructions1b,time_instructions2,time_keyboard_response,time_memory_set,time_new_logger,time_practiceLoop,time_probe,title,total_correct,total_response_time,total_responses,uniform_coordinates,width
0,0,2012,2012,black,no,practice,Mozilla,Netscape,"5.0 (Macintosh; Intel Mac OS X 10_15_7) AppleWebKit/605.1.15 (KHTML, like Gecko) Version/14.1.2 Safari/605.1.15",legacy,legacy,legacy,0,uniform,0,0,left,0,0,0,0,0,0,0,0,0,0,0,0,0,0,0,0,0,0,0,0,30-08-21,30-08-21,09:17:31,Thu Sep 30 2021 09:17:31 GMT+0200 (CEST),The main experiment item,yes,0,0,/Users/ethan/Documents/GitHub/OpenSesame/Sternberg/experiment_files,0,0,0,no,mono,no,18,no,white,no,no,768,107,3.6.1,legacy,legacy,5,osweb,1.4.0,1,0,n,37,,0,None,,,enter,enter,,None,2012,,,89604,117711,,2012,2,legacy,813,1440,24,900,24,14,27,1440,1632986347566,1,1024,2,48000,-16,experiment,1,odd,MacIntel,3,209677,,,,71,207454,,71,89700,,211682,208465,213695,71,211682,Sternberg_updated,0,2012,1,yes,1024
0,0,2013,2013,black,no,practice,Mozilla,Netscape,"5.0 (Macintosh; Intel Mac OS X 10_15_7) AppleWebKit/605.1.15 (KHTML, like Gecko) Version/14.1.2 Safari/605.1.15",legacy,legacy,legacy,0,uniform,0,0,left,1,1,1,1,0,0,0,1,1,0,0,0,1,1,1,0,0,1,1,0,30-08-21,30-08-21,09:17:31,Thu Sep 30 2021 09:17:31 GMT+0200 (CEST),The main experiment item,yes,0,0,/Users/ethan/Documents/GitHub/OpenSesame/Sternberg/experiment_files,0,0,0,no,mono,no,18,no,white,no,no,768,107,3.6.1,legacy,legacy,2 1,osweb,1.4.0,1,0,n,37,,0,None,,,enter,enter,,None,2014,,,89604,117711,,2014,2,legacy,813,1440,24,900,24,14,27,1440,1632986347566,2,1024,2,48000,-16,experiment,1,odd,MacIntel,5,216981,,,,71,214744,213704,71,89700,,219001,215766,221016,71,219001,Sternberg_updated,0,4026,2,yes,1024
0,0,2012,2012,black,no,practice,Mozilla,Netscape,"5.0 (Macintosh; Intel Mac OS X 10_15_7) AppleWebKit/605.1.15 (KHTML, like Gecko) Version/14.1.2 Safari/605.1.15",legacy,legacy,legacy,0,uniform,0,0,right,2,2,2,2,0,0,0,2,2,0,0,0,2,2,2,0,0,2,2,0,30-08-21,30-08-21,09:17:31,Thu Sep 30 2021 09:17:31 GMT+0200 (CEST),The main experiment item,yes,0,0,/Users/ethan/Documents/GitHub/OpenSesame/Sternberg/experiment_files,0,0,0,no,mono,no,18,no,white,no,no,768,107,3.6.1,legacy,legacy,4 3 1 7 9 8,osweb,1.4.0,1,1,y,37,,0,None,,,enter,enter,,None,2010,,,89604,117711,,2010,2,legacy,813,1440,24,900,24,14,27,1440,1632986347566,6,1024,2,48000,-16,experiment,1,odd,MacIntel,4,224299,,,,71,222076,221022,71,89700,,226306,223088,228316,71,226306,Sternberg_updated,0,6036,3,yes,1024
25,25,1791,1791,black,no,practice,Mozilla,Netscape,"5.0 (Macintosh; Intel Mac OS X 10_15_7) AppleWebKit/605.1.15 (KHTML, like Gecko) Version/14.1.2 Safari/605.1.15",legacy,legacy,legacy,0,uniform,1,1,left,3,3,3,3,0,0,0,3,3,0,0,0,3,3,3,0,0,3,3,0,30-08-21,30-08-21,09:17:31,Thu Sep 30 2021 09:17:31 GMT+0200 (CEST),The main experiment item,yes,0,0,/Users/ethan/Documents/GitHub/OpenSesame/Sternberg/experiment_files,0,0,0,no,mono,no,18,no,white,no,no,768,107,3.6.1,legacy,legacy,9 6 7 4 5,osweb,1.4.0,1,0,n,37,,0,left,,,enter,enter,,left,1128,,,89604,117711,,1128,2,legacy,813,1440,24,900,24,14,27,1440,1632986347566,5,1024,2,48000,-16,experiment,1,odd,MacIntel,3,231588,,,,71,229365,228323,71,89700,,233608,230372,234739,71,233608,Sternberg_updated,1,7164,4,yes,1024
20,20,1627,1627,black,no,practice,Mozilla,Netscape,"5.0 (Macintosh; Intel Mac OS X 10_15_7) AppleWebKit/605.1.15 (KHTML, like Gecko) Version/14.1.2 Safari/605.1.15",legacy,legacy,legacy,0,uniform,0,0,right,4,4,4,4,0,0,0,4,4,0,0,0,4,4,4,0,0,4,4,0,30-08-21,30-08-21,09:17:31,Thu Sep 30 2021 09:17:31 GMT+0200 (CEST),The main experiment item,yes,0,0,/Users/ethan/Documents/GitHub/OpenSesame/Sternberg/experiment_files,0,0,0,no,mono,no,18,no,white,no,no,768,107,3.6.1,legacy,legacy,6,osweb,1.4.0,1,1,y,37,,0,left,,,enter,enter,,left,970,,,89604,117711,,970,2,legacy,813,1440,24,900,24,14,27,1440,1632986347566,1,1024,2,48000,-16,experiment,1,odd,MacIntel,6,238018,,,234743,71,235785,228323,71,89700,,240025,236807,241003,71,240025,Sternberg_updated,1,8134,5,yes,1024
33,33,1529,1529,black,no,practice,Mozilla,Netscape,"5.0 (Macintosh; Intel Mac OS X 10_15_7) AppleWebKit/605.1.15 (KHTML, like Gecko) Version/14.1.2 Safari/605.1.15",legacy,legacy,legacy,0,uniform,1,1,right,5,5,5,5,0,0,0,5,5,0,0,0,5,5,5,0,0,5,5,0,30-08-21,30-08-21,09:17:31,Thu Sep 30 2021 09:17:31 GMT+0200 (CEST),The main experiment item,yes,0,0,/Users/ethan/Documents/GitHub/OpenSesame/Sternberg/experiment_files,0,0,0,no,mono,no,18,no,white,no,no,768,107,3.6.1,legacy,legacy,1 7 9 8 5,osweb,1.4.0,1,4,y,37,,0,right,,,enter,enter,,right,1038,,,89604,117711,,1038,2,legacy,813,1440,24,900,24,14,27,1440,1632986347566,5,1024,2,48000,-16,experiment,1,odd,MacIntel,8,244270,,,234743,71,242047,241007,71,89700,,246290,243054,247336,71,246290,Sternberg_updated,2,9172,6,yes,1024
43,43,1471,1471,black,no,practice,Mozilla,Netscape,"5.0 (Macintosh; Intel Mac OS X 10_15_7) AppleWebKit/605.1.15 (KHTML, like Gecko) Version/14.1.2 Safari/605.1.15",legacy,legacy,legacy,0,uniform,1,1,left,6,6,6,6,0,0,0,6,6,0,0,0,6,6,6,0,0,6,6,0,30-08-21,30-08-21,09:17:31,Thu Sep 30 2021 09:17:31 GMT+0200 (CEST),The main experiment item,yes,0,0,/Users/ethan/Documents/GitHub/OpenSesame/Sternberg/experiment_files,0,0,0,no,mono,no,18,no,white,no,no,768,107,3.6.1,legacy,legacy,4 1 5,osweb,1.4.0,1,0,n,37,,0,left,,,enter,enter,,left,1122,,,89604,117711,,1122,2,legacy,813,1440,24,900,24,14,27,1440,1632986347566,3,1024,2,48000,-16,experiment,1,odd,MacIntel,2,250599,,,247341,71,248379,241007,71,89700,,252606,249387,253733,71,252606,Sternberg_updated,3,10294,7,yes,1024
50,50,1431,1431,black,no,practice,Mozilla,Netscape,"5.0 (Macintosh; Intel Mac OS X 10_15_7) AppleWebKit/605.1.15 (KHTML, like Gecko) Version/14.1.2 Safari/605.1.15",legacy,legacy,legacy,0,uniform,1,1,left,7,7,7,7,0,0,0,7,7,0,0,0,7,7,7,0,0,7,7,0,30-08-21,30-08-21,09:17:31,Thu Sep 30 2021 09:17:31 GMT+0200 (CEST),The main experiment item,yes,0,0,/Users/ethan/Documents/GitHub/OpenSesame/Sternberg/experiment_files,0,0,0,no,mono,no,18,no,white,no,no,768,107,3.6.1,legacy,legacy,3 1 9 4,osweb,1.4.0,1,0,n,37,,0,left,,,enter,enter,,left,1153,,,89604,117711,,1153,2,legacy,813,1440,24,900,24,14,27,1440,1632986347566,4,1024,2,48000,-16,experiment,1,odd,MacIntel,6,257004,,,253738,71,254776,241007,71,89700,,259024,255790,260189,71,259024,Sternberg_updated,4,11447,8,yes,1024
44,44,1339,1339,black,no,practice,Mozilla,Netscape,"5.0 (Macintosh; Intel Mac OS X 10_15_7) AppleWebKit/605.1.15 (KHTML, like Gecko) Version/14.1.2 Safari/605.1.15",legacy,legacy,legacy,0,uniform,0,0,right,8,8,8,8,0,0,0,8,8,0,0,0,8,8,8,0,0,8,8,0,30-08-21,30-08-21,09:17:31,Thu Sep 30 2021 09:17:31 GMT+0200 (CEST),The main experiment item,yes,0,0,/Users/ethan/Documents/GitHub/OpenSesame/Sternberg/experiment_files,0,0,0,no,mono,no,18,no,white,no,no,768,107,3.6.1,legacy,legacy,4 8,osweb,1.4.0,1,1,y,37,,0,left,,,enter,enter,,left,606,,,89604,117711,,606,2,legacy,813,1440,24,900,24,14,27,1440,1632986347566,2,1024,2,48000,-16,experiment,1,odd,MacIntel,4,263452,,,260193,71,261231,241007,71,89700,,265458,262241,266067,71,265458,Sternberg_updated,4,12053,9,yes,1024
40,40,1292,1292,black,no,practice,Mozilla,Netscape,"5.0 (Macintosh; Intel Mac OS X 10_15_7) AppleWebKit/605.1.15 (KHTML, like Gecko) Version/14.1.2 Safari/605.1.15",legacy,legacy,legacy,0,uniform,0,0,left,9,9,9,9,0,0,0,9,9,0,0,0,9,9,9,0,0,9,9,0,30-08-21,30-08-21,09:17:31,Thu Sep 30 2021 09:17:31 GMT+0200 (CEST),The main experiment item,yes,0,0,/Users/ethan/Documents/GitHub/OpenSesame/Sternberg/experiment_files,0,0,0,no,mono,no,18,no,white,no,no,768,107,3.6.1,legacy,legacy,5 7 8 4 1 2,osweb,1.4.0,1,0,n,37,,0,right,,,enter,enter,,right,871,,,89604,117711,,871,2,legacy,813,1440,24,900,24,14,27,1440,1632986347566,6,1024,2,48000,-16,experiment,1,odd,MacIntel,6,269335,,,260193,71,267110,266071,71,89700,,271351,268124,272232,71,271351,Sternberg_updated,4,12924,10,yes,1024
45,45,1259,1259,black,no,practice,Mozilla,Netscape,"5.0 (Macintosh; Intel Mac OS X 10_15_7) AppleWebKit/605.1.15 (KHTML, like Gecko) Version/14.1.2 Safari/605.1.15",legacy,legacy,legacy,0,uniform,1,1,right,10,10,10,10,0,0,0,10,10,0,0,0,10,10,10,0,0,10,10,0,30-08-21,30-08-21,09:17:31,Thu Sep 30 2021 09:17:31 GMT+0200 (CEST),The main experiment item,yes,0,0,/Users/ethan/Documents/GitHub/OpenSesame/Sternberg/experiment_files,0,0,0,no,mono,no,18,no,white,no,no,768,107,3.6.1,legacy,legacy,2 9 4,osweb,1.4.0,1,3,y,37,,0,right,,,enter,enter,,right,929,,,89604,117711,,929,2,legacy,813,1440,24,900,24,14,27,1440,1632986347566,3,1024,2,48000,-16,experiment,1,odd,MacIntel,4,275498,,,260193,71,273272,272236,71,89700,,277505,274285,278448,71,277505,Sternberg_updated,5,13853,11,yes,1024
42,42,1322,1322,black,no,practice,Mozilla,Netscape,"5.0 (Macintosh; Intel Mac OS X 10_15_7) AppleWebKit/605.1.15 (KHTML, like Gecko) Version/14.1.2 Safari/605.1.15",legacy,legacy,legacy,0,uniform,0,0,right,11,11,11,11,0,0,0,11,11,0,0,0,11,11,11,0,0,11,11,0,30-08-21,30-08-21,09:17:31,Thu Sep 30 2021 09:17:31 GMT+0200 (CEST),The main experiment item,yes,0,0,/Users/ethan/Documents/GitHub/OpenSesame/Sternberg/experiment_files,0,0,0,no,mono,no,18,no,white,no,no,768,107,3.6.1,legacy,legacy,1 5 2 9,osweb,1.4.0,1,2,y,37,,0,None,,,enter,enter,,None,2013,,,89604,117711,,2013,2,legacy,813,1440,24,900,24,14,27,1440,1632986347566,4,1024,2,48000,-16,experiment,1,odd,MacIntel,5,281722,,,278454,71,279495,272236,71,89700,,283742,280505,285755,71,283742,Sternberg_updated,5,15866,12,yes,1024
46,46,1305,1305,black,no,experiment,Mozilla,Netscape,"5.0 (Macintosh; Intel Mac OS X 10_15_7) AppleWebKit/605.1.15 (KHTML, like Gecko) Version/14.1.2 Safari/605.1.15",legacy,legacy,legacy,0,uniform,1,1,left,12,12,12,12,0,0,0,12,12,0,0,0,12,12,12,0,0,12,12,0,30-08-21,30-08-21,09:17:31,Thu Sep 30 2021 09:17:31 GMT+0200 (CEST),The main experiment item,yes,0,0,/Users/ethan/Documents/GitHub/OpenSesame/Sternberg/experiment_files,0,0,0,no,mono,no,18,no,white,no,no,768,107,3.6.1,legacy,legacy,6 9 5,osweb,1.4.0,1,0,n,37,,0,left,,,enter,enter,right,left,1105,,,89604,117711,22390,1105,2,legacy,813,1440,24,900,24,14,27,1440,1632986347566,3,1024,2,48000,-16,experiment,1,odd,MacIntel,8,311438,,,278454,71,309218,285760,71,89700,286794,313444,310226,314554,71,313444,Sternberg_updated,6,16971,13,yes,1024
50,50,1288,1288,black,no,experiment,Mozilla,Netscape,"5.0 (Macintosh; Intel Mac OS X 10_15_7) AppleWebKit/605.1.15 (KHTML, like Gecko) Version/14.1.2 Safari/605.1.15",legacy,legacy,legacy,0,uniform,1,1,right,13,13,13,13,0,0,0,13,13,0,0,0,13,13,13,0,0,13,13,0,30-08-21,30-08-21,09:17:31,Thu Sep 30 2021 09:17:31 GMT+0200 (CEST),The main experiment item,yes,0,0,/Users/ethan/Documents/GitHub/OpenSesame/Sternberg/experiment_files,0,0,0,no,mono,no,18,no,white,no,no,768,107,3.6.1,legacy,legacy,7 1 3,osweb,1.4.0,1,2,y,37,,0,right,,,enter,enter,right,right,1058,,,89604,117711,22390,1058,2,legacy,813,1440,24,900,24,14,27,1440,1632986347566,3,1024,2,48000,-16,experiment,1,odd,MacIntel,1,317825,,,314558,71,315598,285760,71,89700,286794,319843,316608,320907,71,319843,Sternberg_updated,7,18029,14,yes,1024
53,53,1270,1270,black,no,experiment,Mozilla,Netscape,"5.0 (Macintosh; Intel Mac OS X 10_15_7) AppleWebKit/605.1.15 (KHTML, like Gecko) Version/14.1.2 Safari/605.1.15",legacy,legacy,legacy,0,uniform,1,1,left,14,14,14,14,0,0,0,14,14,0,0,0,14,14,14,0,0,14,14,0,30-08-21,30-08-21,09:17:31,Thu Sep 30 2021 09:17:31 GMT+0200 (CEST),The main experiment item,yes,0,0,/Users/ethan/Documents/GitHub/OpenSesame/Sternberg/experiment_files,0,0,0,no,mono,no,18,no,white,no,no,768,107,3.6.1,legacy,legacy,8 4 3 9,osweb,1.4.0,1,0,n,37,,0,left,,,enter,enter,right,left,1028,,,89604,117711,22390,1028,2,legacy,813,1440,24,900,24,14,27,1440,1632986347566,4,1024,2,48000,-16,experiment,1,odd,MacIntel,5,324176,,,320911,71,321945,285760,71,89700,286794,326186,322960,327217,71,326185,Sternberg_updated,8,19057,15,yes,1024
56,56,1287,1287,black,no,experiment,Mozilla,Netscape,"5.0 (Macintosh; Intel Mac OS X 10_15_7) AppleWebKit/605.1.15 (KHTML, like Gecko) Version/14.1.2 Safari/605.1.15",legacy,legacy,legacy,0,uniform,1,1,left,15,15,15,15,0,0,0,15,15,0,0,0,15,15,15,0,0,15,15,0,30-08-21,30-08-21,09:17:31,Thu Sep 30 2021 09:17:31 GMT+0200 (CEST),The main experiment item,yes,0,0,/Users/ethan/Documents/GitHub/OpenSesame/Sternberg/experiment_files,0,0,0,no,mono,no,18,no,white,no,no,768,107,3.6.1,legacy,legacy,1 6 4 3 9 7,osweb,1.4.0,1,0,n,37,,0,left,,,enter,enter,right,left,1531,,,89604,117711,22390,1531,2,legacy,813,1440,24,900,24,14,27,1440,1632986347566,6,1024,2,48000,-16,experiment,1,odd,MacIntel,8,330506,,,327221,71,328282,285760,71,89700,286794,332527,329303,334065,71,332527,Sternberg_updated,9,20588,16,yes,1024
59,59,1279,1279,black,no,experiment,Mozilla,Netscape,"5.0 (Macintosh; Intel Mac OS X 10_15_7) AppleWebKit/605.1.15 (KHTML, like Gecko) Version/14.1.2 Safari/605.1.15",legacy,legacy,legacy,0,uniform,1,1,left,16,16,16,16,0,0,0,16,16,0,0,0,16,16,16,0,0,16,16,0,30-08-21,30-08-21,09:17:31,Thu Sep 30 2021 09:17:31 GMT+0200 (CEST),The main experiment item,yes,0,0,/Users/ethan/Documents/GitHub/OpenSesame/Sternberg/experiment_files,0,0,0,no,mono,no,18,no,white,no,no,768,107,3.6.1,legacy,legacy,1 4 9 2 5,osweb,1.4.0,1,0,n,37,,0,left,,,enter,enter,right,left,1147,,,89604,117711,22390,1147,2,legacy,813,1440,24,900,24,14,27,1440,1632986347566,5,1024,2,48000,-16,experiment,1,odd,MacIntel,7,337358,,,334069,71,335129,285760,71,89700,286794,339364,336141,340512,71,339364,Sternberg_updated,10,21735,17,yes,1024
61,61,1279,1279,black,no,experiment,Mozilla,Netscape,"5.0 (Macintosh; Intel Mac OS X 10_15_7) AppleWebKit/605.1.15 (KHTML, like Gecko) Version/14.1.2 Safari/605.1.15",legacy,legacy,legacy,0,uniform,1,1,left,17,17,17,17,0,0,0,17,17,0,0,0,17,17,17,0,0,17,17,0,30-08-21,30-08-21,09:17:31,Thu Sep 30 2021 09:17:31 GMT+0200 (CEST),The main experiment item,yes,0,0,/Users/ethan/Documents/GitHub/OpenSesame/Sternberg/experiment_files,0,0,0,no,mono,no,18,no,white,no,no,768,107,3.6.1,legacy,legacy,2 8 9,osweb,1.4.0,1,0,n,37,,0,left,,,enter,enter,right,left,1292,,,89604,117711,22390,1292,2,legacy,813,1440,24,900,24,14,27,1440,1632986347566,3,1024,2,48000,-16,experiment,1,odd,MacIntel,6,343770,,,340518,71,341555,285760,71,89700,286794,345781,342568,347074,71,345781,Sternberg_updated,11,23027,18,yes,1024
63,63,1262,1262,black,no,experiment,Mozilla,Netscape,"5.0 (Macintosh; Intel Mac OS X 10_15_7) AppleWebKit/605.1.15 (KHTML, like Gecko) Version/14.1.2 Safari/605.1.15",legacy,legacy,legacy,0,uniform,1,1,right,18,18,18,18,0,0,0,18,18,0,0,0,18,18,18,0,0,18,18,0,30-08-21,30-08-21,09:17:31,Thu Sep 30 2021 09:17:31 GMT+0200 (CEST),The main experiment item,yes,0,0,/Users/ethan/Documents/GitHub/OpenSesame/Sternberg/experiment_files,0,0,0,no,mono,no,18,no,white,no,no,768,107,3.6.1,legacy,legacy,4 6 5 8,osweb,1.4.0,1,1,y,37,,0,right,,,enter,enter,right,right,946,,,89604,117711,22390,946,2,legacy,813,1440,24,900,24,14,27,1440,1632986347566,4,1024,2,48000,-16,experiment,1,odd,MacIntel,4,350338,,,347078,71,348118,285760,71,89700,286794,352346,349126,353308,71,352346,Sternberg_updated,12,23973,19,yes,1024
65,65,1248,1248,black,no,experiment,Mozilla,Netscape,"5.0 (Macintosh; Intel Mac OS X 10_15_7) AppleWebKit/605.1.15 (KHTML, like Gecko) Version/14.1.2 Safari/605.1.15",legacy,legacy,legacy,0,uniform,1,1,right,19,19,19,19,0,0,0,19,19,0,0,0,19,19,19,0,0,19,19,0,30-08-21,30-08-21,09:17:31,Thu Sep 30 2021 09:17:31 GMT+0200 (CEST),The main experiment item,yes,0,0,/Users/ethan/Documents/GitHub/OpenSesame/Sternberg/experiment_files,0,0,0,no,mono,no,18,no,white,no,no,768,107,3.6.1,legacy,legacy,6 7 9 3 1 2,osweb,1.4.0,1,1,y,37,,0,right,,,enter,enter,right,right,983,,,89604,117711,22390,983,2,legacy,813,1440,24,900,24,14,27,1440,1632986347566,6,1024,2,48000,-16,experiment,1,odd,MacIntel,6,356577,,,353314,71,354357,285760,71,89700,286794,358598,355363,359596,71,358598,Sternberg_updated,13,24956,20,yes,1024
67,67,1259,1259,black,no,experiment,Mozilla,Netscape,"5.0 (Macintosh; Intel Mac OS X 10_15_7) AppleWebKit/605.1.15 (KHTML, like Gecko) Version/14.1.2 Safari/605.1.15",legacy,legacy,legacy,0,uniform,1,1,right,20,20,20,20,0,0,0,20,20,0,0,0,20,20,20,0,0,20,20,0,30-08-21,30-08-21,09:17:31,Thu Sep 30 2021 09:17:31 GMT+0200 (CEST),The main experiment item,yes,0,0,/Users/ethan/Documents/GitHub/OpenSesame/Sternberg/experiment_files,0,0,0,no,mono,no,18,no,white,no,no,768,107,3.6.1,legacy,legacy,3 4 9 6 2 9,osweb,1.4.0,1,5,y,37,,0,right,,,enter,enter,right,right,1486,,,89604,117711,22390,1486,2,legacy,813,1440,24,900,24,14,27,1440,1632986347566,6,1024,2,48000,-16,experiment,1,odd,MacIntel,2,362863,,,359601,71,360638,285760,71,89700,286794,364870,361651,366364,71,364869,Sternberg_updated,14,26442,21,yes,1024
68,68,1261,1261,black,no,experiment,Mozilla,Netscape,"5.0 (Macintosh; Intel Mac OS X 10_15_7) AppleWebKit/605.1.15 (KHTML, like Gecko) Version/14.1.2 Safari/605.1.15",legacy,legacy,legacy,0,uniform,1,1,right,21,21,21,21,0,0,0,21,21,0,0,0,21,21,21,0,0,21,21,0,30-08-21,30-08-21,09:17:31,Thu Sep 30 2021 09:17:31 GMT+0200 (CEST),The main experiment item,yes,0,0,/Users/ethan/Documents/GitHub/OpenSesame/Sternberg/experiment_files,0,0,0,no,mono,no,18,no,white,no,no,768,107,3.6.1,legacy,legacy,3 5 4 7,osweb,1.4.0,1,1,y,37,,0,right,,,enter,enter,right,right,1305,,,89604,117711,22390,1305,2,legacy,813,1440,24,900,24,14,27,1440,1632986347566,4,1024,2,48000,-16,experiment,1,odd,MacIntel,3,369634,,,366368,71,367405,285760,71,89700,286794,371653,368417,372968,71,371653,Sternberg_updated,15,27747,22,yes,1024
70,70,1243,1243,black,no,experiment,Mozilla,Netscape,"5.0 (Macintosh; Intel Mac OS X 10_15_7) AppleWebKit/605.1.15 (KHTML, like Gecko) Version/14.1.2 Safari/605.1.15",legacy,legacy,legacy,0,uniform,1,1,right,22,22,22,22,0,0,0,22,22,0,0,0,22,22,22,0,0,22,22,0,30-08-21,30-08-21,09:17:31,Thu Sep 30 2021 09:17:31 GMT+0200 (CEST),The main experiment item,yes,0,0,/Users/ethan/Documents/GitHub/OpenSesame/Sternberg/experiment_files,0,0,0,no,mono,no,18,no,white,no,no,768,107,3.6.1,legacy,legacy,6 1 2,osweb,1.4.0,1,3,y,37,,0,right,,,enter,enter,right,right,851,,,89604,117711,22390,851,2,legacy,813,1440,24,900,24,14,27,1440,1632986347566,3,1024,2,48000,-16,experiment,1,odd,MacIntel,2,376234,,,372971,71,374007,285760,71,89700,286794,378241,375021,379102,71,378241,Sternberg_updated,16,28598,23,yes,1024
71,71,1243,1243,black,no,experiment,Mozilla,Netscape,"5.0 (Macintosh; Intel Mac OS X 10_15_7) AppleWebKit/605.1.15 (KHTML, like Gecko) Version/14.1.2 Safari/605.1.15",legacy,legacy,legacy,0,uniform,1,1,left,23,23,23,23,0,0,0,23,23,0,0,0,23,23,23,0,0,23,23,0,30-08-21,30-08-21,09:17:31,Thu Sep 30 2021 09:17:31 GMT+0200 (CEST),The main experiment item,yes,0,0,/Users/ethan/Documents/GitHub/OpenSesame/Sternberg/experiment_files,0,0,0,no,mono,no,18,no,white,no,no,768,107,3.6.1,legacy,legacy,8 5 4 2 9 6,osweb,1.4.0,1,0,n,37,,0,left,,,enter,enter,right,left,1238,,,89604,117711,22390,1238,2,legacy,813,1440,24,900,24,14,27,1440,1632986347566,6,1024,2,48000,-16,experiment,1,odd,MacIntel,3,382376,,,379106,71,380144,285760,71,89700,286794,384396,381159,385643,71,384396,Sternberg_updated,17,29836,24,yes,1024
72,72,1241,1241,black,no,experiment,Mozilla,Netscape,"5.0 (Macintosh; Intel Mac OS X 10_15_7) AppleWebKit/605.1.15 (KHTML, like Gecko) Version/14.1.2 Safari/605.1.15",legacy,legacy,legacy,0,uniform,1,1,left,24,24,24,24,0,0,0,24,24,0,0,0,24,24,24,0,0,24,24,0,30-08-21,30-08-21,09:17:31,Thu Sep 30 2021 09:17:31 GMT+0200 (CEST),The main experiment item,yes,0,0,/Users/ethan/Documents/GitHub/OpenSesame/Sternberg/experiment_files,0,0,0,no,mono,no,18,no,white,no,no,768,107,3.6.1,legacy,legacy,7 4 2 8 1 9,osweb,1.4.0,1,0,n,37,,0,left,,,enter,enter,right,left,1181,,,89604,117711,22390,1181,2,legacy,813,1440,24,900,24,14,27,1440,1632986347566,6,1024,2,48000,-16,experiment,1,odd,MacIntel,5,388905,,,385647,71,386682,285760,71,89700,286794,390913,387698,392108,71,390913,Sternberg_updated,18,31017,25,yes,1024
73,73,1257,1257,black,no,experiment,Mozilla,Netscape,"5.0 (Macintosh; Intel Mac OS X 10_15_7) AppleWebKit/605.1.15 (KHTML, like Gecko) Version/14.1.2 Safari/605.1.15",legacy,legacy,legacy,0,uniform,1,1,left,25,25,25,25,0,0,0,25,25,0,0,0,25,25,25,0,0,25,25,0,30-08-21,30-08-21,09:17:31,Thu Sep 30 2021 09:17:31 GMT+0200 (CEST),The main experiment item,yes,0,0,/Users/ethan/Documents/GitHub/OpenSesame/Sternberg/experiment_files,0,0,0,no,mono,no,18,no,white,no,no,768,107,3.6.1,legacy,legacy,4 8 1 2,osweb,1.4.0,1,0,n,37,,0,left,,,enter,enter,right,left,1655,,,89604,117711,22390,1655,2,legacy,813,1440,24,900,24,14,27,1440,1632986347566,4,1024,2,48000,-16,experiment,1,odd,MacIntel,7,395385,,,392114,71,393154,285760,71,89700,286794,397402,394170,399065,71,397402,Sternberg_updated,19,32672,26,yes,1024
74,74,1259,1259,black,no,experiment,Mozilla,Netscape,"5.0 (Macintosh; Intel Mac OS X 10_15_7) AppleWebKit/605.1.15 (KHTML, like Gecko) Version/14.1.2 Safari/605.1.15",legacy,legacy,legacy,0,uniform,1,1,left,26,26,26,26,0,0,0,26,26,0,0,0,26,26,26,0,0,26,26,0,30-08-21,30-08-21,09:17:31,Thu Sep 30 2021 09:17:31 GMT+0200 (CEST),The main experiment item,yes,0,0,/Users/ethan/Documents/GitHub/OpenSesame/Sternberg/experiment_files,0,0,0,no,mono,no,18,no,white,no,no,768,107,3.6.1,legacy,legacy,8 9,osweb,1.4.0,1,0,n,37,,0,left,,,enter,enter,right,left,1319,,,89604,117711,22390,1319,2,legacy,813,1440,24,900,24,14,27,1440,1632986347566,2,1024,2,48000,-16,experiment,1,odd,MacIntel,5,402330,,,399070,71,400102,285760,71,89700,286794,404337,401119,405665,71,404337,Sternberg_updated,20,33991,27,yes,1024
75,75,1248,1248,black,no,experiment,Mozilla,Netscape,"5.0 (Macintosh; Intel Mac OS X 10_15_7) AppleWebKit/605.1.15 (KHTML, like Gecko) Version/14.1.2 Safari/605.1.15",legacy,legacy,legacy,0,uniform,1,1,left,27,27,27,27,0,0,0,27,27,0,0,0,27,27,27,0,0,27,27,0,30-08-21,30-08-21,09:17:31,Thu Sep 30 2021 09:17:31 GMT+0200 (CEST),The main experiment item,yes,0,0,/Users/ethan/Documents/GitHub/OpenSesame/Sternberg/experiment_files,0,0,0,no,mono,no,18,no,white,no,no,768,107,3.6.1,legacy,legacy,5 9 2 3,osweb,1.4.0,1,0,n,37,,0,left,,,enter,enter,right,left,960,,,89604,117711,22390,960,2,legacy,813,1440,24,900,24,14,27,1440,1632986347566,4,1024,2,48000,-16,experiment,1,odd,MacIntel,8,408949,,,405669,71,406715,285760,71,89700,286794,410979,407735,411949,71,410979,Sternberg_updated,21,34951,28,yes,1024
76,76,1242,1242,black,no,experiment,Mozilla,Netscape,"5.0 (Macintosh; Intel Mac OS X 10_15_7) AppleWebKit/605.1.15 (KHTML, like Gecko) Version/14.1.2 Safari/605.1.15",legacy,legacy,legacy,0,uniform,1,1,right,28,28,28,28,0,0,0,28,28,0,0,0,28,28,28,0,0,28,28,0,30-08-21,30-08-21,09:17:31,Thu Sep 30 2021 09:17:31 GMT+0200 (CEST),The main experiment item,yes,0,0,/Users/ethan/Documents/GitHub/OpenSesame/Sternberg/experiment_files,0,0,0,no,mono,no,18,no,white,no,no,768,107,3.6.1,legacy,legacy,4 7 6 8 2 3,osweb,1.4.0,1,6,y,37,,0,right,,,enter,enter,right,right,1063,,,89604,117711,22390,1063,2,legacy,813,1440,24,900,24,14,27,1440,1632986347566,6,1024,2,48000,-16,experiment,1,odd,MacIntel,3,415215,,,411954,71,412988,285760,71,89700,286794,417221,414001,418299,71,417221,Sternberg_updated,22,36014,29,yes,1024
77,77,1242,1242,black,no,experiment,Mozilla,Netscape,"5.0 (Macintosh; Intel Mac OS X 10_15_7) AppleWebKit/605.1.15 (KHTML, like Gecko) Version/14.1.2 Safari/605.1.15",legacy,legacy,legacy,0,uniform,1,1,left,29,29,29,29,0,0,0,29,29,0,0,0,29,29,29,0,0,29,29,0,30-08-21,30-08-21,09:17:31,Thu Sep 30 2021 09:17:31 GMT+0200 (CEST),The main experiment item,yes,0,0,/Users/ethan/Documents/GitHub/OpenSesame/Sternberg/experiment_files,0,0,0,no,mono,no,18,no,white,no,no,768,107,3.6.1,legacy,legacy,2 8 6 3 1,osweb,1.4.0,1,0,n,37,,0,left,,,enter,enter,right,left,1234,,,89604,117711,22390,1234,2,legacy,813,1440,24,900,24,14,27,1440,1632986347566,5,1024,2,48000,-16,experiment,1,odd,MacIntel,7,421577,,,418305,71,419343,285760,71,89700,286794,423597,420362,424845,71,423597,Sternberg_updated,23,37248,30,yes,1024
77,77,1231,1231,black,no,experiment,Mozilla,Netscape,"5.0 (Macintosh; Intel Mac OS X 10_15_7) AppleWebKit/605.1.15 (KHTML, like Gecko) Version/14.1.2 Safari/605.1.15",legacy,legacy,legacy,0,uniform,1,1,right,30,30,30,30,0,0,0,30,30,0,0,0,30,30,30,0,0,30,30,0,30-08-21,30-08-21,09:17:31,Thu Sep 30 2021 09:17:31 GMT+0200 (CEST),The main experiment item,yes,0,0,/Users/ethan/Documents/GitHub/OpenSesame/Sternberg/experiment_files,0,0,0,no,mono,no,18,no,white,no,no,768,107,3.6.1,legacy,legacy,4,osweb,1.4.0,1,1,y,37,,0,right,,,enter,enter,right,right,909,,,89604,117711,22390,909,2,legacy,813,1440,24,900,24,14,27,1440,1632986347566,1,1024,2,48000,-16,experiment,1,odd,MacIntel,4,428115,,,424851,71,425885,285760,71,89700,286794,430121,426902,431032,71,430121,Sternberg_updated,24,38157,31,yes,1024
78,78,1219,1219,black,no,experiment,Mozilla,Netscape,"5.0 (Macintosh; Intel Mac OS X 10_15_7) AppleWebKit/605.1.15 (KHTML, like Gecko) Version/14.1.2 Safari/605.1.15",legacy,legacy,legacy,0,uniform,1,1,right,31,31,31,31,0,0,0,31,31,0,0,0,31,31,31,0,0,31,31,0,30-08-21,30-08-21,09:17:31,Thu Sep 30 2021 09:17:31 GMT+0200 (CEST),The main experiment item,yes,0,0,/Users/ethan/Documents/GitHub/OpenSesame/Sternberg/experiment_files,0,0,0,no,mono,no,18,no,white,no,no,768,107,3.6.1,legacy,legacy,2 3,osweb,1.4.0,1,1,y,37,,0,right,,,enter,enter,right,right,859,,,89604,117711,22390,859,2,legacy,813,1440,24,900,24,14,27,1440,1632986347566,2,1024,2,48000,-16,experiment,1,odd,MacIntel,2,434302,,,431035,71,432070,285760,71,89700,286794,436321,433085,437185,71,436320,Sternberg_updated,25,39016,32,yes,1024
79,79,1230,1230,black,no,experiment,Mozilla,Netscape,"5.0 (Macintosh; Intel Mac OS X 10_15_7) AppleWebKit/605.1.15 (KHTML, like Gecko) Version/14.1.2 Safari/605.1.15",legacy,legacy,legacy,0,uniform,1,1,left,32,32,32,32,0,0,0,32,32,0,0,0,32,32,32,0,0,32,32,0,30-08-21,30-08-21,09:17:31,Thu Sep 30 2021 09:17:31 GMT+0200 (CEST),The main experiment item,yes,0,0,/Users/ethan/Documents/GitHub/OpenSesame/Sternberg/experiment_files,0,0,0,no,mono,no,18,no,white,no,no,768,107,3.6.1,legacy,legacy,6 8 4,osweb,1.4.0,1,0,n,37,,0,left,,,enter,enter,right,left,1561,,,89604,117711,22390,1561,2,legacy,813,1440,24,900,24,14,27,1440,1632986347566,3,1024,2,48000,-16,experiment,1,odd,MacIntel,1,440450,,,437188,71,438222,285760,71,89700,286794,442457,439238,444035,71,442457,Sternberg_updated,26,40577,33,yes,1024
79,79,1221,1221,black,no,experiment,Mozilla,Netscape,"5.0 (Macintosh; Intel Mac OS X 10_15_7) AppleWebKit/605.1.15 (KHTML, like Gecko) Version/14.1.2 Safari/605.1.15",legacy,legacy,legacy,0,uniform,1,1,right,33,33,33,33,0,0,0,33,33,0,0,0,33,33,33,0,0,33,33,0,30-08-21,30-08-21,09:17:31,Thu Sep 30 2021 09:17:31 GMT+0200 (CEST),The main experiment item,yes,0,0,/Users/ethan/Documents/GitHub/OpenSesame/Sternberg/experiment_files,0,0,0,no,mono,no,18,no,white,no,no,768,107,3.6.1,legacy,legacy,8 9 5 6 7,osweb,1.4.0,1,1,y,37,,0,right,,,enter,enter,right,right,942,,,89604,117711,22390,942,2,legacy,813,1440,24,900,24,14,27,1440,1632986347566,5,1024,2,48000,-16,experiment,1,odd,MacIntel,8,447309,,,444040,71,445078,285760,71,89700,286794,449322,446094,450272,71,449322,Sternberg_updated,27,41519,34,yes,1024
80,80,1214,1214,black,no,experiment,Mozilla,Netscape,"5.0 (Macintosh; Intel Mac OS X 10_15_7) AppleWebKit/605.1.15 (KHTML, like Gecko) Version/14.1.2 Safari/605.1.15",legacy,legacy,legacy,0,uniform,1,1,left,34,34,34,34,0,0,0,34,34,0,0,0,34,34,34,0,0,34,34,0,30-08-21,30-08-21,09:17:31,Thu Sep 30 2021 09:17:31 GMT+0200 (CEST),The main experiment item,yes,0,0,/Users/ethan/Documents/GitHub/OpenSesame/Sternberg/experiment_files,0,0,0,no,mono,no,18,no,white,no,no,768,107,3.6.1,legacy,legacy,1 7 8 3 9,osweb,1.4.0,1,0,n,37,,0,left,,,enter,enter,right,left,985,,,89604,117711,22390,985,2,legacy,813,1440,24,900,24,14,27,1440,1632986347566,5,1024,2,48000,-16,experiment,1,odd,MacIntel,2,453539,,,450276,71,451312,285760,71,89700,286794,455545,452328,456540,71,455545,Sternberg_updated,28,42504,35,yes,1024
81,81,1207,1207,black,no,experiment,Mozilla,Netscape,"5.0 (Macintosh; Intel Mac OS X 10_15_7) AppleWebKit/605.1.15 (KHTML, like Gecko) Version/14.1.2 Safari/605.1.15",legacy,legacy,legacy,0,uniform,1,1,right,35,35,35,35,0,0,0,35,35,0,0,0,35,35,35,0,0,35,35,0,30-08-21,30-08-21,09:17:31,Thu Sep 30 2021 09:17:31 GMT+0200 (CEST),The main experiment item,yes,0,0,/Users/ethan/Documents/GitHub/OpenSesame/Sternberg/experiment_files,0,0,0,no,mono,no,18,no,white,no,no,768,107,3.6.1,legacy,legacy,3 9 7 6 4,osweb,1.4.0,1,3,y,37,,0,right,,,enter,enter,right,right,932,,,89604,117711,22390,932,2,legacy,813,1440,24,900,24,14,27,1440,1632986347566,5,1024,2,48000,-16,experiment,1,odd,MacIntel,7,459811,,,456544,71,457580,285760,71,89700,286794,461829,458596,462779,71,461829,Sternberg_updated,29,43436,36,yes,1024
81,81,1197,1197,black,no,experiment,Mozilla,Netscape,"5.0 (Macintosh; Intel Mac OS X 10_15_7) AppleWebKit/605.1.15 (KHTML, like Gecko) Version/14.1.2 Safari/605.1.15",legacy,legacy,legacy,0,uniform,1,1,right,36,36,36,36,0,0,0,36,36,0,0,0,36,36,36,0,0,36,36,0,30-08-21,30-08-21,09:17:31,Thu Sep 30 2021 09:17:31 GMT+0200 (CEST),The main experiment item,yes,0,0,/Users/ethan/Documents/GitHub/OpenSesame/Sternberg/experiment_files,0,0,0,no,mono,no,18,no,white,no,no,768,107,3.6.1,legacy,legacy,7 6,osweb,1.4.0,1,2,y,37,,0,right,,,enter,enter,right,right,861,,,89604,117711,22390,861,2,legacy,813,1440,24,900,24,14,27,1440,1632986347566,2,1024,2,48000,-16,experiment,1,odd,MacIntel,6,466064,,,462784,71,463831,285760,71,89700,286794,468071,464852,468948,71,468071,Sternberg_updated,30,44297,37,yes,1024
82,82,1186,1186,black,no,experiment,Mozilla,Netscape,"5.0 (Macintosh; Intel Mac OS X 10_15_7) AppleWebKit/605.1.15 (KHTML, like Gecko) Version/14.1.2 Safari/605.1.15",legacy,legacy,legacy,0,uniform,1,1,right,37,37,37,37,0,0,0,37,37,0,0,0,37,37,37,0,0,37,37,0,30-08-21,30-08-21,09:17:31,Thu Sep 30 2021 09:17:31 GMT+0200 (CEST),The main experiment item,yes,0,0,/Users/ethan/Documents/GitHub/OpenSesame/Sternberg/experiment_files,0,0,0,no,mono,no,18,no,white,no,no,768,107,3.6.1,legacy,legacy,2 6 1 7 4,osweb,1.4.0,1,2,y,37,,0,right,,,enter,enter,right,right,760,,,89604,117711,22390,760,2,legacy,813,1440,24,900,24,14,27,1440,1632986347566,5,1024,2,48000,-16,experiment,1,odd,MacIntel,6,472215,,,468951,71,469987,285760,71,89700,286794,474235,471000,474999,71,474235,Sternberg_updated,31,45057,38,yes,1024
82,82,1180,1180,black,no,experiment,Mozilla,Netscape,"5.0 (Macintosh; Intel Mac OS X 10_15_7) AppleWebKit/605.1.15 (KHTML, like Gecko) Version/14.1.2 Safari/605.1.15",legacy,legacy,legacy,0,uniform,1,1,right,38,38,38,38,0,0,0,38,38,0,0,0,38,38,38,0,0,38,38,0,30-08-21,30-08-21,09:17:31,Thu Sep 30 2021 09:17:31 GMT+0200 (CEST),The main experiment item,yes,0,0,/Users/ethan/Documents/GitHub/OpenSesame/Sternberg/experiment_files,0,0,0,no,mono,no,18,no,white,no,no,768,107,3.6.1,legacy,legacy,9 1 6 7 8,osweb,1.4.0,1,1,y,37,,0,right,,,enter,enter,right,right,944,,,89604,117711,22390,944,2,legacy,813,1440,24,900,24,14,27,1440,1632986347566,5,1024,2,48000,-16,experiment,1,odd,MacIntel,9,478267,,,475002,71,476035,285760,71,89700,286794,480273,477054,481235,71,480273,Sternberg_updated,32,46001,39,yes,1024
83,83,1186,1186,black,no,experiment,Mozilla,Netscape,"5.0 (Macintosh; Intel Mac OS X 10_15_7) AppleWebKit/605.1.15 (KHTML, like Gecko) Version/14.1.2 Safari/605.1.15",legacy,legacy,legacy,0,uniform,1,1,left,39,39,39,39,0,0,0,39,39,0,0,0,39,39,39,0,0,39,39,0,30-08-21,30-08-21,09:17:31,Thu Sep 30 2021 09:17:31 GMT+0200 (CEST),The main experiment item,yes,0,0,/Users/ethan/Documents/GitHub/OpenSesame/Sternberg/experiment_files,0,0,0,no,mono,no,18,no,white,no,no,768,107,3.6.1,legacy,legacy,8 5 7 3 6,osweb,1.4.0,1,0,n,37,,0,left,,,enter,enter,right,left,1422,,,89604,117711,22390,1422,2,legacy,813,1440,24,900,24,14,27,1440,1632986347566,5,1024,2,48000,-16,experiment,1,odd,MacIntel,9,484510,,,481240,71,482278,285760,71,89700,286794,486530,483294,487961,71,486530,Sternberg_updated,33,47423,40,yes,1024
83,83,1175,1175,black,no,experiment,Mozilla,Netscape,"5.0 (Macintosh; Intel Mac OS X 10_15_7) AppleWebKit/605.1.15 (KHTML, like Gecko) Version/14.1.2 Safari/605.1.15",legacy,legacy,legacy,0,uniform,1,1,right,40,40,40,40,0,0,0,40,40,0,0,0,40,40,40,0,0,40,40,0,30-08-21,30-08-21,09:17:31,Thu Sep 30 2021 09:17:31 GMT+0200 (CEST),The main experiment item,yes,0,0,/Users/ethan/Documents/GitHub/OpenSesame/Sternberg/experiment_files,0,0,0,no,mono,no,18,no,white,no,no,768,107,3.6.1,legacy,legacy,4 3 2 5 8,osweb,1.4.0,1,2,y,37,,0,right,,,enter,enter,right,right,738,,,89604,117711,22390,738,2,legacy,813,1440,24,900,24,14,27,1440,1632986347566,5,1024,2,48000,-16,experiment,1,odd,MacIntel,3,491224,,,487965,71,488999,285760,71,89700,286794,493230,490012,493973,71,493230,Sternberg_updated,34,48161,41,yes,1024
83,83,1165,1165,black,no,experiment,Mozilla,Netscape,"5.0 (Macintosh; Intel Mac OS X 10_15_7) AppleWebKit/605.1.15 (KHTML, like Gecko) Version/14.1.2 Safari/605.1.15",legacy,legacy,legacy,0,uniform,1,1,right,41,41,41,41,0,0,0,41,41,0,0,0,41,41,41,0,0,41,41,0,30-08-21,30-08-21,09:17:31,Thu Sep 30 2021 09:17:31 GMT+0200 (CEST),The main experiment item,yes,0,0,/Users/ethan/Documents/GitHub/OpenSesame/Sternberg/experiment_files,0,0,0,no,mono,no,18,no,white,no,no,768,107,3.6.1,legacy,legacy,9 3 1 2 5,osweb,1.4.0,1,4,y,37,,0,right,,,enter,enter,right,right,752,,,89604,117711,22390,752,2,legacy,813,1440,24,900,24,14,27,1440,1632986347566,5,1024,2,48000,-16,experiment,1,odd,MacIntel,2,497244,,,493977,71,495014,285760,71,89700,286794,499261,496027,500028,71,499261,Sternberg_updated,35,48913,42,yes,1024
84,84,1170,1170,black,no,experiment,Mozilla,Netscape,"5.0 (Macintosh; Intel Mac OS X 10_15_7) AppleWebKit/605.1.15 (KHTML, like Gecko) Version/14.1.2 Safari/605.1.15",legacy,legacy,legacy,0,uniform,1,1,left,42,42,42,42,0,0,0,42,42,0,0,0,42,42,42,0,0,42,42,0,30-08-21,30-08-21,09:17:31,Thu Sep 30 2021 09:17:31 GMT+0200 (CEST),The main experiment item,yes,0,0,/Users/ethan/Documents/GitHub/OpenSesame/Sternberg/experiment_files,0,0,0,no,mono,no,18,no,white,no,no,768,107,3.6.1,legacy,legacy,9 7 4 5 8,osweb,1.4.0,1,0,n,37,,0,left,,,enter,enter,right,left,1394,,,89604,117711,22390,1394,2,legacy,813,1440,24,900,24,14,27,1440,1632986347566,5,1024,2,48000,-16,experiment,1,odd,MacIntel,6,503296,,,500033,71,501078,285760,71,89700,286794,505302,502084,506713,71,505302,Sternberg_updated,36,50307,43,yes,1024
84,84,1170,1170,black,no,experiment,Mozilla,Netscape,"5.0 (Macintosh; Intel Mac OS X 10_15_7) AppleWebKit/605.1.15 (KHTML, like Gecko) Version/14.1.2 Safari/605.1.15",legacy,legacy,legacy,0,uniform,1,1,left,43,43,43,43,0,0,0,43,43,0,0,0,43,43,43,0,0,43,43,0,30-08-21,30-08-21,09:17:31,Thu Sep 30 2021 09:17:31 GMT+0200 (CEST),The main experiment item,yes,0,0,/Users/ethan/Documents/GitHub/OpenSesame/Sternberg/experiment_files,0,0,0,no,mono,no,18,no,white,no,no,768,107,3.6.1,legacy,legacy,6 2 9 3 8 4,osweb,1.4.0,1,0,n,37,,0,left,,,enter,enter,right,left,1164,,,89604,117711,22390,1164,2,legacy,813,1440,24,900,24,14,27,1440,1632986347566,6,1024,2,48000,-16,experiment,1,odd,MacIntel,1,509983,,,506718,71,507754,285760,71,89700,286794,512001,508765,513181,71,512001,Sternberg_updated,37,51471,44,yes,1024
84,84,1163,1163,black,no,experiment,Mozilla,Netscape,"5.0 (Macintosh; Intel Mac OS X 10_15_7) AppleWebKit/605.1.15 (KHTML, like Gecko) Version/14.1.2 Safari/605.1.15",legacy,legacy,legacy,0,uniform,1,1,right,44,44,44,44,0,0,0,44,44,0,0,0,44,44,44,0,0,44,44,0,30-08-21,30-08-21,09:17:31,Thu Sep 30 2021 09:17:31 GMT+0200 (CEST),The main experiment item,yes,0,0,/Users/ethan/Documents/GitHub/OpenSesame/Sternberg/experiment_files,0,0,0,no,mono,no,18,no,white,no,no,768,107,3.6.1,legacy,legacy,5 7 3 6 2,osweb,1.4.0,1,5,y,37,,0,right,,,enter,enter,right,right,883,,,89604,117711,22390,883,2,legacy,813,1440,24,900,24,14,27,1440,1632986347566,5,1024,2,48000,-16,experiment,1,odd,MacIntel,2,516451,,,513187,71,514220,285760,71,89700,286794,518457,515238,519351,71,518457,Sternberg_updated,38,52354,45,yes,1024
85,85,1160,1160,black,no,experiment,Mozilla,Netscape,"5.0 (Macintosh; Intel Mac OS X 10_15_7) AppleWebKit/605.1.15 (KHTML, like Gecko) Version/14.1.2 Safari/605.1.15",legacy,legacy,legacy,0,uniform,1,1,right,45,45,45,45,0,0,0,45,45,0,0,0,45,45,45,0,0,45,45,0,30-08-21,30-08-21,09:17:31,Thu Sep 30 2021 09:17:31 GMT+0200 (CEST),The main experiment item,yes,0,0,/Users/ethan/Documents/GitHub/OpenSesame/Sternberg/experiment_files,0,0,0,no,mono,no,18,no,white,no,no,768,107,3.6.1,legacy,legacy,9 1 7 2,osweb,1.4.0,1,2,y,37,,0,right,,,enter,enter,right,right,1026,,,89604,117711,22390,1026,2,legacy,813,1440,24,900,24,14,27,1440,1632986347566,4,1024,2,48000,-16,experiment,1,odd,MacIntel,1,522619,,,519355,71,520393,285760,71,89700,286794,524638,521404,525681,71,524638,Sternberg_updated,39,53380,46,yes,1024
85,85,1152,1152,black,no,experiment,Mozilla,Netscape,"5.0 (Macintosh; Intel Mac OS X 10_15_7) AppleWebKit/605.1.15 (KHTML, like Gecko) Version/14.1.2 Safari/605.1.15",legacy,legacy,legacy,0,uniform,1,1,left,46,46,46,46,0,0,0,46,46,0,0,0,46,46,46,0,0,46,46,0,30-08-21,30-08-21,09:17:31,Thu Sep 30 2021 09:17:31 GMT+0200 (CEST),The main experiment item,yes,0,0,/Users/ethan/Documents/GitHub/OpenSesame/Sternberg/experiment_files,0,0,0,no,mono,no,18,no,white,no,no,768,107,3.6.1,legacy,legacy,4 1,osweb,1.4.0,1,0,n,37,,0,left,,,enter,enter,right,left,747,,,89604,117711,22390,747,2,legacy,813,1440,24,900,24,14,27,1440,1632986347566,2,1024,2,48000,-16,experiment,1,odd,MacIntel,6,528946,,,525685,71,526712,285760,71,89700,286794,530967,527733,531731,71,530967,Sternberg_updated,40,54127,47,yes,1024
85,85,1150,1150,black,no,experiment,Mozilla,Netscape,"5.0 (Macintosh; Intel Mac OS X 10_15_7) AppleWebKit/605.1.15 (KHTML, like Gecko) Version/14.1.2 Safari/605.1.15",legacy,legacy,legacy,0,uniform,1,1,right,47,47,47,47,0,0,0,47,47,0,0,0,47,47,47,0,0,47,47,0,30-08-21,30-08-21,09:17:31,Thu Sep 30 2021 09:17:31 GMT+0200 (CEST),The main experiment item,yes,0,0,/Users/ethan/Documents/GitHub/OpenSesame/Sternberg/experiment_files,0,0,0,no,mono,no,18,no,white,no,no,768,107,3.6.1,legacy,legacy,2 3 7 4,osweb,1.4.0,1,1,y,37,,0,right,,,enter,enter,right,right,1059,,,89604,117711,22390,1059,2,legacy,813,1440,24,900,24,14,27,1440,1632986347566,4,1024,2,48000,-16,experiment,1,odd,MacIntel,2,534992,,,531737,71,532771,285760,71,89700,286794,537009,533785,538070,71,537008,Sternberg_updated,41,55186,48,yes,1024
86,86,1141,1141,black,no,experiment,Mozilla,Netscape,"5.0 (Macintosh; Intel Mac OS X 10_15_7) AppleWebKit/605.1.15 (KHTML, like Gecko) Version/14.1.2 Safari/605.1.15",legacy,legacy,legacy,0,uniform,1,1,right,48,48,48,48,0,0,0,48,48,0,0,0,48,48,48,0,0,48,48,0,30-08-21,30-08-21,09:17:31,Thu Sep 30 2021 09:17:31 GMT+0200 (CEST),The main experiment item,yes,0,0,/Users/ethan/Documents/GitHub/OpenSesame/Sternberg/experiment_files,0,0,0,no,mono,no,18,no,white,no,no,768,107,3.6.1,legacy,legacy,4 1 8 7 5,osweb,1.4.0,1,3,y,37,,0,right,,,enter,enter,right,right,735,,,89604,117711,22390,735,2,legacy,813,1440,24,900,24,14,27,1440,1632986347566,5,1024,2,48000,-16,experiment,1,odd,MacIntel,8,541324,,,538074,71,539107,285760,71,89700,286794,543341,540117,544081,71,543341,Sternberg_updated,42,55921,49,yes,1024
86,86,1140,1140,black,no,experiment,Mozilla,Netscape,"5.0 (Macintosh; Intel Mac OS X 10_15_7) AppleWebKit/605.1.15 (KHTML, like Gecko) Version/14.1.2 Safari/605.1.15",legacy,legacy,legacy,0,uniform,1,1,left,49,49,49,49,0,0,0,49,49,0,0,0,49,49,49,0,0,49,49,0,30-08-21,30-08-21,09:17:31,Thu Sep 30 2021 09:17:31 GMT+0200 (CEST),The main experiment item,yes,0,0,/Users/ethan/Documents/GitHub/OpenSesame/Sternberg/experiment_files,0,0,0,no,mono,no,18,no,white,no,no,768,107,3.6.1,legacy,legacy,2 5 1 4,osweb,1.4.0,1,0,n,37,,0,left,,,enter,enter,right,left,1093,,,89604,117711,22390,1093,2,legacy,813,1440,24,900,24,14,27,1440,1632986347566,4,1024,2,48000,-16,experiment,1,odd,MacIntel,6,547348,,,544085,71,545119,285760,71,89700,286794,549366,546133,550463,71,549366,Sternberg_updated,43,57014,50,yes,1024
86,86,1133,1133,black,no,experiment,Mozilla,Netscape,"5.0 (Macintosh; Intel Mac OS X 10_15_7) AppleWebKit/605.1.15 (KHTML, like Gecko) Version/14.1.2 Safari/605.1.15",legacy,legacy,legacy,0,uniform,1,1,right,50,50,50,50,0,0,0,50,50,0,0,0,50,50,50,0,0,50,50,0,30-08-21,30-08-21,09:17:31,Thu Sep 30 2021 09:17:31 GMT+0200 (CEST),The main experiment item,yes,0,0,/Users/ethan/Documents/GitHub/OpenSesame/Sternberg/experiment_files,0,0,0,no,mono,no,18,no,white,no,no,768,107,3.6.1,legacy,legacy,2 5 4 8 7,osweb,1.4.0,1,3,y,37,,0,right,,,enter,enter,right,right,760,,,89604,117711,22390,760,2,legacy,813,1440,24,900,24,14,27,1440,1632986347566,5,1024,2,48000,-16,experiment,1,odd,MacIntel,4,553726,,,550467,71,551502,285760,71,89700,286794,555732,552513,556509,71,555732,Sternberg_updated,44,57774,51,yes,1024
87,87,1127,1127,black,no,experiment,Mozilla,Netscape,"5.0 (Macintosh; Intel Mac OS X 10_15_7) AppleWebKit/605.1.15 (KHTML, like Gecko) Version/14.1.2 Safari/605.1.15",legacy,legacy,legacy,0,uniform,1,1,left,51,51,51,51,0,0,0,51,51,0,0,0,51,51,51,0,0,51,51,0,30-08-21,30-08-21,09:17:31,Thu Sep 30 2021 09:17:31 GMT+0200 (CEST),The main experiment item,yes,0,0,/Users/ethan/Documents/GitHub/OpenSesame/Sternberg/experiment_files,0,0,0,no,mono,no,18,no,white,no,no,768,107,3.6.1,legacy,legacy,2 6 4 3 9,osweb,1.4.0,1,0,n,37,,0,left,,,enter,enter,right,left,830,,,89604,117711,22390,830,2,legacy,813,1440,24,900,24,14,27,1440,1632986347566,5,1024,2,48000,-16,experiment,1,odd,MacIntel,1,559778,,,556514,71,557556,285760,71,89700,286794,561797,558563,562627,71,561797,Sternberg_updated,45,58604,52,yes,1024
87,87,1120,1120,black,no,experiment,Mozilla,Netscape,"5.0 (Macintosh; Intel Mac OS X 10_15_7) AppleWebKit/605.1.15 (KHTML, like Gecko) Version/14.1.2 Safari/605.1.15",legacy,legacy,legacy,0,uniform,1,1,left,52,52,52,52,0,0,0,52,52,0,0,0,52,52,52,0,0,52,52,0,30-08-21,30-08-21,09:17:31,Thu Sep 30 2021 09:17:31 GMT+0200 (CEST),The main experiment item,yes,0,0,/Users/ethan/Documents/GitHub/OpenSesame/Sternberg/experiment_files,0,0,0,no,mono,no,18,no,white,no,no,768,107,3.6.1,legacy,legacy,7 6 4 8 1 2,osweb,1.4.0,1,0,n,37,,0,left,,,enter,enter,right,left,731,,,89604,117711,22390,731,2,legacy,813,1440,24,900,24,14,27,1440,1632986347566,6,1024,2,48000,-16,experiment,1,odd,MacIntel,9,565905,,,562632,71,563663,285760,71,89700,286794,567911,564688,568650,71,567911,Sternberg_updated,46,59335,53,yes,1024
87,87,1124,1124,black,no,experiment,Mozilla,Netscape,"5.0 (Macintosh; Intel Mac OS X 10_15_7) AppleWebKit/605.1.15 (KHTML, like Gecko) Version/14.1.2 Safari/605.1.15",legacy,legacy,legacy,0,uniform,1,1,right,53,53,53,53,0,0,0,53,53,0,0,0,53,53,53,0,0,53,53,0,30-08-21,30-08-21,09:17:31,Thu Sep 30 2021 09:17:31 GMT+0200 (CEST),The main experiment item,yes,0,0,/Users/ethan/Documents/GitHub/OpenSesame/Sternberg/experiment_files,0,0,0,no,mono,no,18,no,white,no,no,768,107,3.6.1,legacy,legacy,7 8 6 3 1,osweb,1.4.0,1,5,y,37,,0,right,,,enter,enter,right,right,1342,,,89604,117711,22390,1342,2,legacy,813,1440,24,900,24,14,27,1440,1632986347566,5,1024,2,48000,-16,experiment,1,odd,MacIntel,1,571919,,,568654,71,569687,285760,71,89700,286794,573926,570703,575285,71,573926,Sternberg_updated,47,60677,54,yes,1024
85,85,1140,1140,black,no,experiment,Mozilla,Netscape,"5.0 (Macintosh; Intel Mac OS X 10_15_7) AppleWebKit/605.1.15 (KHTML, like Gecko) Version/14.1.2 Safari/605.1.15",legacy,legacy,legacy,0,uniform,0,0,right,54,54,54,54,0,0,0,54,54,0,0,0,54,54,54,0,0,54,54,0,30-08-21,30-08-21,09:17:31,Thu Sep 30 2021 09:17:31 GMT+0200 (CEST),The main experiment item,yes,0,0,/Users/ethan/Documents/GitHub/OpenSesame/Sternberg/experiment_files,0,0,0,no,mono,no,18,no,white,no,no,768,107,3.6.1,legacy,legacy,8 9 5 7 1 6,osweb,1.4.0,1,4,y,37,,0,None,,,enter,enter,right,None,2015,,,89604,117711,22390,2015,2,legacy,813,1440,24,900,24,14,27,1440,1632986347566,6,1024,2,48000,-16,experiment,1,odd,MacIntel,7,578559,,,575290,71,576327,285760,71,89700,286794,580578,577342,582593,71,580578,Sternberg_updated,47,62692,55,yes,1024
86,86,1137,1137,black,no,experiment,Mozilla,Netscape,"5.0 (Macintosh; Intel Mac OS X 10_15_7) AppleWebKit/605.1.15 (KHTML, like Gecko) Version/14.1.2 Safari/605.1.15",legacy,legacy,legacy,0,uniform,1,1,left,55,55,55,55,0,0,0,55,55,0,0,0,55,55,55,0,0,55,55,0,30-08-21,30-08-21,09:17:31,Thu Sep 30 2021 09:17:31 GMT+0200 (CEST),The main experiment item,yes,0,0,/Users/ethan/Documents/GitHub/OpenSesame/Sternberg/experiment_files,0,0,0,no,mono,no,18,no,white,no,no,768,107,3.6.1,legacy,legacy,7 1,osweb,1.4.0,1,0,n,37,,0,left,right,,enter,enter,right,left,1005,64095,,89604,117711,22390,1005,2,legacy,813,1440,24,900,24,14,27,1440,1632986347566,2,1024,2,48000,-16,experiment,1,odd,MacIntel,8,649967,583618,,575290,71,647754,582599,71,89700,286794,651987,648761,652997,71,651987,Sternberg_updated,48,63697,56,yes,1024
86,86,1131,1131,black,no,experiment,Mozilla,Netscape,"5.0 (Macintosh; Intel Mac OS X 10_15_7) AppleWebKit/605.1.15 (KHTML, like Gecko) Version/14.1.2 Safari/605.1.15",legacy,legacy,legacy,0,uniform,1,1,left,56,56,56,56,0,0,0,56,56,0,0,0,56,56,56,0,0,56,56,0,30-08-21,30-08-21,09:17:31,Thu Sep 30 2021 09:17:31 GMT+0200 (CEST),The main experiment item,yes,0,0,/Users/ethan/Documents/GitHub/OpenSesame/Sternberg/experiment_files,0,0,0,no,mono,no,18,no,white,no,no,768,107,3.6.1,legacy,legacy,8 4 3 5,osweb,1.4.0,1,0,n,37,,0,left,right,,enter,enter,right,left,786,64095,,89604,117711,22390,786,2,legacy,813,1440,24,900,24,14,27,1440,1632986347566,4,1024,2,48000,-16,experiment,1,odd,MacIntel,6,656267,583618,,653002,71,654038,582599,71,89700,286794,658285,655052,659076,71,658285,Sternberg_updated,49,64483,57,yes,1024
86,86,1130,1130,black,no,experiment,Mozilla,Netscape,"5.0 (Macintosh; Intel Mac OS X 10_15_7) AppleWebKit/605.1.15 (KHTML, like Gecko) Version/14.1.2 Safari/605.1.15",legacy,legacy,legacy,0,uniform,1,1,left,57,57,57,57,0,0,0,57,57,0,0,0,57,57,57,0,0,57,57,0,30-08-21,30-08-21,09:17:31,Thu Sep 30 2021 09:17:31 GMT+0200 (CEST),The main experiment item,yes,0,0,/Users/ethan/Documents/GitHub/OpenSesame/Sternberg/experiment_files,0,0,0,no,mono,no,18,no,white,no,no,768,107,3.6.1,legacy,legacy,1 7 5 2 9,osweb,1.4.0,1,0,n,37,,0,left,right,,enter,enter,right,left,1066,64095,,89604,117711,22390,1066,2,legacy,813,1440,24,900,24,14,27,1440,1632986347566,5,1024,2,48000,-16,experiment,1,odd,MacIntel,3,662347,583618,,659080,71,660114,582599,71,89700,286794,664372,661131,665447,71,664372,Sternberg_updated,50,65549,58,yes,1024
86,86,1126,1126,black,no,experiment,Mozilla,Netscape,"5.0 (Macintosh; Intel Mac OS X 10_15_7) AppleWebKit/605.1.15 (KHTML, like Gecko) Version/14.1.2 Safari/605.1.15",legacy,legacy,legacy,0,uniform,1,1,left,58,58,58,58,0,0,0,58,58,0,0,0,58,58,58,0,0,58,58,0,30-08-21,30-08-21,09:17:31,Thu Sep 30 2021 09:17:31 GMT+0200 (CEST),The main experiment item,yes,0,0,/Users/ethan/Documents/GitHub/OpenSesame/Sternberg/experiment_files,0,0,0,no,mono,no,18,no,white,no,no,768,107,3.6.1,legacy,legacy,1 6 4,osweb,1.4.0,1,0,n,37,,0,left,right,,enter,enter,right,left,907,64095,,89604,117711,22390,907,2,legacy,813,1440,24,900,24,14,27,1440,1632986347566,3,1024,2,48000,-16,experiment,1,odd,MacIntel,7,668712,583618,,665452,71,666485,582599,71,89700,286794,670718,667499,671628,71,670718,Sternberg_updated,51,66456,59,yes,1024
87,87,1138,1138,black,no,experiment,Mozilla,Netscape,"5.0 (Macintosh; Intel Mac OS X 10_15_7) AppleWebKit/605.1.15 (KHTML, like Gecko) Version/14.1.2 Safari/605.1.15",legacy,legacy,legacy,0,uniform,1,1,right,59,59,59,59,0,0,0,59,59,0,0,0,59,59,59,0,0,59,59,0,30-08-21,30-08-21,09:17:31,Thu Sep 30 2021 09:17:31 GMT+0200 (CEST),The main experiment item,yes,0,0,/Users/ethan/Documents/GitHub/OpenSesame/Sternberg/experiment_files,0,0,0,no,mono,no,18,no,white,no,no,768,107,3.6.1,legacy,legacy,7 1 8 5 6 2,osweb,1.4.0,1,2,y,37,,0,right,right,,enter,enter,right,right,1799,64095,,89604,117711,22390,1799,2,legacy,813,1440,24,900,24,14,27,1440,1632986347566,6,1024,2,48000,-16,experiment,1,odd,MacIntel,1,674900,583618,,671632,71,672669,582599,71,89700,286794,676916,673684,678726,71,676916,Sternberg_updated,52,68255,60,yes,1024
87,87,1133,1133,black,no,experiment,Mozilla,Netscape,"5.0 (Macintosh; Intel Mac OS X 10_15_7) AppleWebKit/605.1.15 (KHTML, like Gecko) Version/14.1.2 Safari/605.1.15",legacy,legacy,legacy,0,uniform,1,1,left,60,60,60,60,0,0,0,60,60,0,0,0,60,60,60,0,0,60,60,0,30-08-21,30-08-21,09:17:31,Thu Sep 30 2021 09:17:31 GMT+0200 (CEST),The main experiment item,yes,0,0,/Users/ethan/Documents/GitHub/OpenSesame/Sternberg/experiment_files,0,0,0,no,mono,no,18,no,white,no,no,768,107,3.6.1,legacy,legacy,1 5 3 2 8,osweb,1.4.0,1,0,n,37,,0,left,right,,enter,enter,right,left,864,64095,,89604,117711,22390,864,2,legacy,813,1440,24,900,24,14,27,1440,1632986347566,5,1024,2,48000,-16,experiment,1,odd,MacIntel,4,681995,583618,,678730,71,679765,582599,71,89700,286794,684015,680780,684894,71,684015,Sternberg_updated,53,69119,61,yes,1024
87,87,1132,1132,black,no,experiment,Mozilla,Netscape,"5.0 (Macintosh; Intel Mac OS X 10_15_7) AppleWebKit/605.1.15 (KHTML, like Gecko) Version/14.1.2 Safari/605.1.15",legacy,legacy,legacy,0,uniform,1,1,left,61,61,61,61,0,0,0,61,61,0,0,0,61,61,61,0,0,61,61,0,30-08-21,30-08-21,09:17:31,Thu Sep 30 2021 09:17:31 GMT+0200 (CEST),The main experiment item,yes,0,0,/Users/ethan/Documents/GitHub/OpenSesame/Sternberg/experiment_files,0,0,0,no,mono,no,18,no,white,no,no,768,107,3.6.1,legacy,legacy,4 2 7 6 1 3,osweb,1.4.0,1,0,n,37,,0,left,right,,enter,enter,right,left,1092,64095,,89604,117711,22390,1092,2,legacy,813,1440,24,900,24,14,27,1440,1632986347566,6,1024,2,48000,-16,experiment,1,odd,MacIntel,8,688161,583618,,684899,71,685933,582599,71,89700,286794,690179,686948,691273,71,690179,Sternberg_updated,54,70211,62,yes,1024
87,87,1129,1129,black,no,experiment,Mozilla,Netscape,"5.0 (Macintosh; Intel Mac OS X 10_15_7) AppleWebKit/605.1.15 (KHTML, like Gecko) Version/14.1.2 Safari/605.1.15",legacy,legacy,legacy,0,uniform,1,1,left,62,62,62,62,0,0,0,62,62,0,0,0,62,62,62,0,0,62,62,0,30-08-21,30-08-21,09:17:31,Thu Sep 30 2021 09:17:31 GMT+0200 (CEST),The main experiment item,yes,0,0,/Users/ethan/Documents/GitHub/OpenSesame/Sternberg/experiment_files,0,0,0,no,mono,no,18,no,white,no,no,768,107,3.6.1,legacy,legacy,2 8 7 9 5 3,osweb,1.4.0,1,0,n,37,,0,left,right,,enter,enter,right,left,938,64095,,89604,117711,22390,938,2,legacy,813,1440,24,900,24,14,27,1440,1632986347566,6,1024,2,48000,-16,experiment,1,odd,MacIntel,6,694542,583618,,691277,71,692313,582599,71,89700,286794,696560,693327,697508,71,696560,Sternberg_updated,55,71149,63,yes,1024
88,88,1128,1128,black,no,experiment,Mozilla,Netscape,"5.0 (Macintosh; Intel Mac OS X 10_15_7) AppleWebKit/605.1.15 (KHTML, like Gecko) Version/14.1.2 Safari/605.1.15",legacy,legacy,legacy,0,uniform,1,1,left,63,63,63,63,0,0,0,63,63,0,0,0,63,63,63,0,0,63,63,0,30-08-21,30-08-21,09:17:31,Thu Sep 30 2021 09:17:31 GMT+0200 (CEST),The main experiment item,yes,0,0,/Users/ethan/Documents/GitHub/OpenSesame/Sternberg/experiment_files,0,0,0,no,mono,no,18,no,white,no,no,768,107,3.6.1,legacy,legacy,9 8 2 7 4,osweb,1.4.0,1,0,n,37,,0,left,right,,enter,enter,right,left,1025,64095,,89604,117711,22390,1025,2,legacy,813,1440,24,900,24,14,27,1440,1632986347566,5,1024,2,48000,-16,experiment,1,odd,MacIntel,5,700773,583618,,697512,71,698544,582599,71,89700,286794,702778,699559,703805,71,702778,Sternberg_updated,56,72174,64,yes,1024
88,88,1121,1121,black,no,experiment,Mozilla,Netscape,"5.0 (Macintosh; Intel Mac OS X 10_15_7) AppleWebKit/605.1.15 (KHTML, like Gecko) Version/14.1.2 Safari/605.1.15",legacy,legacy,legacy,0,uniform,1,1,left,64,64,64,64,0,0,0,64,64,0,0,0,64,64,64,0,0,64,64,0,30-08-21,30-08-21,09:17:31,Thu Sep 30 2021 09:17:31 GMT+0200 (CEST),The main experiment item,yes,0,0,/Users/ethan/Documents/GitHub/OpenSesame/Sternberg/experiment_files,0,0,0,no,mono,no,18,no,white,no,no,768,107,3.6.1,legacy,legacy,6 8,osweb,1.4.0,1,0,n,37,,0,left,right,,enter,enter,right,left,677,64095,,89604,117711,22390,677,2,legacy,813,1440,24,900,24,14,27,1440,1632986347566,2,1024,2,48000,-16,experiment,1,odd,MacIntel,9,707078,583618,,703809,71,704846,582599,71,89700,286794,709097,705861,709776,71,709097,Sternberg_updated,57,72851,65,yes,1024
88,88,1120,1120,black,no,experiment,Mozilla,Netscape,"5.0 (Macintosh; Intel Mac OS X 10_15_7) AppleWebKit/605.1.15 (KHTML, like Gecko) Version/14.1.2 Safari/605.1.15",legacy,legacy,legacy,0,uniform,1,1,left,65,65,65,65,0,0,0,65,65,0,0,0,65,65,65,0,0,65,65,0,30-08-21,30-08-21,09:17:31,Thu Sep 30 2021 09:17:31 GMT+0200 (CEST),The main experiment item,yes,0,0,/Users/ethan/Documents/GitHub/OpenSesame/Sternberg/experiment_files,0,0,0,no,mono,no,18,no,white,no,no,768,107,3.6.1,legacy,legacy,2 3 8 5 6 7,osweb,1.4.0,1,0,n,37,,0,left,right,,enter,enter,right,left,1037,64095,,89604,117711,22390,1037,2,legacy,813,1440,24,900,24,14,27,1440,1632986347566,6,1024,2,48000,-16,experiment,1,odd,MacIntel,1,713049,583618,,709780,71,710817,582599,71,89700,286794,715057,711838,716101,71,715056,Sternberg_updated,58,73888,66,yes,1024
88,88,1125,1125,black,no,experiment,Mozilla,Netscape,"5.0 (Macintosh; Intel Mac OS X 10_15_7) AppleWebKit/605.1.15 (KHTML, like Gecko) Version/14.1.2 Safari/605.1.15",legacy,legacy,legacy,0,uniform,1,1,right,66,66,66,66,0,0,0,66,66,0,0,0,66,66,66,0,0,66,66,0,30-08-21,30-08-21,09:17:31,Thu Sep 30 2021 09:17:31 GMT+0200 (CEST),The main experiment item,yes,0,0,/Users/ethan/Documents/GitHub/OpenSesame/Sternberg/experiment_files,0,0,0,no,mono,no,18,no,white,no,no,768,107,3.6.1,legacy,legacy,8 5 1 3 9,osweb,1.4.0,1,4,y,37,,0,right,right,,enter,enter,right,right,1507,64095,,89604,117711,22390,1507,2,legacy,813,1440,24,900,24,14,27,1440,1632986347566,5,1024,2,48000,-16,experiment,1,odd,MacIntel,3,719369,583618,,716106,71,717140,582599,71,89700,286794,721374,718154,722888,71,721374,Sternberg_updated,59,75395,67,yes,1024
88,88,1122,1122,black,no,experiment,Mozilla,Netscape,"5.0 (Macintosh; Intel Mac OS X 10_15_7) AppleWebKit/605.1.15 (KHTML, like Gecko) Version/14.1.2 Safari/605.1.15",legacy,legacy,legacy,0,uniform,1,1,left,67,67,67,67,0,0,0,67,67,0,0,0,67,67,67,0,0,67,67,0,30-08-21,30-08-21,09:17:31,Thu Sep 30 2021 09:17:31 GMT+0200 (CEST),The main experiment item,yes,0,0,/Users/ethan/Documents/GitHub/OpenSesame/Sternberg/experiment_files,0,0,0,no,mono,no,18,no,white,no,no,768,107,3.6.1,legacy,legacy,5 3 8 7 2 4,osweb,1.4.0,1,0,n,37,,0,left,right,,enter,enter,right,left,869,64095,,89604,117711,22390,869,2,legacy,813,1440,24,900,24,14,27,1440,1632986347566,6,1024,2,48000,-16,experiment,1,odd,MacIntel,9,726158,583618,,722891,71,723927,582599,71,89700,286794,728163,724942,729045,71,728163,Sternberg_updated,60,76264,68,yes,1024
88,88,1133,1133,black,no,experiment,Mozilla,Netscape,"5.0 (Macintosh; Intel Mac OS X 10_15_7) AppleWebKit/605.1.15 (KHTML, like Gecko) Version/14.1.2 Safari/605.1.15",legacy,legacy,legacy,0,uniform,1,1,right,68,68,68,68,0,0,0,68,68,0,0,0,68,68,68,0,0,68,68,0,30-08-21,30-08-21,09:17:31,Thu Sep 30 2021 09:17:31 GMT+0200 (CEST),The main experiment item,yes,0,0,/Users/ethan/Documents/GitHub/OpenSesame/Sternberg/experiment_files,0,0,0,no,mono,no,18,no,white,no,no,768,107,3.6.1,legacy,legacy,3 5 7 1,osweb,1.4.0,1,3,y,37,,0,right,right,,enter,enter,right,right,1900,64095,,89604,117711,22390,1900,2,legacy,813,1440,24,900,24,14,27,1440,1632986347566,4,1024,2,48000,-16,experiment,1,odd,MacIntel,7,732315,583618,,729049,71,730083,582599,71,89700,286794,734321,731102,736230,71,734321,Sternberg_updated,61,78164,69,yes,1024
89,89,1129,1129,black,no,experiment,Mozilla,Netscape,"5.0 (Macintosh; Intel Mac OS X 10_15_7) AppleWebKit/605.1.15 (KHTML, like Gecko) Version/14.1.2 Safari/605.1.15",legacy,legacy,legacy,0,uniform,1,1,right,69,69,69,69,0,0,0,69,69,0,0,0,69,69,69,0,0,69,69,0,30-08-21,30-08-21,09:17:31,Thu Sep 30 2021 09:17:31 GMT+0200 (CEST),The main experiment item,yes,0,0,/Users/ethan/Documents/GitHub/OpenSesame/Sternberg/experiment_files,0,0,0,no,mono,no,18,no,white,no,no,768,107,3.6.1,legacy,legacy,9 3 8 2 1 4,osweb,1.4.0,1,3,y,37,,0,right,right,,enter,enter,right,right,892,64095,,89604,117711,22390,892,2,legacy,813,1440,24,900,24,14,27,1440,1632986347566,6,1024,2,48000,-16,experiment,1,odd,MacIntel,8,739501,583618,,736234,71,737268,582599,71,89700,286794,741522,738284,742429,71,741521,Sternberg_updated,62,79056,70,yes,1024
89,89,1128,1128,black,no,experiment,Mozilla,Netscape,"5.0 (Macintosh; Intel Mac OS X 10_15_7) AppleWebKit/605.1.15 (KHTML, like Gecko) Version/14.1.2 Safari/605.1.15",legacy,legacy,legacy,0,uniform,1,1,left,70,70,70,70,0,0,0,70,70,0,0,0,70,70,70,0,0,70,70,0,30-08-21,30-08-21,09:17:31,Thu Sep 30 2021 09:17:31 GMT+0200 (CEST),The main experiment item,yes,0,0,/Users/ethan/Documents/GitHub/OpenSesame/Sternberg/experiment_files,0,0,0,no,mono,no,18,no,white,no,no,768,107,3.6.1,legacy,legacy,8 6 3 4 7,osweb,1.4.0,1,0,n,37,,0,left,right,,enter,enter,right,left,1062,64095,,89604,117711,22390,1062,2,legacy,813,1440,24,900,24,14,27,1440,1632986347566,5,1024,2,48000,-16,experiment,1,odd,MacIntel,1,745690,583618,,742434,71,743465,582599,71,89700,286794,747709,744480,748775,71,747709,Sternberg_updated,63,80118,71,yes,1024
89,89,1129,1129,black,no,experiment,Mozilla,Netscape,"5.0 (Macintosh; Intel Mac OS X 10_15_7) AppleWebKit/605.1.15 (KHTML, like Gecko) Version/14.1.2 Safari/605.1.15",legacy,legacy,legacy,0,uniform,1,1,right,71,71,71,71,0,0,0,71,71,0,0,0,71,71,71,0,0,71,71,0,30-08-21,30-08-21,09:17:31,Thu Sep 30 2021 09:17:31 GMT+0200 (CEST),The main experiment item,yes,0,0,/Users/ethan/Documents/GitHub/OpenSesame/Sternberg/experiment_files,0,0,0,no,mono,no,18,no,white,no,no,768,107,3.6.1,legacy,legacy,9 5 3 8 4,osweb,1.4.0,1,1,y,37,,0,right,right,,enter,enter,right,right,1137,64095,,89604,117711,22390,1137,2,legacy,813,1440,24,900,24,14,27,1440,1632986347566,5,1024,2,48000,-16,experiment,1,odd,MacIntel,9,752033,583618,,748778,71,749816,582599,71,89700,286794,754051,750831,755200,71,754051,Sternberg_updated,64,81255,72,yes,1024
89,89,1133,1133,black,no,experiment,Mozilla,Netscape,"5.0 (Macintosh; Intel Mac OS X 10_15_7) AppleWebKit/605.1.15 (KHTML, like Gecko) Version/14.1.2 Safari/605.1.15",legacy,legacy,legacy,0,uniform,1,1,left,72,72,72,72,0,0,0,72,72,0,0,0,72,72,72,0,0,72,72,0,30-08-21,30-08-21,09:17:31,Thu Sep 30 2021 09:17:31 GMT+0200 (CEST),The main experiment item,yes,0,0,/Users/ethan/Documents/GitHub/OpenSesame/Sternberg/experiment_files,0,0,0,no,mono,no,18,no,white,no,no,768,107,3.6.1,legacy,legacy,7 9,osweb,1.4.0,1,0,n,37,,0,left,right,,enter,enter,right,left,1486,64095,,89604,117711,22390,1486,2,legacy,813,1440,24,900,24,14,27,1440,1632986347566,2,1024,2,48000,-16,experiment,1,odd,MacIntel,1,758459,583618,,755205,71,756234,582599,71,89700,286794,760475,757253,761971,71,760474,Sternberg_updated,65,82741,73,yes,1024
89,89,1132,1132,black,no,experiment,Mozilla,Netscape,"5.0 (Macintosh; Intel Mac OS X 10_15_7) AppleWebKit/605.1.15 (KHTML, like Gecko) Version/14.1.2 Safari/605.1.15",legacy,legacy,legacy,0,uniform,1,1,right,73,73,73,73,0,0,0,73,73,0,0,0,73,73,73,0,0,73,73,0,30-08-21,30-08-21,09:17:31,Thu Sep 30 2021 09:17:31 GMT+0200 (CEST),The main experiment item,yes,0,0,/Users/ethan/Documents/GitHub/OpenSesame/Sternberg/experiment_files,0,0,0,no,mono,no,18,no,white,no,no,768,107,3.6.1,legacy,legacy,9 5 8 1,osweb,1.4.0,1,2,y,37,,0,right,right,,enter,enter,right,right,1012,64095,,89604,117711,22390,1012,2,legacy,813,1440,24,900,24,14,27,1440,1632986347566,4,1024,2,48000,-16,experiment,1,odd,MacIntel,5,765234,583618,,761974,71,763003,582599,71,89700,286794,767240,764023,768269,71,767240,Sternberg_updated,66,83753,74,yes,1024
89,89,1128,1128,black,no,experiment,Mozilla,Netscape,"5.0 (Macintosh; Intel Mac OS X 10_15_7) AppleWebKit/605.1.15 (KHTML, like Gecko) Version/14.1.2 Safari/605.1.15",legacy,legacy,legacy,0,uniform,1,1,left,74,74,74,74,0,0,0,74,74,0,0,0,74,74,74,0,0,74,74,0,30-08-21,30-08-21,09:17:31,Thu Sep 30 2021 09:17:31 GMT+0200 (CEST),The main experiment item,yes,0,0,/Users/ethan/Documents/GitHub/OpenSesame/Sternberg/experiment_files,0,0,0,no,mono,no,18,no,white,no,no,768,107,3.6.1,legacy,legacy,3 9 1,osweb,1.4.0,1,0,n,37,,0,left,right,,enter,enter,right,left,863,64095,,89604,117711,22390,863,2,legacy,813,1440,24,900,24,14,27,1440,1632986347566,3,1024,2,48000,-16,experiment,1,odd,MacIntel,7,771535,583618,,768275,71,769309,582599,71,89700,286794,773553,770328,774430,71,773553,Sternberg_updated,67,84616,75,yes,1024
89,89,1130,1130,black,no,experiment,Mozilla,Netscape,"5.0 (Macintosh; Intel Mac OS X 10_15_7) AppleWebKit/605.1.15 (KHTML, like Gecko) Version/14.1.2 Safari/605.1.15",legacy,legacy,legacy,0,uniform,1,1,right,75,75,75,75,0,0,0,75,75,0,0,0,75,75,75,0,0,75,75,0,30-08-21,30-08-21,09:17:31,Thu Sep 30 2021 09:17:31 GMT+0200 (CEST),The main experiment item,yes,0,0,/Users/ethan/Documents/GitHub/OpenSesame/Sternberg/experiment_files,0,0,0,no,mono,no,18,no,white,no,no,768,107,3.6.1,legacy,legacy,2 8 5 1,osweb,1.4.0,1,4,y,37,,0,right,right,,enter,enter,right,right,1242,64095,,89604,117711,22390,1242,2,legacy,813,1440,24,900,24,14,27,1440,1632986347566,4,1024,2,48000,-16,experiment,1,odd,MacIntel,1,777720,583618,,774436,71,775487,582599,71,89700,286794,779737,776503,780987,71,779737,Sternberg_updated,68,85858,76,yes,1024
90,90,1128,1128,black,no,experiment,Mozilla,Netscape,"5.0 (Macintosh; Intel Mac OS X 10_15_7) AppleWebKit/605.1.15 (KHTML, like Gecko) Version/14.1.2 Safari/605.1.15",legacy,legacy,legacy,0,uniform,1,1,right,76,76,76,76,0,0,0,76,76,0,0,0,76,76,76,0,0,76,76,0,30-08-21,30-08-21,09:17:31,Thu Sep 30 2021 09:17:31 GMT+0200 (CEST),The main experiment item,yes,0,0,/Users/ethan/Documents/GitHub/OpenSesame/Sternberg/experiment_files,0,0,0,no,mono,no,18,no,white,no,no,768,107,3.6.1,legacy,legacy,6 5,osweb,1.4.0,1,2,y,37,,0,right,right,,enter,enter,right,right,1022,64095,,89604,117711,22390,1022,2,legacy,813,1440,24,900,24,14,27,1440,1632986347566,2,1024,2,48000,-16,experiment,1,odd,MacIntel,5,784258,583618,,780992,71,782024,582599,71,89700,286794,786280,783042,787315,71,786280,Sternberg_updated,69,86880,77,yes,1024
90,90,1122,1122,black,no,experiment,Mozilla,Netscape,"5.0 (Macintosh; Intel Mac OS X 10_15_7) AppleWebKit/605.1.15 (KHTML, like Gecko) Version/14.1.2 Safari/605.1.15",legacy,legacy,legacy,0,uniform,1,1,left,77,77,77,77,0,0,0,77,77,0,0,0,77,77,77,0,0,77,77,0,30-08-21,30-08-21,09:17:31,Thu Sep 30 2021 09:17:31 GMT+0200 (CEST),The main experiment item,yes,0,0,/Users/ethan/Documents/GitHub/OpenSesame/Sternberg/experiment_files,0,0,0,no,mono,no,18,no,white,no,no,768,107,3.6.1,legacy,legacy,5,osweb,1.4.0,1,0,n,37,,0,left,right,,enter,enter,right,left,618,64095,,89604,117711,22390,618,2,legacy,813,1440,24,900,24,14,27,1440,1632986347566,1,1024,2,48000,-16,experiment,1,odd,MacIntel,8,790588,583618,,787321,71,788358,582599,71,89700,286794,792606,789371,793237,71,792606,Sternberg_updated,70,87498,78,yes,1024
90,90,1125,1125,black,no,experiment,Mozilla,Netscape,"5.0 (Macintosh; Intel Mac OS X 10_15_7) AppleWebKit/605.1.15 (KHTML, like Gecko) Version/14.1.2 Safari/605.1.15",legacy,legacy,legacy,0,uniform,1,1,left,78,78,78,78,0,0,0,78,78,0,0,0,78,78,78,0,0,78,78,0,30-08-21,30-08-21,09:17:31,Thu Sep 30 2021 09:17:31 GMT+0200 (CEST),The main experiment item,yes,0,0,/Users/ethan/Documents/GitHub/OpenSesame/Sternberg/experiment_files,0,0,0,no,mono,no,18,no,white,no,no,768,107,3.6.1,legacy,legacy,5 3 2 6 9 8,osweb,1.4.0,1,0,n,37,,0,left,right,,enter,enter,right,left,1384,64095,,89604,117711,22390,1384,2,legacy,813,1440,24,900,24,14,27,1440,1632986347566,6,1024,2,48000,-16,experiment,1,odd,MacIntel,4,796505,583618,,793242,71,794287,582599,71,89700,286794,798523,795293,799911,71,798523,Sternberg_updated,71,88882,79,yes,1024
90,90,1121,1121,black,no,experiment,Mozilla,Netscape,"5.0 (Macintosh; Intel Mac OS X 10_15_7) AppleWebKit/605.1.15 (KHTML, like Gecko) Version/14.1.2 Safari/605.1.15",legacy,legacy,legacy,0,uniform,1,1,right,79,79,79,79,0,0,0,79,79,0,0,0,79,79,79,0,0,79,79,0,30-08-21,30-08-21,09:17:31,Thu Sep 30 2021 09:17:31 GMT+0200 (CEST),The main experiment item,yes,0,0,/Users/ethan/Documents/GitHub/OpenSesame/Sternberg/experiment_files,0,0,0,no,mono,no,18,no,white,no,no,768,107,3.6.1,legacy,legacy,9 8 4,osweb,1.4.0,1,1,y,37,,0,right,right,,enter,enter,right,right,814,64095,,89604,117711,22390,814,2,legacy,813,1440,24,900,24,14,27,1440,1632986347566,3,1024,2,48000,-16,experiment,1,odd,MacIntel,9,803179,583618,,799914,71,800949,582599,71,89700,286794,805198,801963,806013,71,805198,Sternberg_updated,72,89696,80,yes,1024
90,90,1131,1131,black,no,experiment,Mozilla,Netscape,"5.0 (Macintosh; Intel Mac OS X 10_15_7) AppleWebKit/605.1.15 (KHTML, like Gecko) Version/14.1.2 Safari/605.1.15",legacy,legacy,legacy,0,uniform,1,1,right,80,80,80,80,0,0,0,80,80,0,0,0,80,80,80,0,0,80,80,0,30-08-21,30-08-21,09:17:31,Thu Sep 30 2021 09:17:31 GMT+0200 (CEST),The main experiment item,yes,0,0,/Users/ethan/Documents/GitHub/OpenSesame/Sternberg/experiment_files,0,0,0,no,mono,no,18,no,white,no,no,768,107,3.6.1,legacy,legacy,6 8 9 3 4 9,osweb,1.4.0,1,5,y,37,,0,right,right,,enter,enter,right,right,1908,64095,,89604,117711,22390,1908,2,legacy,813,1440,24,900,24,14,27,1440,1632986347566,6,1024,2,48000,-16,experiment,1,odd,MacIntel,4,809273,583618,,806016,71,807049,582599,71,89700,286794,811280,808067,813197,71,811280,Sternberg_updated,73,91604,81,yes,1024
90,90,1128,1128,black,no,experiment,Mozilla,Netscape,"5.0 (Macintosh; Intel Mac OS X 10_15_7) AppleWebKit/605.1.15 (KHTML, like Gecko) Version/14.1.2 Safari/605.1.15",legacy,legacy,legacy,0,uniform,1,1,left,81,81,81,81,0,0,0,81,81,0,0,0,81,81,81,0,0,81,81,0,30-08-21,30-08-21,09:17:31,Thu Sep 30 2021 09:17:31 GMT+0200 (CEST),The main experiment item,yes,0,0,/Users/ethan/Documents/GitHub/OpenSesame/Sternberg/experiment_files,0,0,0,no,mono,no,18,no,white,no,no,768,107,3.6.1,legacy,legacy,1 7 5 2,osweb,1.4.0,1,0,n,37,,0,left,right,,enter,enter,right,left,896,64095,,89604,117711,22390,896,2,legacy,813,1440,24,900,24,14,27,1440,1632986347566,4,1024,2,48000,-16,experiment,1,odd,MacIntel,3,816468,583618,,813200,71,814236,582599,71,89700,286794,818487,815252,819401,71,818487,Sternberg_updated,74,92500,82,yes,1024
90,90,1132,1132,black,no,experiment,Mozilla,Netscape,"5.0 (Macintosh; Intel Mac OS X 10_15_7) AppleWebKit/605.1.15 (KHTML, like Gecko) Version/14.1.2 Safari/605.1.15",legacy,legacy,legacy,0,uniform,1,1,left,82,82,82,82,0,0,0,82,82,0,0,0,82,82,82,0,0,82,82,0,30-08-21,30-08-21,09:17:31,Thu Sep 30 2021 09:17:31 GMT+0200 (CEST),The main experiment item,yes,0,0,/Users/ethan/Documents/GitHub/OpenSesame/Sternberg/experiment_files,0,0,0,no,mono,no,18,no,white,no,no,768,107,3.6.1,legacy,legacy,6 9 4 5 3 2,osweb,1.4.0,1,0,n,37,,0,left,right,,enter,enter,right,left,1436,64095,,89604,117711,22390,1436,2,legacy,813,1440,24,900,24,14,27,1440,1632986347566,6,1024,2,48000,-16,experiment,1,odd,MacIntel,8,822668,583618,,819406,71,820438,582599,71,89700,286794,824674,821457,826119,71,824674,Sternberg_updated,75,93936,83,yes,1024
90,90,1129,1129,black,no,experiment,Mozilla,Netscape,"5.0 (Macintosh; Intel Mac OS X 10_15_7) AppleWebKit/605.1.15 (KHTML, like Gecko) Version/14.1.2 Safari/605.1.15",legacy,legacy,legacy,0,uniform,1,1,right,83,83,83,83,0,0,0,83,83,0,0,0,83,83,83,0,0,83,83,0,30-08-21,30-08-21,09:17:31,Thu Sep 30 2021 09:17:31 GMT+0200 (CEST),The main experiment item,yes,0,0,/Users/ethan/Documents/GitHub/OpenSesame/Sternberg/experiment_files,0,0,0,no,mono,no,18,no,white,no,no,768,107,3.6.1,legacy,legacy,7 4 2 6 3 5,osweb,1.4.0,1,6,y,37,,0,right,right,,enter,enter,right,right,913,64095,,89604,117711,22390,913,2,legacy,813,1440,24,900,24,14,27,1440,1632986347566,6,1024,2,48000,-16,experiment,1,odd,MacIntel,5,829389,583618,,826122,71,827158,582599,71,89700,286794,831404,828173,832332,71,831404,Sternberg_updated,76,94849,84,yes,1024
91,91,1134,1134,black,no,experiment,Mozilla,Netscape,"5.0 (Macintosh; Intel Mac OS X 10_15_7) AppleWebKit/605.1.15 (KHTML, like Gecko) Version/14.1.2 Safari/605.1.15",legacy,legacy,legacy,0,uniform,1,1,left,84,84,84,84,0,0,0,84,84,0,0,0,84,84,84,0,0,84,84,0,30-08-21,30-08-21,09:17:31,Thu Sep 30 2021 09:17:31 GMT+0200 (CEST),The main experiment item,yes,0,0,/Users/ethan/Documents/GitHub/OpenSesame/Sternberg/experiment_files,0,0,0,no,mono,no,18,no,white,no,no,768,107,3.6.1,legacy,legacy,6 9 4 5 2,osweb,1.4.0,1,0,n,37,,0,left,right,,enter,enter,right,left,1543,64095,,89604,117711,22390,1543,2,legacy,813,1440,24,900,24,14,27,1440,1632986347566,5,1024,2,48000,-16,experiment,1,odd,MacIntel,1,835590,583618,,832335,71,833365,582599,71,89700,286794,837596,834380,839140,71,837596,Sternberg_updated,77,96392,85,yes,1024
91,91,1142,1142,black,no,experiment,Mozilla,Netscape,"5.0 (Macintosh; Intel Mac OS X 10_15_7) AppleWebKit/605.1.15 (KHTML, like Gecko) Version/14.1.2 Safari/605.1.15",legacy,legacy,legacy,0,uniform,1,1,left,85,85,85,85,0,0,0,85,85,0,0,0,85,85,85,0,0,85,85,0,30-08-21,30-08-21,09:17:31,Thu Sep 30 2021 09:17:31 GMT+0200 (CEST),The main experiment item,yes,0,0,/Users/ethan/Documents/GitHub/OpenSesame/Sternberg/experiment_files,0,0,0,no,mono,no,18,no,white,no,no,768,107,3.6.1,legacy,legacy,4 2 6 9,osweb,1.4.0,1,0,n,37,,0,left,right,,enter,enter,right,left,1828,64095,,89604,117711,22390,1828,2,legacy,813,1440,24,900,24,14,27,1440,1632986347566,4,1024,2,48000,-16,experiment,1,odd,MacIntel,7,842411,583618,,839144,71,840180,582599,71,89700,286794,844430,841194,846261,71,844430,Sternberg_updated,78,98220,86,yes,1024
91,91,1141,1141,black,no,experiment,Mozilla,Netscape,"5.0 (Macintosh; Intel Mac OS X 10_15_7) AppleWebKit/605.1.15 (KHTML, like Gecko) Version/14.1.2 Safari/605.1.15",legacy,legacy,legacy,0,uniform,1,1,right,86,86,86,86,0,0,0,86,86,0,0,0,86,86,86,0,0,86,86,0,30-08-21,30-08-21,09:17:31,Thu Sep 30 2021 09:17:31 GMT+0200 (CEST),The main experiment item,yes,0,0,/Users/ethan/Documents/GitHub/OpenSesame/Sternberg/experiment_files,0,0,0,no,mono,no,18,no,white,no,no,768,107,3.6.1,legacy,legacy,1 4 9 3 2 5,osweb,1.4.0,1,3,y,37,,0,right,right,,enter,enter,right,right,1012,64095,,89604,117711,22390,1012,2,legacy,813,1440,24,900,24,14,27,1440,1632986347566,6,1024,2,48000,-16,experiment,1,odd,MacIntel,9,849519,583618,,846265,71,847285,582599,71,89700,286794,851524,848304,852540,71,851524,Sternberg_updated,79,99232,87,yes,1024
91,91,1139,1139,black,no,experiment,Mozilla,Netscape,"5.0 (Macintosh; Intel Mac OS X 10_15_7) AppleWebKit/605.1.15 (KHTML, like Gecko) Version/14.1.2 Safari/605.1.15",legacy,legacy,legacy,0,uniform,1,1,right,87,87,87,87,0,0,0,87,87,0,0,0,87,87,87,0,0,87,87,0,30-08-21,30-08-21,09:17:31,Thu Sep 30 2021 09:17:31 GMT+0200 (CEST),The main experiment item,yes,0,0,/Users/ethan/Documents/GitHub/OpenSesame/Sternberg/experiment_files,0,0,0,no,mono,no,18,no,white,no,no,768,107,3.6.1,legacy,legacy,3 4,osweb,1.4.0,1,1,y,37,,0,right,right,,enter,enter,right,right,980,64095,,89604,117711,22390,980,2,legacy,813,1440,24,900,24,14,27,1440,1632986347566,2,1024,2,48000,-16,experiment,1,odd,MacIntel,3,855813,583618,,852544,71,853585,582599,71,89700,286794,857834,854603,858818,71,857834,Sternberg_updated,80,100212,88,yes,1024
91,91,1135,1135,black,no,experiment,Mozilla,Netscape,"5.0 (Macintosh; Intel Mac OS X 10_15_7) AppleWebKit/605.1.15 (KHTML, like Gecko) Version/14.1.2 Safari/605.1.15",legacy,legacy,legacy,0,uniform,1,1,left,88,88,88,88,0,0,0,88,88,0,0,0,88,88,88,0,0,88,88,0,30-08-21,30-08-21,09:17:31,Thu Sep 30 2021 09:17:31 GMT+0200 (CEST),The main experiment item,yes,0,0,/Users/ethan/Documents/GitHub/OpenSesame/Sternberg/experiment_files,0,0,0,no,mono,no,18,no,white,no,no,768,107,3.6.1,legacy,legacy,5 7 3,osweb,1.4.0,1,0,n,37,,0,left,right,,enter,enter,right,left,782,64095,,89604,117711,22390,782,2,legacy,813,1440,24,900,24,14,27,1440,1632986347566,3,1024,2,48000,-16,experiment,1,odd,MacIntel,9,862089,583618,,858821,71,859858,582599,71,89700,286794,864108,860876,864900,71,864108,Sternberg_updated,81,100994,89,yes,1024
91,91,1135,1135,black,no,experiment,Mozilla,Netscape,"5.0 (Macintosh; Intel Mac OS X 10_15_7) AppleWebKit/605.1.15 (KHTML, like Gecko) Version/14.1.2 Safari/605.1.15",legacy,legacy,legacy,0,uniform,1,1,left,89,89,89,89,0,0,0,89,89,0,0,0,89,89,89,0,0,89,89,0,30-08-21,30-08-21,09:17:31,Thu Sep 30 2021 09:17:31 GMT+0200 (CEST),The main experiment item,yes,0,0,/Users/ethan/Documents/GitHub/OpenSesame/Sternberg/experiment_files,0,0,0,no,mono,no,18,no,white,no,no,768,107,3.6.1,legacy,legacy,2 7 5,osweb,1.4.0,1,0,n,37,,0,left,right,,enter,enter,right,left,1179,64095,,89604,117711,22390,1179,2,legacy,813,1440,24,900,24,14,27,1440,1632986347566,3,1024,2,48000,-16,experiment,1,odd,MacIntel,8,868157,583618,,864904,71,865936,582599,71,89700,286794,870172,866947,871354,71,870172,Sternberg_updated,82,102173,90,yes,1024
91,91,1138,1138,black,no,experiment,Mozilla,Netscape,"5.0 (Macintosh; Intel Mac OS X 10_15_7) AppleWebKit/605.1.15 (KHTML, like Gecko) Version/14.1.2 Safari/605.1.15",legacy,legacy,legacy,0,uniform,1,1,left,90,90,90,90,0,0,0,90,90,0,0,0,90,90,90,0,0,90,90,0,30-08-21,30-08-21,09:17:31,Thu Sep 30 2021 09:17:31 GMT+0200 (CEST),The main experiment item,yes,0,0,/Users/ethan/Documents/GitHub/OpenSesame/Sternberg/experiment_files,0,0,0,no,mono,no,18,no,white,no,no,768,107,3.6.1,legacy,legacy,3 9 8 1 6 4,osweb,1.4.0,1,0,n,37,,0,left,right,,enter,enter,right,left,1359,64095,,89604,117711,22390,1359,2,legacy,813,1440,24,900,24,14,27,1440,1632986347566,6,1024,2,48000,-16,experiment,1,odd,MacIntel,7,874618,583618,,871358,71,872394,582599,71,89700,286794,876635,873408,877997,71,876635,Sternberg_updated,83,103532,91,yes,1024
91,91,1137,1137,black,no,experiment,Mozilla,Netscape,"5.0 (Macintosh; Intel Mac OS X 10_15_7) AppleWebKit/605.1.15 (KHTML, like Gecko) Version/14.1.2 Safari/605.1.15",legacy,legacy,legacy,0,uniform,1,1,right,91,91,91,91,0,0,0,91,91,0,0,0,91,91,91,0,0,91,91,0,30-08-21,30-08-21,09:17:31,Thu Sep 30 2021 09:17:31 GMT+0200 (CEST),The main experiment item,yes,0,0,/Users/ethan/Documents/GitHub/OpenSesame/Sternberg/experiment_files,0,0,0,no,mono,no,18,no,white,no,no,768,107,3.6.1,legacy,legacy,7,osweb,1.4.0,1,1,y,37,,0,right,right,,enter,enter,right,right,1035,64095,,89604,117711,22390,1035,2,legacy,813,1440,24,900,24,14,27,1440,1632986347566,1,1024,2,48000,-16,experiment,1,odd,MacIntel,7,881249,583618,,878001,71,879030,582599,71,89700,286794,883255,880036,884300,71,883255,Sternberg_updated,84,104567,92,yes,1024
91,91,1140,1140,black,no,experiment,Mozilla,Netscape,"5.0 (Macintosh; Intel Mac OS X 10_15_7) AppleWebKit/605.1.15 (KHTML, like Gecko) Version/14.1.2 Safari/605.1.15",legacy,legacy,legacy,0,uniform,1,1,right,92,92,92,92,0,0,0,92,92,0,0,0,92,92,92,0,0,92,92,0,30-08-21,30-08-21,09:17:31,Thu Sep 30 2021 09:17:31 GMT+0200 (CEST),The main experiment item,yes,0,0,/Users/ethan/Documents/GitHub/OpenSesame/Sternberg/experiment_files,0,0,0,no,mono,no,18,no,white,no,no,768,107,3.6.1,legacy,legacy,4 6 2 5 1,osweb,1.4.0,1,5,y,37,,0,right,right,,enter,enter,right,right,1469,64095,,89604,117711,22390,1469,2,legacy,813,1440,24,900,24,14,27,1440,1632986347566,5,1024,2,48000,-16,experiment,1,odd,MacIntel,1,887571,583618,,884304,71,885339,582599,71,89700,286794,889590,886354,891071,71,889589,Sternberg_updated,85,106036,93,yes,1024
91,91,1143,1143,black,no,experiment,Mozilla,Netscape,"5.0 (Macintosh; Intel Mac OS X 10_15_7) AppleWebKit/605.1.15 (KHTML, like Gecko) Version/14.1.2 Safari/605.1.15",legacy,legacy,legacy,0,uniform,1,1,left,93,93,93,93,0,0,0,93,93,0,0,0,93,93,93,0,0,93,93,0,30-08-21,30-08-21,09:17:31,Thu Sep 30 2021 09:17:31 GMT+0200 (CEST),The main experiment item,yes,0,0,/Users/ethan/Documents/GitHub/OpenSesame/Sternberg/experiment_files,0,0,0,no,mono,no,18,no,white,no,no,768,107,3.6.1,legacy,legacy,6 3 1 7 9 8,osweb,1.4.0,1,0,n,37,,0,left,right,,enter,enter,right,left,1370,64095,,89604,117711,22390,1370,2,legacy,813,1440,24,900,24,14,27,1440,1632986347566,6,1024,2,48000,-16,experiment,1,odd,MacIntel,4,894339,583618,,891076,71,892108,582599,71,89700,286794,896345,893127,897722,71,896345,Sternberg_updated,86,107406,94,yes,1024
92,92,1140,1140,black,no,experiment,Mozilla,Netscape,"5.0 (Macintosh; Intel Mac OS X 10_15_7) AppleWebKit/605.1.15 (KHTML, like Gecko) Version/14.1.2 Safari/605.1.15",legacy,legacy,legacy,0,uniform,1,1,left,94,94,94,94,0,0,0,94,94,0,0,0,94,94,94,0,0,94,94,0,30-08-21,30-08-21,09:17:31,Thu Sep 30 2021 09:17:31 GMT+0200 (CEST),The main experiment item,yes,0,0,/Users/ethan/Documents/GitHub/OpenSesame/Sternberg/experiment_files,0,0,0,no,mono,no,18,no,white,no,no,768,107,3.6.1,legacy,legacy,6 7 5 9,osweb,1.4.0,1,0,n,37,,0,left,right,,enter,enter,right,left,875,64095,,89604,117711,22390,875,2,legacy,813,1440,24,900,24,14,27,1440,1632986347566,4,1024,2,48000,-16,experiment,1,odd,MacIntel,2,900994,583618,,897725,71,898761,582599,71,89700,286794,903013,899777,903893,71,903012,Sternberg_updated,87,108281,95,yes,1024
92,92,1137,1137,black,no,experiment,Mozilla,Netscape,"5.0 (Macintosh; Intel Mac OS X 10_15_7) AppleWebKit/605.1.15 (KHTML, like Gecko) Version/14.1.2 Safari/605.1.15",legacy,legacy,legacy,0,uniform,1,1,right,95,95,95,95,0,0,0,95,95,0,0,0,95,95,95,0,0,95,95,0,30-08-21,30-08-21,09:17:31,Thu Sep 30 2021 09:17:31 GMT+0200 (CEST),The main experiment item,yes,0,0,/Users/ethan/Documents/GitHub/OpenSesame/Sternberg/experiment_files,0,0,0,no,mono,no,18,no,white,no,no,768,107,3.6.1,legacy,legacy,2 4 8 5 1 3,osweb,1.4.0,1,1,y,37,,0,right,right,,enter,enter,right,right,846,64095,,89604,117711,22390,846,2,legacy,813,1440,24,900,24,14,27,1440,1632986347566,6,1024,2,48000,-16,experiment,1,odd,MacIntel,2,907155,583618,,903896,71,904931,582599,71,89700,286794,909166,905949,910026,71,909166,Sternberg_updated,88,109127,96,yes,1024
92,92,1137,1137,black,no,experiment,Mozilla,Netscape,"5.0 (Macintosh; Intel Mac OS X 10_15_7) AppleWebKit/605.1.15 (KHTML, like Gecko) Version/14.1.2 Safari/605.1.15",legacy,legacy,legacy,0,uniform,1,1,left,96,96,96,96,0,0,0,96,96,0,0,0,96,96,96,0,0,96,96,0,30-08-21,30-08-21,09:17:31,Thu Sep 30 2021 09:17:31 GMT+0200 (CEST),The main experiment item,yes,0,0,/Users/ethan/Documents/GitHub/OpenSesame/Sternberg/experiment_files,0,0,0,no,mono,no,18,no,white,no,no,768,107,3.6.1,legacy,legacy,6 9 7 3 8 2,osweb,1.4.0,1,0,n,37,,0,left,right,,enter,enter,right,left,1136,64095,,89604,117711,22390,1136,2,legacy,813,1440,24,900,24,14,27,1440,1632986347566,6,1024,2,48000,-16,experiment,1,odd,MacIntel,5,913293,583618,,910031,71,911069,582599,71,89700,286794,915307,912083,916457,71,915307,Sternberg_updated,89,110263,97,yes,1024
92,92,1133,1133,black,no,experiment,Mozilla,Netscape,"5.0 (Macintosh; Intel Mac OS X 10_15_7) AppleWebKit/605.1.15 (KHTML, like Gecko) Version/14.1.2 Safari/605.1.15",legacy,legacy,legacy,0,uniform,1,1,right,97,97,97,97,0,0,0,97,97,0,0,0,97,97,97,0,0,97,97,0,30-08-21,30-08-21,09:17:31,Thu Sep 30 2021 09:17:31 GMT+0200 (CEST),The main experiment item,yes,0,0,/Users/ethan/Documents/GitHub/OpenSesame/Sternberg/experiment_files,0,0,0,no,mono,no,18,no,white,no,no,768,107,3.6.1,legacy,legacy,3 5 9 6 2 4,osweb,1.4.0,1,1,y,37,,0,right,right,right,enter,enter,right,right,776,64095,127342,89604,117711,22390,776,2,legacy,813,1440,24,900,24,14,27,1440,1632986347566,6,1024,2,48000,-16,experiment,1,odd,MacIntel,3,1047084,583618,917485,916462,71,1044858,582599,71,89700,286794,1049095,1045877,1049886,71,1049094,Sternberg_updated,90,111039,98,yes,1024
92,92,1129,1129,black,no,experiment,Mozilla,Netscape,"5.0 (Macintosh; Intel Mac OS X 10_15_7) AppleWebKit/605.1.15 (KHTML, like Gecko) Version/14.1.2 Safari/605.1.15",legacy,legacy,legacy,0,uniform,1,1,right,98,98,98,98,0,0,0,98,98,0,0,0,98,98,98,0,0,98,98,0,30-08-21,30-08-21,09:17:31,Thu Sep 30 2021 09:17:31 GMT+0200 (CEST),The main experiment item,yes,0,0,/Users/ethan/Documents/GitHub/OpenSesame/Sternberg/experiment_files,0,0,0,no,mono,no,18,no,white,no,no,768,107,3.6.1,legacy,legacy,5 2 9 6 1 7,osweb,1.4.0,1,3,y,37,,0,right,right,right,enter,enter,right,right,757,64095,127342,89604,117711,22390,757,2,legacy,813,1440,24,900,24,14,27,1440,1632986347566,6,1024,2,48000,-16,experiment,1,odd,MacIntel,9,1053139,583618,917485,1049891,71,1050918,582599,71,89700,286794,1055144,1051925,1055906,71,1055144,Sternberg_updated,91,111796,99,yes,1024
92,92,1126,1126,black,no,experiment,Mozilla,Netscape,"5.0 (Macintosh; Intel Mac OS X 10_15_7) AppleWebKit/605.1.15 (KHTML, like Gecko) Version/14.1.2 Safari/605.1.15",legacy,legacy,legacy,0,uniform,1,1,left,99,99,99,99,0,0,0,99,99,0,0,0,99,99,99,0,0,99,99,0,30-08-21,30-08-21,09:17:31,Thu Sep 30 2021 09:17:31 GMT+0200 (CEST),The main experiment item,yes,0,0,/Users/ethan/Documents/GitHub/OpenSesame/Sternberg/experiment_files,0,0,0,no,mono,no,18,no,white,no,no,768,107,3.6.1,legacy,legacy,7 9 1 6,osweb,1.4.0,1,0,n,37,,0,left,right,right,enter,enter,right,left,816,64095,127342,89604,117711,22390,816,2,legacy,813,1440,24,900,24,14,27,1440,1632986347566,4,1024,2,48000,-16,experiment,1,odd,MacIntel,4,1059177,583618,917485,1055909,71,1056945,582599,71,89700,286794,1061195,1057959,1062027,71,1061195,Sternberg_updated,92,112612,100,yes,1024
92,92,1125,1125,black,no,experiment,Mozilla,Netscape,"5.0 (Macintosh; Intel Mac OS X 10_15_7) AppleWebKit/605.1.15 (KHTML, like Gecko) Version/14.1.2 Safari/605.1.15",legacy,legacy,legacy,0,uniform,1,1,left,100,100,100,100,0,0,0,100,100,0,0,0,100,100,100,0,0,100,100,0,30-08-21,30-08-21,09:17:31,Thu Sep 30 2021 09:17:31 GMT+0200 (CEST),The main experiment item,yes,0,0,/Users/ethan/Documents/GitHub/OpenSesame/Sternberg/experiment_files,0,0,0,no,mono,no,18,no,white,no,no,768,107,3.6.1,legacy,legacy,1 4 3 6 5,osweb,1.4.0,1,0,n,37,,0,left,right,right,enter,enter,right,left,991,64095,127342,89604,117711,22390,991,2,legacy,813,1440,24,900,24,14,27,1440,1632986347566,5,1024,2,48000,-16,experiment,1,odd,MacIntel,8,1065293,583618,917485,1062031,71,1063064,582599,71,89700,286794,1067301,1064081,1068297,71,1067301,Sternberg_updated,93,113603,101,yes,1024
92,92,1124,1124,black,no,experiment,Mozilla,Netscape,"5.0 (Macintosh; Intel Mac OS X 10_15_7) AppleWebKit/605.1.15 (KHTML, like Gecko) Version/14.1.2 Safari/605.1.15",legacy,legacy,legacy,0,uniform,1,1,left,101,101,101,101,0,0,0,101,101,0,0,0,101,101,101,0,0,101,101,0,30-08-21,30-08-21,09:17:31,Thu Sep 30 2021 09:17:31 GMT+0200 (CEST),The main experiment item,yes,0,0,/Users/ethan/Documents/GitHub/OpenSesame/Sternberg/experiment_files,0,0,0,no,mono,no,18,no,white,no,no,768,107,3.6.1,legacy,legacy,3 4 2,osweb,1.4.0,1,0,n,37,,0,left,right,right,enter,enter,right,left,1091,64095,127342,89604,117711,22390,1091,2,legacy,813,1440,24,900,24,14,27,1440,1632986347566,3,1024,2,48000,-16,experiment,1,odd,MacIntel,5,1071574,583618,917485,1068301,71,1069353,582599,71,89700,286794,1073593,1070370,1074693,71,1073593,Sternberg_updated,94,114694,102,yes,1024
92,92,1120,1120,black,no,experiment,Mozilla,Netscape,"5.0 (Macintosh; Intel Mac OS X 10_15_7) AppleWebKit/605.1.15 (KHTML, like Gecko) Version/14.1.2 Safari/605.1.15",legacy,legacy,legacy,0,uniform,1,1,left,102,102,102,102,0,0,0,102,102,0,0,0,102,102,102,0,0,102,102,0,30-08-21,30-08-21,09:17:31,Thu Sep 30 2021 09:17:31 GMT+0200 (CEST),The main experiment item,yes,0,0,/Users/ethan/Documents/GitHub/OpenSesame/Sternberg/experiment_files,0,0,0,no,mono,no,18,no,white,no,no,768,107,3.6.1,legacy,legacy,7 1 5 6 3,osweb,1.4.0,1,0,n,37,,0,left,right,right,enter,enter,right,left,658,64095,127342,89604,117711,22390,658,2,legacy,813,1440,24,900,24,14,27,1440,1632986347566,5,1024,2,48000,-16,experiment,1,odd,MacIntel,8,1077976,583618,917485,1074698,71,1075747,582599,71,89700,286794,1079983,1076762,1080645,71,1079983,Sternberg_updated,95,115352,103,yes,1024
92,92,1121,1121,black,no,experiment,Mozilla,Netscape,"5.0 (Macintosh; Intel Mac OS X 10_15_7) AppleWebKit/605.1.15 (KHTML, like Gecko) Version/14.1.2 Safari/605.1.15",legacy,legacy,legacy,0,uniform,1,1,right,103,103,103,103,0,0,0,103,103,0,0,0,103,103,103,0,0,103,103,0,30-08-21,30-08-21,09:17:31,Thu Sep 30 2021 09:17:31 GMT+0200 (CEST),The main experiment item,yes,0,0,/Users/ethan/Documents/GitHub/OpenSesame/Sternberg/experiment_files,0,0,0,no,mono,no,18,no,white,no,no,768,107,3.6.1,legacy,legacy,5 2 6,osweb,1.4.0,1,2,y,37,,0,right,right,right,enter,enter,right,right,1216,64095,127342,89604,117711,22390,1216,2,legacy,813,1440,24,900,24,14,27,1440,1632986347566,3,1024,2,48000,-16,experiment,1,odd,MacIntel,2,1083915,583618,917485,1080649,71,1081692,582599,71,89700,286794,1085934,1082698,1087166,71,1085934,Sternberg_updated,96,116568,104,yes,1024
92,92,1119,1119,black,no,experiment,Mozilla,Netscape,"5.0 (Macintosh; Intel Mac OS X 10_15_7) AppleWebKit/605.1.15 (KHTML, like Gecko) Version/14.1.2 Safari/605.1.15",legacy,legacy,legacy,0,uniform,1,1,right,104,104,104,104,0,0,0,104,104,0,0,0,104,104,104,0,0,104,104,0,30-08-21,30-08-21,09:17:31,Thu Sep 30 2021 09:17:31 GMT+0200 (CEST),The main experiment item,yes,0,0,/Users/ethan/Documents/GitHub/OpenSesame/Sternberg/experiment_files,0,0,0,no,mono,no,18,no,white,no,no,768,107,3.6.1,legacy,legacy,3 2 1 4 7,osweb,1.4.0,1,2,y,37,,0,right,right,right,enter,enter,right,right,913,64095,127342,89604,117711,22390,913,2,legacy,813,1440,24,900,24,14,27,1440,1632986347566,5,1024,2,48000,-16,experiment,1,odd,MacIntel,2,1090433,583618,917485,1087171,71,1088212,582599,71,89700,286794,1092441,1089220,1093371,71,1092441,Sternberg_updated,97,117481,105,yes,1024
92,92,1116,1116,black,no,experiment,Mozilla,Netscape,"5.0 (Macintosh; Intel Mac OS X 10_15_7) AppleWebKit/605.1.15 (KHTML, like Gecko) Version/14.1.2 Safari/605.1.15",legacy,legacy,legacy,0,uniform,1,1,right,105,105,105,105,0,0,0,105,105,0,0,0,105,105,105,0,0,105,105,0,30-08-21,30-08-21,09:17:31,Thu Sep 30 2021 09:17:31 GMT+0200 (CEST),The main experiment item,yes,0,0,/Users/ethan/Documents/GitHub/OpenSesame/Sternberg/experiment_files,0,0,0,no,mono,no,18,no,white,no,no,768,107,3.6.1,legacy,legacy,8 7 3,osweb,1.4.0,1,1,y,37,,0,right,right,right,enter,enter,right,right,786,64095,127342,89604,117711,22390,786,2,legacy,813,1440,24,900,24,14,27,1440,1632986347566,3,1024,2,48000,-16,experiment,1,odd,MacIntel,8,1096626,583618,917485,1093375,71,1094418,582599,71,89700,286794,1098646,1095424,1099446,71,1098646,Sternberg_updated,98,118267,106,yes,1024
93,93,1112,1112,black,no,experiment,Mozilla,Netscape,"5.0 (Macintosh; Intel Mac OS X 10_15_7) AppleWebKit/605.1.15 (KHTML, like Gecko) Version/14.1.2 Safari/605.1.15",legacy,legacy,legacy,0,uniform,1,1,right,106,106,106,106,0,0,0,106,106,0,0,0,106,106,106,0,0,106,106,0,30-08-21,30-08-21,09:17:31,Thu Sep 30 2021 09:17:31 GMT+0200 (CEST),The main experiment item,yes,0,0,/Users/ethan/Documents/GitHub/OpenSesame/Sternberg/experiment_files,0,0,0,no,mono,no,18,no,white,no,no,768,107,3.6.1,legacy,legacy,6 9 7 4 5 1,osweb,1.4.0,1,2,y,37,,0,right,right,right,enter,enter,right,right,762,64095,127342,89604,117711,22390,762,2,legacy,813,1440,24,900,24,14,27,1440,1632986347566,6,1024,2,48000,-16,experiment,1,odd,MacIntel,9,1102708,583618,917485,1099449,71,1100488,582599,71,89700,286794,1104715,1101495,1105481,71,1104715,Sternberg_updated,99,119029,107,yes,1024
93,93,1110,1110,black,no,experiment,Mozilla,Netscape,"5.0 (Macintosh; Intel Mac OS X 10_15_7) AppleWebKit/605.1.15 (KHTML, like Gecko) Version/14.1.2 Safari/605.1.15",legacy,legacy,legacy,0,uniform,1,1,right,107,107,107,107,0,0,0,107,107,0,0,0,107,107,107,0,0,107,107,0,30-08-21,30-08-21,09:17:31,Thu Sep 30 2021 09:17:31 GMT+0200 (CEST),The main experiment item,yes,0,0,/Users/ethan/Documents/GitHub/OpenSesame/Sternberg/experiment_files,0,0,0,no,mono,no,18,no,white,no,no,768,107,3.6.1,legacy,legacy,6 2,osweb,1.4.0,1,1,y,37,,0,right,right,right,enter,enter,right,right,819,64095,127342,89604,117711,22390,819,2,legacy,813,1440,24,900,24,14,27,1440,1632986347566,2,1024,2,48000,-16,experiment,1,odd,MacIntel,6,1108759,583618,917485,1105485,71,1106529,582599,71,89700,286794,1110768,1107548,1111601,71,1110768,Sternberg_updated,100,119848,108,yes,1024
93,93,1116,1116,black,no,experiment,Mozilla,Netscape,"5.0 (Macintosh; Intel Mac OS X 10_15_7) AppleWebKit/605.1.15 (KHTML, like Gecko) Version/14.1.2 Safari/605.1.15",legacy,legacy,legacy,0,uniform,1,1,left,108,108,108,108,0,0,0,108,108,0,0,0,108,108,108,0,0,108,108,0,30-08-21,30-08-21,09:17:31,Thu Sep 30 2021 09:17:31 GMT+0200 (CEST),The main experiment item,yes,0,0,/Users/ethan/Documents/GitHub/OpenSesame/Sternberg/experiment_files,0,0,0,no,mono,no,18,no,white,no,no,768,107,3.6.1,legacy,legacy,5 2,osweb,1.4.0,1,0,n,37,,0,left,right,right,enter,enter,right,left,1749,64095,127342,89604,117711,22390,1749,2,legacy,813,1440,24,900,24,14,27,1440,1632986347566,2,1024,2,48000,-16,experiment,1,odd,MacIntel,7,1114865,583618,917485,1111605,71,1112642,582599,71,89700,286794,1116877,1113653,1118639,71,1116877,Sternberg_updated,101,121597,109,yes,1024
93,93,1112,1112,black,no,experiment,Mozilla,Netscape,"5.0 (Macintosh; Intel Mac OS X 10_15_7) AppleWebKit/605.1.15 (KHTML, like Gecko) Version/14.1.2 Safari/605.1.15",legacy,legacy,legacy,0,uniform,1,1,left,109,109,109,109,0,0,0,109,109,0,0,0,109,109,109,0,0,109,109,0,30-08-21,30-08-21,09:17:31,Thu Sep 30 2021 09:17:31 GMT+0200 (CEST),The main experiment item,yes,0,0,/Users/ethan/Documents/GitHub/OpenSesame/Sternberg/experiment_files,0,0,0,no,mono,no,18,no,white,no,no,768,107,3.6.1,legacy,legacy,1,osweb,1.4.0,1,0,n,37,,0,left,right,right,enter,enter,right,left,741,64095,127342,89604,117711,22390,741,2,legacy,813,1440,24,900,24,14,27,1440,1632986347566,1,1024,2,48000,-16,experiment,1,odd,MacIntel,7,1121895,583618,917485,1118644,71,1119667,582599,71,89700,286794,1123915,1120685,1124657,71,1123915,Sternberg_updated,102,122338,110,yes,1024
93,93,1109,1109,black,no,experiment,Mozilla,Netscape,"5.0 (Macintosh; Intel Mac OS X 10_15_7) AppleWebKit/605.1.15 (KHTML, like Gecko) Version/14.1.2 Safari/605.1.15",legacy,legacy,legacy,0,uniform,1,1,right,110,110,110,110,0,0,0,110,110,0,0,0,110,110,110,0,0,110,110,0,30-08-21,30-08-21,09:17:31,Thu Sep 30 2021 09:17:31 GMT+0200 (CEST),The main experiment item,yes,0,0,/Users/ethan/Documents/GitHub/OpenSesame/Sternberg/experiment_files,0,0,0,no,mono,no,18,no,white,no,no,768,107,3.6.1,legacy,legacy,2 4 6 9,osweb,1.4.0,1,3,y,37,,0,right,right,right,enter,enter,right,right,773,64095,127342,89604,117711,22390,773,2,legacy,813,1440,24,900,24,14,27,1440,1632986347566,4,1024,2,48000,-16,experiment,1,odd,MacIntel,6,1127928,583618,917485,1124660,71,1125696,582599,71,89700,286794,1129947,1126712,1130728,71,1129947,Sternberg_updated,103,123111,111,yes,1024
93,93,1108,1108,black,no,experiment,Mozilla,Netscape,"5.0 (Macintosh; Intel Mac OS X 10_15_7) AppleWebKit/605.1.15 (KHTML, like Gecko) Version/14.1.2 Safari/605.1.15",legacy,legacy,legacy,0,uniform,1,1,right,111,111,111,111,0,0,0,111,111,0,0,0,111,111,111,0,0,111,111,0,30-08-21,30-08-21,09:17:31,Thu Sep 30 2021 09:17:31 GMT+0200 (CEST),The main experiment item,yes,0,0,/Users/ethan/Documents/GitHub/OpenSesame/Sternberg/experiment_files,0,0,0,no,mono,no,18,no,white,no,no,768,107,3.6.1,legacy,legacy,9 6 2 4 1,osweb,1.4.0,1,4,y,37,,0,right,right,right,enter,enter,right,right,930,64095,127342,89604,117711,22390,930,2,legacy,813,1440,24,900,24,14,27,1440,1632986347566,5,1024,2,48000,-16,experiment,1,odd,MacIntel,4,1133981,583618,917485,1130732,71,1131755,582599,71,89700,286794,1135995,1132772,1136930,71,1135994,Sternberg_updated,104,124041,112,yes,1024
93,93,1105,1105,black,no,experiment,Mozilla,Netscape,"5.0 (Macintosh; Intel Mac OS X 10_15_7) AppleWebKit/605.1.15 (KHTML, like Gecko) Version/14.1.2 Safari/605.1.15",legacy,legacy,legacy,0,uniform,1,1,right,112,112,112,112,0,0,0,112,112,0,0,0,112,112,112,0,0,112,112,0,30-08-21,30-08-21,09:17:31,Thu Sep 30 2021 09:17:31 GMT+0200 (CEST),The main experiment item,yes,0,0,/Users/ethan/Documents/GitHub/OpenSesame/Sternberg/experiment_files,0,0,0,no,mono,no,18,no,white,no,no,768,107,3.6.1,legacy,legacy,8 3,osweb,1.4.0,1,2,y,37,,0,right,right,right,enter,enter,right,right,807,64095,127342,89604,117711,22390,807,2,legacy,813,1440,24,900,24,14,27,1440,1632986347566,2,1024,2,48000,-16,experiment,1,odd,MacIntel,3,1140171,583618,917485,1136933,71,1137959,582599,71,89700,286794,1142177,1138967,1142989,71,1142177,Sternberg_updated,105,124848,113,yes,1024
93,93,1108,1108,black,no,experiment,Mozilla,Netscape,"5.0 (Macintosh; Intel Mac OS X 10_15_7) AppleWebKit/605.1.15 (KHTML, like Gecko) Version/14.1.2 Safari/605.1.15",legacy,legacy,legacy,0,uniform,1,1,right,113,113,113,113,0,0,0,113,113,0,0,0,113,113,113,0,0,113,113,0,30-08-21,30-08-21,09:17:31,Thu Sep 30 2021 09:17:31 GMT+0200 (CEST),The main experiment item,yes,0,0,/Users/ethan/Documents/GitHub/OpenSesame/Sternberg/experiment_files,0,0,0,no,mono,no,18,no,white,no,no,768,107,3.6.1,legacy,legacy,6 7 8 5,osweb,1.4.0,1,3,y,37,,0,right,right,right,enter,enter,right,right,1504,64095,127342,89604,117711,22390,1504,2,legacy,813,1440,24,900,24,14,27,1440,1632986347566,4,1024,2,48000,-16,experiment,1,odd,MacIntel,8,1146257,583618,917485,1142992,71,1144034,582599,71,89700,286794,1148275,1145042,1149789,71,1148275,Sternberg_updated,106,126352,114,yes,1024
93,93,1105,1105,black,no,experiment,Mozilla,Netscape,"5.0 (Macintosh; Intel Mac OS X 10_15_7) AppleWebKit/605.1.15 (KHTML, like Gecko) Version/14.1.2 Safari/605.1.15",legacy,legacy,legacy,0,uniform,1,1,right,114,114,114,114,0,0,0,114,114,0,0,0,114,114,114,0,0,114,114,0,30-08-21,30-08-21,09:17:31,Thu Sep 30 2021 09:17:31 GMT+0200 (CEST),The main experiment item,yes,0,0,/Users/ethan/Documents/GitHub/OpenSesame/Sternberg/experiment_files,0,0,0,no,mono,no,18,no,white,no,no,768,107,3.6.1,legacy,legacy,9 4 2,osweb,1.4.0,1,1,y,37,,0,right,right,right,enter,enter,right,right,776,64095,127342,89604,117711,22390,776,2,legacy,813,1440,24,900,24,14,27,1440,1632986347566,3,1024,2,48000,-16,experiment,1,odd,MacIntel,9,1153056,583618,917485,1149793,71,1150829,582599,71,89700,286794,1155062,1151843,1155839,71,1155062,Sternberg_updated,107,127128,115,yes,1024
93,93,1102,1102,black,no,experiment,Mozilla,Netscape,"5.0 (Macintosh; Intel Mac OS X 10_15_7) AppleWebKit/605.1.15 (KHTML, like Gecko) Version/14.1.2 Safari/605.1.15",legacy,legacy,legacy,0,uniform,1,1,right,115,115,115,115,0,0,0,115,115,0,0,0,115,115,115,0,0,115,115,0,30-08-21,30-08-21,09:17:31,Thu Sep 30 2021 09:17:31 GMT+0200 (CEST),The main experiment item,yes,0,0,/Users/ethan/Documents/GitHub/OpenSesame/Sternberg/experiment_files,0,0,0,no,mono,no,18,no,white,no,no,768,107,3.6.1,legacy,legacy,7 2 3,osweb,1.4.0,1,3,y,37,,0,right,right,right,enter,enter,right,right,702,64095,127342,89604,117711,22390,702,2,legacy,813,1440,24,900,24,14,27,1440,1632986347566,3,1024,2,48000,-16,experiment,1,odd,MacIntel,3,1159109,583618,917485,1155843,71,1156879,582599,71,89700,286794,1161115,1157898,1161827,71,1161115,Sternberg_updated,108,127830,116,yes,1024
93,93,1102,1102,black,no,experiment,Mozilla,Netscape,"5.0 (Macintosh; Intel Mac OS X 10_15_7) AppleWebKit/605.1.15 (KHTML, like Gecko) Version/14.1.2 Safari/605.1.15",legacy,legacy,legacy,0,uniform,1,1,left,116,116,116,116,0,0,0,116,116,0,0,0,116,116,116,0,0,116,116,0,30-08-21,30-08-21,09:17:31,Thu Sep 30 2021 09:17:31 GMT+0200 (CEST),The main experiment item,yes,0,0,/Users/ethan/Documents/GitHub/OpenSesame/Sternberg/experiment_files,0,0,0,no,mono,no,18,no,white,no,no,768,107,3.6.1,legacy,legacy,7 3 2 8,osweb,1.4.0,1,0,n,37,,0,left,right,right,enter,enter,right,left,1115,64095,127342,89604,117711,22390,1115,2,legacy,813,1440,24,900,24,14,27,1440,1632986347566,4,1024,2,48000,-16,experiment,1,odd,MacIntel,4,1165094,583618,917485,1161830,71,1162865,582599,71,89700,286794,1167118,1163879,1168245,71,1167118,Sternberg_updated,109,128945,117,yes,1024
93,93,1101,1101,black,no,experiment,Mozilla,Netscape,"5.0 (Macintosh; Intel Mac OS X 10_15_7) AppleWebKit/605.1.15 (KHTML, like Gecko) Version/14.1.2 Safari/605.1.15",legacy,legacy,legacy,0,uniform,1,1,left,117,117,117,117,0,0,0,117,117,0,0,0,117,117,117,0,0,117,117,0,30-08-21,30-08-21,09:17:31,Thu Sep 30 2021 09:17:31 GMT+0200 (CEST),The main experiment item,yes,0,0,/Users/ethan/Documents/GitHub/OpenSesame/Sternberg/experiment_files,0,0,0,no,mono,no,18,no,white,no,no,768,107,3.6.1,legacy,legacy,8 2 1 4 5 9,osweb,1.4.0,1,0,n,37,,0,left,right,right,enter,enter,right,left,1018,64095,127342,89604,117711,22390,1018,2,legacy,813,1440,24,900,24,14,27,1440,1632986347566,6,1024,2,48000,-16,experiment,1,odd,MacIntel,7,1171509,583618,917485,1168248,71,1169279,582599,71,89700,286794,1173515,1170296,1174546,71,1173515,Sternberg_updated,110,129963,118,yes,1024
93,93,1101,1101,black,no,experiment,Mozilla,Netscape,"5.0 (Macintosh; Intel Mac OS X 10_15_7) AppleWebKit/605.1.15 (KHTML, like Gecko) Version/14.1.2 Safari/605.1.15",legacy,legacy,legacy,0,uniform,1,1,right,118,118,118,118,0,0,0,118,118,0,0,0,118,118,118,0,0,118,118,0,30-08-21,30-08-21,09:17:31,Thu Sep 30 2021 09:17:31 GMT+0200 (CEST),The main experiment item,yes,0,0,/Users/ethan/Documents/GitHub/OpenSesame/Sternberg/experiment_files,0,0,0,no,mono,no,18,no,white,no,no,768,107,3.6.1,legacy,legacy,5 7 8 2 3 8,osweb,1.4.0,1,5,y,37,,0,right,right,right,enter,enter,right,right,1031,64095,127342,89604,117711,22390,1031,2,legacy,813,1440,24,900,24,14,27,1440,1632986347566,6,1024,2,48000,-16,experiment,1,odd,MacIntel,3,1177819,583618,917485,1174550,71,1175587,582599,71,89700,286794,1179823,1176603,1180855,71,1179823,Sternberg_updated,111,130994,119,yes,1024
93,93,1101,1101,black,no,experiment,Mozilla,Netscape,"5.0 (Macintosh; Intel Mac OS X 10_15_7) AppleWebKit/605.1.15 (KHTML, like Gecko) Version/14.1.2 Safari/605.1.15",legacy,legacy,legacy,0,uniform,1,1,left,119,119,119,119,0,0,0,119,119,0,0,0,119,119,119,0,0,119,119,0,30-08-21,30-08-21,09:17:31,Thu Sep 30 2021 09:17:31 GMT+0200 (CEST),The main experiment item,yes,0,0,/Users/ethan/Documents/GitHub/OpenSesame/Sternberg/experiment_files,0,0,0,no,mono,no,18,no,white,no,no,768,107,3.6.1,legacy,legacy,1 3 2 6 9,osweb,1.4.0,1,0,n,37,,0,left,right,right,enter,enter,right,left,1098,64095,127342,89604,117711,22390,1098,2,legacy,813,1440,24,900,24,14,27,1440,1632986347566,5,1024,2,48000,-16,experiment,1,odd,MacIntel,5,1184125,583618,917485,1180858,71,1181892,582599,71,89700,286794,1186131,1182910,1187246,71,1186131,Sternberg_updated,112,132092,120,yes,1024
