acc,accuracy,average_response_time,avg_rt,background,bidi,block,browser_codename,browser_name,browser_version,canvas_backend,clock_backend,color_backend,compensation,coordinates,correct,correct_keyboard_response,correct_response,count_ISI,count_break1,count_break_2,count_correct_feedback,count_credits,count_experiment,count_experimentLoop,count_fixation,count_incorrect_feedback,count_instructions1a,count_instructions1b,count_instructions2,count_keyboard_response,count_memory_set,count_new_logger,count_osweb,count_practiceLoop,count_practiceSequence,count_probe,count_thankYou,date_startdate,date_startdateUTC,date_starttime,datetime,description,disable_garbage_collection,experiment_debug,experiment_parameters,experiment_path,experiment_pilot,experiment_taskname,experiment_taskversion,font_bold,font_family,font_italic,font_size,font_underline,foreground,form_clicks,fullscreen,height,jatosStudyResultId,jatosVersion,keyboard_backend,mouse_backend,numberSet,opensesame_codename,opensesame_version,penwidth,posInSet,present,queryParams_batchId,queryParams_generalMultiple,repeat_cycle,response,response_break1,response_break_2,response_instructions1a,response_instructions1b,response_instructions2,response_keyboard_response,response_time,response_time_break1,response_time_break_2,response_time_instructions1a,response_time_instructions1b,response_time_instructions2,response_time_keyboard_response,round_decimals,sampler_backend,screen_availableHeight,screen_availableWidth,screen_colorDepth,screen_height,screen_pixelDepth,screen_screenX,screen_screenY,screen_width,sessionid,setSize,sound_buf_size,sound_channels,sound_freq,sound_sample_size,start,subject_nr,subject_parity,system_os,target,time_ISI,time_break1,time_break_2,time_correct_feedback,time_experimentLoop,time_fixation,time_incorrect_feedback,time_instructions1a,time_instructions1b,time_instructions2,time_keyboard_response,time_memory_set,time_new_logger,time_practiceLoop,time_probe,title,total_correct,total_response_time,total_responses,uniform_coordinates,width
100,100,796,796,black,no,practice,Mozilla,Netscape,"5.0 (Windows NT 10.0; Win64; x64) AppleWebKit/537.36 (KHTML, like Gecko) Chrome/94.0.4606.61 Safari/537.36",legacy,legacy,legacy,0,uniform,1,1,right,0,0,0,0,0,0,0,0,0,0,0,0,0,0,0,0,0,0,0,0,30-08-21,30-08-21,09:18:08,Thu Sep 30 2021 09:18:08 GMT+0200 (Centraleuropæisk sommertid),The main experiment item,yes,0,0,/Users/ethan/Documents/GitHub/OpenSesame/Sternberg/experiment_files,0,0,0,no,mono,no,18,no,white,no,no,768,109,3.6.1,legacy,legacy,2 9 4,osweb,1.4.0,1,3,y,37,,0,right,,,space,up,,right,796,,,21763,21414,,796,2,legacy,680,1280,24,720,24,0,0,1280,1632986290185,3,1024,2,48000,-16,experiment,1,odd,Win32,4,45577,,,,83,43350,,83,21857,,47596,44361,48393,83,47594,Sternberg_updated,1,796,1,yes,1024
100,100,816,816,black,no,practice,Mozilla,Netscape,"5.0 (Windows NT 10.0; Win64; x64) AppleWebKit/537.36 (KHTML, like Gecko) Chrome/94.0.4606.61 Safari/537.36",legacy,legacy,legacy,0,uniform,1,1,right,1,1,1,1,0,0,0,1,1,0,0,0,1,1,1,0,0,1,1,0,30-08-21,30-08-21,09:18:08,Thu Sep 30 2021 09:18:08 GMT+0200 (Centraleuropæisk sommertid),The main experiment item,yes,0,0,/Users/ethan/Documents/GitHub/OpenSesame/Sternberg/experiment_files,0,0,0,no,mono,no,18,no,white,no,no,768,109,3.6.1,legacy,legacy,4 8,osweb,1.4.0,1,1,y,37,,0,right,,,space,up,,right,835,,,21763,21414,,835,2,legacy,680,1280,24,720,24,0,0,1280,1632986290185,2,1024,2,48000,-16,experiment,1,odd,Win32,4,51691,,,48402,83,49462,,83,21857,,53708,50476,54556,83,53708,Sternberg_updated,2,1631,2,yes,1024
100,100,850,850,black,no,practice,Mozilla,Netscape,"5.0 (Windows NT 10.0; Win64; x64) AppleWebKit/537.36 (KHTML, like Gecko) Chrome/94.0.4606.61 Safari/537.36",legacy,legacy,legacy,0,uniform,1,1,left,2,2,2,2,0,0,0,2,2,0,0,0,2,2,2,0,0,2,2,0,30-08-21,30-08-21,09:18:08,Thu Sep 30 2021 09:18:08 GMT+0200 (Centraleuropæisk sommertid),The main experiment item,yes,0,0,/Users/ethan/Documents/GitHub/OpenSesame/Sternberg/experiment_files,0,0,0,no,mono,no,18,no,white,no,no,768,109,3.6.1,legacy,legacy,3 1 9 4,osweb,1.4.0,1,0,n,37,,0,left,,,space,up,,left,918,,,21763,21414,,918,2,legacy,680,1280,24,720,24,0,0,1280,1632986290185,4,1024,2,48000,-16,experiment,1,odd,Win32,6,57838,,,54559,83,55606,,83,21857,,59855,56623,60787,83,59855,Sternberg_updated,3,2549,3,yes,1024
100,100,892,892,black,no,practice,Mozilla,Netscape,"5.0 (Windows NT 10.0; Win64; x64) AppleWebKit/537.36 (KHTML, like Gecko) Chrome/94.0.4606.61 Safari/537.36",legacy,legacy,legacy,0,uniform,1,1,right,3,3,3,3,0,0,0,3,3,0,0,0,3,3,3,0,0,3,3,0,30-08-21,30-08-21,09:18:08,Thu Sep 30 2021 09:18:08 GMT+0200 (Centraleuropæisk sommertid),The main experiment item,yes,0,0,/Users/ethan/Documents/GitHub/OpenSesame/Sternberg/experiment_files,0,0,0,no,mono,no,18,no,white,no,no,768,109,3.6.1,legacy,legacy,1 7 9 8 5,osweb,1.4.0,1,4,y,37,,0,right,,,space,up,,right,1019,,,21763,21414,,1019,2,legacy,680,1280,24,720,24,0,0,1280,1632986290185,5,1024,2,48000,-16,experiment,1,odd,Win32,8,64069,,,60789,83,61841,,83,21857,,66085,62853,67118,83,66085,Sternberg_updated,4,3568,4,yes,1024
100,100,863,863,black,no,practice,Mozilla,Netscape,"5.0 (Windows NT 10.0; Win64; x64) AppleWebKit/537.36 (KHTML, like Gecko) Chrome/94.0.4606.61 Safari/537.36",legacy,legacy,legacy,0,uniform,1,1,left,4,4,4,4,0,0,0,4,4,0,0,0,4,4,4,0,0,4,4,0,30-08-21,30-08-21,09:18:08,Thu Sep 30 2021 09:18:08 GMT+0200 (Centraleuropæisk sommertid),The main experiment item,yes,0,0,/Users/ethan/Documents/GitHub/OpenSesame/Sternberg/experiment_files,0,0,0,no,mono,no,18,no,white,no,no,768,109,3.6.1,legacy,legacy,5 7 8 4 1 2,osweb,1.4.0,1,0,n,37,,0,left,,,space,up,,left,746,,,21763,21414,,746,2,legacy,680,1280,24,720,24,0,0,1280,1632986290185,6,1024,2,48000,-16,experiment,1,odd,Win32,6,70400,,,67119,83,68176,,83,21857,,72416,69184,73165,83,72416,Sternberg_updated,5,4314,5,yes,1024
100,100,1015,1015,black,no,practice,Mozilla,Netscape,"5.0 (Windows NT 10.0; Win64; x64) AppleWebKit/537.36 (KHTML, like Gecko) Chrome/94.0.4606.61 Safari/537.36",legacy,legacy,legacy,0,uniform,1,1,right,5,5,5,5,0,0,0,5,5,0,0,0,5,5,5,0,0,5,5,0,30-08-21,30-08-21,09:18:08,Thu Sep 30 2021 09:18:08 GMT+0200 (Centraleuropæisk sommertid),The main experiment item,yes,0,0,/Users/ethan/Documents/GitHub/OpenSesame/Sternberg/experiment_files,0,0,0,no,mono,no,18,no,white,no,no,768,109,3.6.1,legacy,legacy,4 3 1 7 9 8,osweb,1.4.0,1,1,y,37,,0,right,,,space,up,,right,1774,,,21763,21414,,1774,2,legacy,680,1280,24,720,24,0,0,1280,1632986290185,6,1024,2,48000,-16,experiment,1,odd,Win32,4,76448,,,73167,83,74226,,83,21857,,78464,75231,80246,83,78464,Sternberg_updated,6,6088,6,yes,1024
100,100,990,990,black,no,practice,Mozilla,Netscape,"5.0 (Windows NT 10.0; Win64; x64) AppleWebKit/537.36 (KHTML, like Gecko) Chrome/94.0.4606.61 Safari/537.36",legacy,legacy,legacy,0,uniform,1,1,left,6,6,6,6,0,0,0,6,6,0,0,0,6,6,6,0,0,6,6,0,30-08-21,30-08-21,09:18:08,Thu Sep 30 2021 09:18:08 GMT+0200 (Centraleuropæisk sommertid),The main experiment item,yes,0,0,/Users/ethan/Documents/GitHub/OpenSesame/Sternberg/experiment_files,0,0,0,no,mono,no,18,no,white,no,no,768,109,3.6.1,legacy,legacy,4 1 5,osweb,1.4.0,1,0,n,37,,0,left,,,space,up,,left,840,,,21763,21414,,840,2,legacy,680,1280,24,720,24,0,0,1280,1632986290185,3,1024,2,48000,-16,experiment,1,odd,Win32,2,83531,,,80248,83,81303,,83,21857,,85545,82313,86394,83,85545,Sternberg_updated,7,6928,7,yes,1024
100,100,969,969,black,no,practice,Mozilla,Netscape,"5.0 (Windows NT 10.0; Win64; x64) AppleWebKit/537.36 (KHTML, like Gecko) Chrome/94.0.4606.61 Safari/537.36",legacy,legacy,legacy,0,uniform,1,1,left,7,7,7,7,0,0,0,7,7,0,0,0,7,7,7,0,0,7,7,0,30-08-21,30-08-21,09:18:08,Thu Sep 30 2021 09:18:08 GMT+0200 (Centraleuropæisk sommertid),The main experiment item,yes,0,0,/Users/ethan/Documents/GitHub/OpenSesame/Sternberg/experiment_files,0,0,0,no,mono,no,18,no,white,no,no,768,109,3.6.1,legacy,legacy,9 6 7 4 5,osweb,1.4.0,1,0,n,37,,0,left,,,space,up,,left,821,,,21763,21414,,821,2,legacy,680,1280,24,720,24,0,0,1280,1632986290185,5,1024,2,48000,-16,experiment,1,odd,Win32,3,89676,,,86396,83,87449,,83,21857,,91692,88460,92525,83,91692,Sternberg_updated,8,7749,8,yes,1024
89,89,913,913,black,no,practice,Mozilla,Netscape,"5.0 (Windows NT 10.0; Win64; x64) AppleWebKit/537.36 (KHTML, like Gecko) Chrome/94.0.4606.61 Safari/537.36",legacy,legacy,legacy,0,uniform,0,0,right,8,8,8,8,0,0,0,8,8,0,0,0,8,8,8,0,0,8,8,0,30-08-21,30-08-21,09:18:08,Thu Sep 30 2021 09:18:08 GMT+0200 (Centraleuropæisk sommertid),The main experiment item,yes,0,0,/Users/ethan/Documents/GitHub/OpenSesame/Sternberg/experiment_files,0,0,0,no,mono,no,18,no,white,no,no,768,109,3.6.1,legacy,legacy,6,osweb,1.4.0,1,1,y,37,,0,left,,,space,up,,left,471,,,21763,21414,,471,2,legacy,680,1280,24,720,24,0,0,1280,1632986290185,1,1024,2,48000,-16,experiment,1,odd,Win32,6,95807,,,92527,83,93581,,83,21857,,97823,94591,98306,83,97823,Sternberg_updated,8,8220,9,yes,1024
90,90,929,929,black,no,practice,Mozilla,Netscape,"5.0 (Windows NT 10.0; Win64; x64) AppleWebKit/537.36 (KHTML, like Gecko) Chrome/94.0.4606.61 Safari/537.36",legacy,legacy,legacy,0,uniform,1,1,right,9,9,9,9,0,0,0,9,9,0,0,0,9,9,9,0,0,9,9,0,30-08-21,30-08-21,09:18:08,Thu Sep 30 2021 09:18:08 GMT+0200 (Centraleuropæisk sommertid),The main experiment item,yes,0,0,/Users/ethan/Documents/GitHub/OpenSesame/Sternberg/experiment_files,0,0,0,no,mono,no,18,no,white,no,no,768,109,3.6.1,legacy,legacy,1 5 2 9,osweb,1.4.0,1,2,y,37,,0,right,,,space,up,,right,1065,,,21763,21414,,1065,2,legacy,680,1280,24,720,24,0,0,1280,1632986290185,4,1024,2,48000,-16,experiment,1,odd,Win32,5,101582,,,92527,83,99362,98308,83,21857,,103588,100366,104654,83,103588,Sternberg_updated,9,9285,10,yes,1024
91,91,896,896,black,no,practice,Mozilla,Netscape,"5.0 (Windows NT 10.0; Win64; x64) AppleWebKit/537.36 (KHTML, like Gecko) Chrome/94.0.4606.61 Safari/537.36",legacy,legacy,legacy,0,uniform,1,1,left,10,10,10,10,0,0,0,10,10,0,0,0,10,10,10,0,0,10,10,0,30-08-21,30-08-21,09:18:08,Thu Sep 30 2021 09:18:08 GMT+0200 (Centraleuropæisk sommertid),The main experiment item,yes,0,0,/Users/ethan/Documents/GitHub/OpenSesame/Sternberg/experiment_files,0,0,0,no,mono,no,18,no,white,no,no,768,109,3.6.1,legacy,legacy,5,osweb,1.4.0,1,0,n,37,,0,left,,,space,up,,left,572,,,21763,21414,,572,2,legacy,680,1280,24,720,24,0,0,1280,1632986290185,1,1024,2,48000,-16,experiment,1,odd,Win32,3,107935,,,104655,83,105707,98308,83,21857,,109952,106720,110534,83,109952,Sternberg_updated,10,9857,11,yes,1024
92,92,883,883,black,no,practice,Mozilla,Netscape,"5.0 (Windows NT 10.0; Win64; x64) AppleWebKit/537.36 (KHTML, like Gecko) Chrome/94.0.4606.61 Safari/537.36",legacy,legacy,legacy,0,uniform,1,1,left,11,11,11,11,0,0,0,11,11,0,0,0,11,11,11,0,0,11,11,0,30-08-21,30-08-21,09:18:08,Thu Sep 30 2021 09:18:08 GMT+0200 (Centraleuropæisk sommertid),The main experiment item,yes,0,0,/Users/ethan/Documents/GitHub/OpenSesame/Sternberg/experiment_files,0,0,0,no,mono,no,18,no,white,no,no,768,109,3.6.1,legacy,legacy,2 1,osweb,1.4.0,1,0,n,37,,0,left,,,space,up,,left,742,,,21763,21414,,742,2,legacy,680,1280,24,720,24,0,0,1280,1632986290185,2,1024,2,48000,-16,experiment,1,odd,Win32,5,113800,,,110537,83,111573,98308,83,21857,,115816,112584,116565,83,115816,Sternberg_updated,11,10599,12,yes,1024
92,92,876,876,black,no,experiment,Mozilla,Netscape,"5.0 (Windows NT 10.0; Win64; x64) AppleWebKit/537.36 (KHTML, like Gecko) Chrome/94.0.4606.61 Safari/537.36",legacy,legacy,legacy,0,uniform,1,1,right,12,12,12,12,0,0,0,12,12,0,0,0,12,12,12,0,0,12,12,0,30-08-21,30-08-21,09:18:08,Thu Sep 30 2021 09:18:08 GMT+0200 (Centraleuropæisk sommertid),The main experiment item,yes,0,0,/Users/ethan/Documents/GitHub/OpenSesame/Sternberg/experiment_files,0,0,0,no,mono,no,18,no,white,no,no,768,109,3.6.1,legacy,legacy,7 8 4 6 9 5,osweb,1.4.0,1,4,y,37,,0,right,,,space,up,right,right,791,,,21763,21414,15536,791,2,legacy,680,1280,24,720,24,0,0,1280,1632986290185,6,1024,2,48000,-16,experiment,1,odd,Win32,6,135391,,,116567,83,133163,98308,83,21857,117583,137407,134176,138206,83,137407,Sternberg_updated,12,11390,13,yes,1024
93,93,861,861,black,no,experiment,Mozilla,Netscape,"5.0 (Windows NT 10.0; Win64; x64) AppleWebKit/537.36 (KHTML, like Gecko) Chrome/94.0.4606.61 Safari/537.36",legacy,legacy,legacy,0,uniform,1,1,right,13,13,13,13,0,0,0,13,13,0,0,0,13,13,13,0,0,13,13,0,30-08-21,30-08-21,09:18:08,Thu Sep 30 2021 09:18:08 GMT+0200 (Centraleuropæisk sommertid),The main experiment item,yes,0,0,/Users/ethan/Documents/GitHub/OpenSesame/Sternberg/experiment_files,0,0,0,no,mono,no,18,no,white,no,no,768,109,3.6.1,legacy,legacy,7 6,osweb,1.4.0,1,2,y,37,,0,right,,,space,up,right,right,658,,,21763,21414,15536,658,2,legacy,680,1280,24,720,24,0,0,1280,1632986290185,2,1024,2,48000,-16,experiment,1,odd,Win32,6,141489,,,138208,83,139263,98308,83,21857,117583,143505,140273,144171,83,143505,Sternberg_updated,13,12048,14,yes,1024
93,93,851,851,black,no,experiment,Mozilla,Netscape,"5.0 (Windows NT 10.0; Win64; x64) AppleWebKit/537.36 (KHTML, like Gecko) Chrome/94.0.4606.61 Safari/537.36",legacy,legacy,legacy,0,uniform,1,1,left,14,14,14,14,0,0,0,14,14,0,0,0,14,14,14,0,0,14,14,0,30-08-21,30-08-21,09:18:08,Thu Sep 30 2021 09:18:08 GMT+0200 (Centraleuropæisk sommertid),The main experiment item,yes,0,0,/Users/ethan/Documents/GitHub/OpenSesame/Sternberg/experiment_files,0,0,0,no,mono,no,18,no,white,no,no,768,109,3.6.1,legacy,legacy,1 6 4 3 9 7,osweb,1.4.0,1,0,n,37,,0,left,,,space,up,right,left,719,,,21763,21414,15536,719,2,legacy,680,1280,24,720,24,0,0,1280,1632986290185,6,1024,2,48000,-16,experiment,1,odd,Win32,8,147453,,,144173,83,145224,98308,83,21857,117583,149469,146237,150202,83,149469,Sternberg_updated,14,12767,15,yes,1024
94,94,846,846,black,no,experiment,Mozilla,Netscape,"5.0 (Windows NT 10.0; Win64; x64) AppleWebKit/537.36 (KHTML, like Gecko) Chrome/94.0.4606.61 Safari/537.36",legacy,legacy,legacy,0,uniform,1,1,left,15,15,15,15,0,0,0,15,15,0,0,0,15,15,15,0,0,15,15,0,30-08-21,30-08-21,09:18:08,Thu Sep 30 2021 09:18:08 GMT+0200 (Centraleuropæisk sommertid),The main experiment item,yes,0,0,/Users/ethan/Documents/GitHub/OpenSesame/Sternberg/experiment_files,0,0,0,no,mono,no,18,no,white,no,no,768,109,3.6.1,legacy,legacy,4 1,osweb,1.4.0,1,0,n,37,,0,left,,,space,up,right,left,775,,,21763,21414,15536,775,2,legacy,680,1280,24,720,24,0,0,1280,1632986290185,2,1024,2,48000,-16,experiment,1,odd,Win32,6,153484,,,150204,83,151258,98308,83,21857,117583,155500,152268,156283,83,155500,Sternberg_updated,15,13542,16,yes,1024
94,94,836,836,black,no,experiment,Mozilla,Netscape,"5.0 (Windows NT 10.0; Win64; x64) AppleWebKit/537.36 (KHTML, like Gecko) Chrome/94.0.4606.61 Safari/537.36",legacy,legacy,legacy,0,uniform,1,1,left,16,16,16,16,0,0,0,16,16,0,0,0,16,16,16,0,0,16,16,0,30-08-21,30-08-21,09:18:08,Thu Sep 30 2021 09:18:08 GMT+0200 (Centraleuropæisk sommertid),The main experiment item,yes,0,0,/Users/ethan/Documents/GitHub/OpenSesame/Sternberg/experiment_files,0,0,0,no,mono,no,18,no,white,no,no,768,109,3.6.1,legacy,legacy,6 8,osweb,1.4.0,1,0,n,37,,0,left,,,space,up,right,left,667,,,21763,21414,15536,667,2,legacy,680,1280,24,720,24,0,0,1280,1632986290185,2,1024,2,48000,-16,experiment,1,odd,Win32,9,159565,,,156284,83,157334,98308,83,21857,117583,161581,158349,162264,83,161581,Sternberg_updated,16,14209,17,yes,1024
94,94,825,825,black,no,experiment,Mozilla,Netscape,"5.0 (Windows NT 10.0; Win64; x64) AppleWebKit/537.36 (KHTML, like Gecko) Chrome/94.0.4606.61 Safari/537.36",legacy,legacy,legacy,0,uniform,1,1,right,17,17,17,17,0,0,0,17,17,0,0,0,17,17,17,0,0,17,17,0,30-08-21,30-08-21,09:18:08,Thu Sep 30 2021 09:18:08 GMT+0200 (Centraleuropæisk sommertid),The main experiment item,yes,0,0,/Users/ethan/Documents/GitHub/OpenSesame/Sternberg/experiment_files,0,0,0,no,mono,no,18,no,white,no,no,768,109,3.6.1,legacy,legacy,8 5 3 7 4 6,osweb,1.4.0,1,6,y,37,,0,right,,,space,up,right,right,640,,,21763,21414,15536,640,2,legacy,680,1280,24,720,24,0,0,1280,1632986290185,6,1024,2,48000,-16,experiment,1,odd,Win32,6,165546,,,162266,83,163316,98308,83,21857,117583,167562,164330,168211,83,167562,Sternberg_updated,17,14849,18,yes,1024
95,95,826,826,black,no,experiment,Mozilla,Netscape,"5.0 (Windows NT 10.0; Win64; x64) AppleWebKit/537.36 (KHTML, like Gecko) Chrome/94.0.4606.61 Safari/537.36",legacy,legacy,legacy,0,uniform,1,1,right,18,18,18,18,0,0,0,18,18,0,0,0,18,18,18,0,0,18,18,0,30-08-21,30-08-21,09:18:08,Thu Sep 30 2021 09:18:08 GMT+0200 (Centraleuropæisk sommertid),The main experiment item,yes,0,0,/Users/ethan/Documents/GitHub/OpenSesame/Sternberg/experiment_files,0,0,0,no,mono,no,18,no,white,no,no,768,109,3.6.1,legacy,legacy,4 6 2 5 1,osweb,1.4.0,1,5,y,37,,0,right,,,space,up,right,right,854,,,21763,21414,15536,854,2,legacy,680,1280,24,720,24,0,0,1280,1632986290185,5,1024,2,48000,-16,experiment,1,odd,Win32,1,171493,,,168214,83,169265,98308,83,21857,117583,173510,170278,174376,83,173510,Sternberg_updated,18,15703,19,yes,1024
95,95,818,818,black,no,experiment,Mozilla,Netscape,"5.0 (Windows NT 10.0; Win64; x64) AppleWebKit/537.36 (KHTML, like Gecko) Chrome/94.0.4606.61 Safari/537.36",legacy,legacy,legacy,0,uniform,1,1,left,19,19,19,19,0,0,0,19,19,0,0,0,19,19,19,0,0,19,19,0,30-08-21,30-08-21,09:18:08,Thu Sep 30 2021 09:18:08 GMT+0200 (Centraleuropæisk sommertid),The main experiment item,yes,0,0,/Users/ethan/Documents/GitHub/OpenSesame/Sternberg/experiment_files,0,0,0,no,mono,no,18,no,white,no,no,768,109,3.6.1,legacy,legacy,6 3 1 7 9 8,osweb,1.4.0,1,0,n,37,,0,left,,,space,up,right,left,654,,,21763,21414,15536,654,2,legacy,680,1280,24,720,24,0,0,1280,1632986290185,6,1024,2,48000,-16,experiment,1,odd,Win32,4,177657,,,174378,83,175434,98308,83,21857,117583,179673,176442,180339,83,179673,Sternberg_updated,19,16357,20,yes,1024
95,95,817,817,black,no,experiment,Mozilla,Netscape,"5.0 (Windows NT 10.0; Win64; x64) AppleWebKit/537.36 (KHTML, like Gecko) Chrome/94.0.4606.61 Safari/537.36",legacy,legacy,legacy,0,uniform,1,1,left,20,20,20,20,0,0,0,20,20,0,0,0,20,20,20,0,0,20,20,0,30-08-21,30-08-21,09:18:08,Thu Sep 30 2021 09:18:08 GMT+0200 (Centraleuropæisk sommertid),The main experiment item,yes,0,0,/Users/ethan/Documents/GitHub/OpenSesame/Sternberg/experiment_files,0,0,0,no,mono,no,18,no,white,no,no,768,109,3.6.1,legacy,legacy,8 5 4 2 9 6,osweb,1.4.0,1,0,n,37,,0,left,,,space,up,right,left,809,,,21763,21414,15536,809,2,legacy,680,1280,24,720,24,0,0,1280,1632986290185,6,1024,2,48000,-16,experiment,1,odd,Win32,3,183622,,,180341,83,181403,98308,83,21857,117583,185638,182405,186454,83,185638,Sternberg_updated,20,17166,21,yes,1024
95,95,815,815,black,no,experiment,Mozilla,Netscape,"5.0 (Windows NT 10.0; Win64; x64) AppleWebKit/537.36 (KHTML, like Gecko) Chrome/94.0.4606.61 Safari/537.36",legacy,legacy,legacy,0,uniform,1,1,right,21,21,21,21,0,0,0,21,21,0,0,0,21,21,21,0,0,21,21,0,30-08-21,30-08-21,09:18:08,Thu Sep 30 2021 09:18:08 GMT+0200 (Centraleuropæisk sommertid),The main experiment item,yes,0,0,/Users/ethan/Documents/GitHub/OpenSesame/Sternberg/experiment_files,0,0,0,no,mono,no,18,no,white,no,no,768,109,3.6.1,legacy,legacy,8 9 6 1,osweb,1.4.0,1,2,y,37,,0,right,,,space,up,right,right,768,,,21763,21414,15536,768,2,legacy,680,1280,24,720,24,0,0,1280,1632986290185,4,1024,2,48000,-16,experiment,1,odd,Win32,9,189736,,,186456,83,187506,98308,83,21857,117583,191753,188520,192535,83,191752,Sternberg_updated,21,17934,22,yes,1024
96,96,810,810,black,no,experiment,Mozilla,Netscape,"5.0 (Windows NT 10.0; Win64; x64) AppleWebKit/537.36 (KHTML, like Gecko) Chrome/94.0.4606.61 Safari/537.36",legacy,legacy,legacy,0,uniform,1,1,right,22,22,22,22,0,0,0,22,22,0,0,0,22,22,22,0,0,22,22,0,30-08-21,30-08-21,09:18:08,Thu Sep 30 2021 09:18:08 GMT+0200 (Centraleuropæisk sommertid),The main experiment item,yes,0,0,/Users/ethan/Documents/GitHub/OpenSesame/Sternberg/experiment_files,0,0,0,no,mono,no,18,no,white,no,no,768,109,3.6.1,legacy,legacy,3 5 7 1,osweb,1.4.0,1,3,y,37,,0,right,,,space,up,right,right,695,,,21763,21414,15536,695,2,legacy,680,1280,24,720,24,0,0,1280,1632986290185,4,1024,2,48000,-16,experiment,1,odd,Win32,7,195817,,,192537,83,193591,98308,83,21857,117583,197833,194601,198532,83,197833,Sternberg_updated,22,18629,23,yes,1024
96,96,802,802,black,no,experiment,Mozilla,Netscape,"5.0 (Windows NT 10.0; Win64; x64) AppleWebKit/537.36 (KHTML, like Gecko) Chrome/94.0.4606.61 Safari/537.36",legacy,legacy,legacy,0,uniform,1,1,right,23,23,23,23,0,0,0,23,23,0,0,0,23,23,23,0,0,23,23,0,30-08-21,30-08-21,09:18:08,Thu Sep 30 2021 09:18:08 GMT+0200 (Centraleuropæisk sommertid),The main experiment item,yes,0,0,/Users/ethan/Documents/GitHub/OpenSesame/Sternberg/experiment_files,0,0,0,no,mono,no,18,no,white,no,no,768,109,3.6.1,legacy,legacy,6 7 9 3 1 2,osweb,1.4.0,1,1,y,37,,0,right,,,space,up,right,right,625,,,21763,21414,15536,625,2,legacy,680,1280,24,720,24,0,0,1280,1632986290185,6,1024,2,48000,-16,experiment,1,odd,Win32,6,201815,,,198534,83,199586,98308,83,21857,117583,203831,200599,204463,83,203831,Sternberg_updated,23,19254,24,yes,1024
96,96,800,800,black,no,experiment,Mozilla,Netscape,"5.0 (Windows NT 10.0; Win64; x64) AppleWebKit/537.36 (KHTML, like Gecko) Chrome/94.0.4606.61 Safari/537.36",legacy,legacy,legacy,0,uniform,1,1,right,24,24,24,24,0,0,0,24,24,0,0,0,24,24,24,0,0,24,24,0,30-08-21,30-08-21,09:18:08,Thu Sep 30 2021 09:18:08 GMT+0200 (Centraleuropæisk sommertid),The main experiment item,yes,0,0,/Users/ethan/Documents/GitHub/OpenSesame/Sternberg/experiment_files,0,0,0,no,mono,no,18,no,white,no,no,768,109,3.6.1,legacy,legacy,9 3 1 2 5,osweb,1.4.0,1,4,y,37,,0,right,,,space,up,right,right,751,,,21763,21414,15536,751,2,legacy,680,1280,24,720,24,0,0,1280,1632986290185,5,1024,2,48000,-16,experiment,1,odd,Win32,2,207746,,,204465,83,205518,98308,83,21857,117583,209762,206530,210528,83,209762,Sternberg_updated,24,20005,25,yes,1024
96,96,798,798,black,no,experiment,Mozilla,Netscape,"5.0 (Windows NT 10.0; Win64; x64) AppleWebKit/537.36 (KHTML, like Gecko) Chrome/94.0.4606.61 Safari/537.36",legacy,legacy,legacy,0,uniform,1,1,right,25,25,25,25,0,0,0,25,25,0,0,0,25,25,25,0,0,25,25,0,30-08-21,30-08-21,09:18:08,Thu Sep 30 2021 09:18:08 GMT+0200 (Centraleuropæisk sommertid),The main experiment item,yes,0,0,/Users/ethan/Documents/GitHub/OpenSesame/Sternberg/experiment_files,0,0,0,no,mono,no,18,no,white,no,no,768,109,3.6.1,legacy,legacy,1 4 9 3 2 5,osweb,1.4.0,1,3,y,37,,0,right,,,space,up,right,right,754,,,21763,21414,15536,754,2,legacy,680,1280,24,720,24,0,0,1280,1632986290185,6,1024,2,48000,-16,experiment,1,odd,Win32,9,213810,,,210530,83,211580,98308,83,21857,117583,215826,212594,216592,83,215826,Sternberg_updated,25,20759,26,yes,1024
96,96,793,793,black,no,experiment,Mozilla,Netscape,"5.0 (Windows NT 10.0; Win64; x64) AppleWebKit/537.36 (KHTML, like Gecko) Chrome/94.0.4606.61 Safari/537.36",legacy,legacy,legacy,0,uniform,1,1,right,26,26,26,26,0,0,0,26,26,0,0,0,26,26,26,0,0,26,26,0,30-08-21,30-08-21,09:18:08,Thu Sep 30 2021 09:18:08 GMT+0200 (Centraleuropæisk sommertid),The main experiment item,yes,0,0,/Users/ethan/Documents/GitHub/OpenSesame/Sternberg/experiment_files,0,0,0,no,mono,no,18,no,white,no,no,768,109,3.6.1,legacy,legacy,2 4 8 5 1 3,osweb,1.4.0,1,1,y,37,,0,right,,,space,up,right,right,648,,,21763,21414,15536,648,2,legacy,680,1280,24,720,24,0,0,1280,1632986290185,6,1024,2,48000,-16,experiment,1,odd,Win32,2,219874,,,216594,83,217644,98308,83,21857,117583,221890,218658,222539,83,221890,Sternberg_updated,26,21407,27,yes,1024
96,96,794,794,black,no,experiment,Mozilla,Netscape,"5.0 (Windows NT 10.0; Win64; x64) AppleWebKit/537.36 (KHTML, like Gecko) Chrome/94.0.4606.61 Safari/537.36",legacy,legacy,legacy,0,uniform,1,1,left,27,27,27,27,0,0,0,27,27,0,0,0,27,27,27,0,0,27,27,0,30-08-21,30-08-21,09:18:08,Thu Sep 30 2021 09:18:08 GMT+0200 (Centraleuropæisk sommertid),The main experiment item,yes,0,0,/Users/ethan/Documents/GitHub/OpenSesame/Sternberg/experiment_files,0,0,0,no,mono,no,18,no,white,no,no,768,109,3.6.1,legacy,legacy,7 9 1 6,osweb,1.4.0,1,0,n,37,,0,left,,,space,up,right,left,818,,,21763,21414,15536,818,2,legacy,680,1280,24,720,24,0,0,1280,1632986290185,4,1024,2,48000,-16,experiment,1,odd,Win32,4,225822,,,222541,83,223594,98308,83,21857,117583,227838,224606,228670,83,227838,Sternberg_updated,27,22225,28,yes,1024
93,93,793,793,black,no,experiment,Mozilla,Netscape,"5.0 (Windows NT 10.0; Win64; x64) AppleWebKit/537.36 (KHTML, like Gecko) Chrome/94.0.4606.61 Safari/537.36",legacy,legacy,legacy,0,uniform,0,0,right,28,28,28,28,0,0,0,28,28,0,0,0,28,28,28,0,0,28,28,0,30-08-21,30-08-21,09:18:08,Thu Sep 30 2021 09:18:08 GMT+0200 (Centraleuropæisk sommertid),The main experiment item,yes,0,0,/Users/ethan/Documents/GitHub/OpenSesame/Sternberg/experiment_files,0,0,0,no,mono,no,18,no,white,no,no,768,109,3.6.1,legacy,legacy,7 8 6 3 1,osweb,1.4.0,1,5,y,37,,0,left,,,space,up,right,left,764,,,21763,21414,15536,764,2,legacy,680,1280,24,720,24,0,0,1280,1632986290185,5,1024,2,48000,-16,experiment,1,odd,Win32,1,231970,,,228673,83,229743,98308,83,21857,117583,233986,230754,234751,83,233986,Sternberg_updated,27,22989,29,yes,1024
90,90,792,792,black,no,experiment,Mozilla,Netscape,"5.0 (Windows NT 10.0; Win64; x64) AppleWebKit/537.36 (KHTML, like Gecko) Chrome/94.0.4606.61 Safari/537.36",legacy,legacy,legacy,0,uniform,0,0,left,29,29,29,29,0,0,0,29,29,0,0,0,29,29,29,0,0,29,29,0,30-08-21,30-08-21,09:18:08,Thu Sep 30 2021 09:18:08 GMT+0200 (Centraleuropæisk sommertid),The main experiment item,yes,0,0,/Users/ethan/Documents/GitHub/OpenSesame/Sternberg/experiment_files,0,0,0,no,mono,no,18,no,white,no,no,768,109,3.6.1,legacy,legacy,4 2 7 6 1 3,osweb,1.4.0,1,0,n,37,,0,right,,,space,up,right,right,777,,,21763,21414,15536,777,2,legacy,680,1280,24,720,24,0,0,1280,1632986290185,6,1024,2,48000,-16,experiment,1,odd,Win32,8,238033,,,228673,83,235804,234754,83,21857,117583,240049,236818,240832,83,240049,Sternberg_updated,27,23766,30,yes,1024
90,90,785,785,black,no,experiment,Mozilla,Netscape,"5.0 (Windows NT 10.0; Win64; x64) AppleWebKit/537.36 (KHTML, like Gecko) Chrome/94.0.4606.61 Safari/537.36",legacy,legacy,legacy,0,uniform,1,1,right,30,30,30,30,0,0,0,30,30,0,0,0,30,30,30,0,0,30,30,0,30-08-21,30-08-21,09:18:08,Thu Sep 30 2021 09:18:08 GMT+0200 (Centraleuropæisk sommertid),The main experiment item,yes,0,0,/Users/ethan/Documents/GitHub/OpenSesame/Sternberg/experiment_files,0,0,0,no,mono,no,18,no,white,no,no,768,109,3.6.1,legacy,legacy,2 8 5 1,osweb,1.4.0,1,4,y,37,,0,right,,,space,up,right,right,555,,,21763,21414,15536,555,2,legacy,680,1280,24,720,24,0,0,1280,1632986290185,4,1024,2,48000,-16,experiment,1,odd,Win32,1,244098,,,228673,83,241873,240834,83,21857,117583,246114,242882,246680,83,246114,Sternberg_updated,28,24321,31,yes,1024
91,91,790,790,black,no,experiment,Mozilla,Netscape,"5.0 (Windows NT 10.0; Win64; x64) AppleWebKit/537.36 (KHTML, like Gecko) Chrome/94.0.4606.61 Safari/537.36",legacy,legacy,legacy,0,uniform,1,1,right,31,31,31,31,0,0,0,31,31,0,0,0,31,31,31,0,0,31,31,0,30-08-21,30-08-21,09:18:08,Thu Sep 30 2021 09:18:08 GMT+0200 (Centraleuropæisk sommertid),The main experiment item,yes,0,0,/Users/ethan/Documents/GitHub/OpenSesame/Sternberg/experiment_files,0,0,0,no,mono,no,18,no,white,no,no,768,109,3.6.1,legacy,legacy,3 2 1 4 7,osweb,1.4.0,1,2,y,37,,0,right,,,space,up,right,right,943,,,21763,21414,15536,943,2,legacy,680,1280,24,720,24,0,0,1280,1632986290185,5,1024,2,48000,-16,experiment,1,odd,Win32,2,249962,,,246682,83,247736,240834,83,21857,117583,251978,248746,252928,83,251978,Sternberg_updated,29,25264,32,yes,1024
88,88,787,787,black,no,experiment,Mozilla,Netscape,"5.0 (Windows NT 10.0; Win64; x64) AppleWebKit/537.36 (KHTML, like Gecko) Chrome/94.0.4606.61 Safari/537.36",legacy,legacy,legacy,0,uniform,0,0,right,32,32,32,32,0,0,0,32,32,0,0,0,32,32,32,0,0,32,32,0,30-08-21,30-08-21,09:18:08,Thu Sep 30 2021 09:18:08 GMT+0200 (Centraleuropæisk sommertid),The main experiment item,yes,0,0,/Users/ethan/Documents/GitHub/OpenSesame/Sternberg/experiment_files,0,0,0,no,mono,no,18,no,white,no,no,768,109,3.6.1,legacy,legacy,7 4 2 6 3 5,osweb,1.4.0,1,6,y,37,,0,left,,,space,up,right,left,692,,,21763,21414,15536,692,2,legacy,680,1280,24,720,24,0,0,1280,1632986290185,6,1024,2,48000,-16,experiment,1,odd,Win32,5,256210,,,252930,83,253987,240834,83,21857,117583,258226,254994,258925,83,258226,Sternberg_updated,29,25956,33,yes,1024
88,88,796,796,black,no,experiment,Mozilla,Netscape,"5.0 (Windows NT 10.0; Win64; x64) AppleWebKit/537.36 (KHTML, like Gecko) Chrome/94.0.4606.61 Safari/537.36",legacy,legacy,legacy,0,uniform,1,1,left,33,33,33,33,0,0,0,33,33,0,0,0,33,33,33,0,0,33,33,0,30-08-21,30-08-21,09:18:08,Thu Sep 30 2021 09:18:08 GMT+0200 (Centraleuropæisk sommertid),The main experiment item,yes,0,0,/Users/ethan/Documents/GitHub/OpenSesame/Sternberg/experiment_files,0,0,0,no,mono,no,18,no,white,no,no,768,109,3.6.1,legacy,legacy,4 8 1 2,osweb,1.4.0,1,0,n,37,,0,left,,,space,up,right,left,1098,,,21763,21414,15536,1098,2,legacy,680,1280,24,720,24,0,0,1280,1632986290185,4,1024,2,48000,-16,experiment,1,odd,Win32,7,262207,,,252930,83,259982,258927,83,21857,117583,264223,260991,265322,83,264223,Sternberg_updated,30,27054,34,yes,1024
89,89,799,799,black,no,experiment,Mozilla,Netscape,"5.0 (Windows NT 10.0; Win64; x64) AppleWebKit/537.36 (KHTML, like Gecko) Chrome/94.0.4606.61 Safari/537.36",legacy,legacy,legacy,0,uniform,1,1,left,34,34,34,34,0,0,0,34,34,0,0,0,34,34,34,0,0,34,34,0,30-08-21,30-08-21,09:18:08,Thu Sep 30 2021 09:18:08 GMT+0200 (Centraleuropæisk sommertid),The main experiment item,yes,0,0,/Users/ethan/Documents/GitHub/OpenSesame/Sternberg/experiment_files,0,0,0,no,mono,no,18,no,white,no,no,768,109,3.6.1,legacy,legacy,1 3 2 6 9,osweb,1.4.0,1,0,n,37,,0,left,,,space,up,right,left,895,,,21763,21414,15536,895,2,legacy,680,1280,24,720,24,0,0,1280,1632986290185,5,1024,2,48000,-16,experiment,1,odd,Win32,5,268605,,,265324,83,266379,258927,83,21857,117583,270621,267389,271520,83,270621,Sternberg_updated,31,27949,35,yes,1024
89,89,799,799,black,no,experiment,Mozilla,Netscape,"5.0 (Windows NT 10.0; Win64; x64) AppleWebKit/537.36 (KHTML, like Gecko) Chrome/94.0.4606.61 Safari/537.36",legacy,legacy,legacy,0,uniform,1,1,left,35,35,35,35,0,0,0,35,35,0,0,0,35,35,35,0,0,35,35,0,30-08-21,30-08-21,09:18:08,Thu Sep 30 2021 09:18:08 GMT+0200 (Centraleuropæisk sommertid),The main experiment item,yes,0,0,/Users/ethan/Documents/GitHub/OpenSesame/Sternberg/experiment_files,0,0,0,no,mono,no,18,no,white,no,no,768,109,3.6.1,legacy,legacy,1 4 9 2 5,osweb,1.4.0,1,0,n,37,,0,left,,,space,up,right,left,806,,,21763,21414,15536,806,2,legacy,680,1280,24,720,24,0,0,1280,1632986290185,5,1024,2,48000,-16,experiment,1,odd,Win32,7,274802,,,271523,83,272573,258927,83,21857,117583,276819,273586,277634,83,276819,Sternberg_updated,32,28755,36,yes,1024
89,89,797,797,black,no,experiment,Mozilla,Netscape,"5.0 (Windows NT 10.0; Win64; x64) AppleWebKit/537.36 (KHTML, like Gecko) Chrome/94.0.4606.61 Safari/537.36",legacy,legacy,legacy,0,uniform,1,1,left,36,36,36,36,0,0,0,36,36,0,0,0,36,36,36,0,0,36,36,0,30-08-21,30-08-21,09:18:08,Thu Sep 30 2021 09:18:08 GMT+0200 (Centraleuropæisk sommertid),The main experiment item,yes,0,0,/Users/ethan/Documents/GitHub/OpenSesame/Sternberg/experiment_files,0,0,0,no,mono,no,18,no,white,no,no,768,109,3.6.1,legacy,legacy,8 2 1 4 5 9,osweb,1.4.0,1,0,n,37,,0,left,,,space,up,right,left,733,,,21763,21414,15536,733,2,legacy,680,1280,24,720,24,0,0,1280,1632986290185,6,1024,2,48000,-16,experiment,1,odd,Win32,7,280900,,,277636,83,278680,258927,83,21857,117583,282916,279684,283665,83,282916,Sternberg_updated,33,29488,37,yes,1024
87,87,789,789,black,no,experiment,Mozilla,Netscape,"5.0 (Windows NT 10.0; Win64; x64) AppleWebKit/537.36 (KHTML, like Gecko) Chrome/94.0.4606.61 Safari/537.36",legacy,legacy,legacy,0,uniform,0,0,left,37,37,37,37,0,0,0,37,37,0,0,0,37,37,37,0,0,37,37,0,30-08-21,30-08-21,09:18:08,Thu Sep 30 2021 09:18:08 GMT+0200 (Centraleuropæisk sommertid),The main experiment item,yes,0,0,/Users/ethan/Documents/GitHub/OpenSesame/Sternberg/experiment_files,0,0,0,no,mono,no,18,no,white,no,no,768,109,3.6.1,legacy,legacy,2 8 7 9 5 3,osweb,1.4.0,1,0,n,37,,0,right,,,space,up,right,right,511,,,21763,21414,15536,511,2,legacy,680,1280,24,720,24,0,0,1280,1632986290185,6,1024,2,48000,-16,experiment,1,odd,Win32,6,286964,,,283667,83,284734,258927,83,21857,117583,288980,285749,289496,83,288980,Sternberg_updated,33,29999,38,yes,1024
85,85,784,784,black,no,experiment,Mozilla,Netscape,"5.0 (Windows NT 10.0; Win64; x64) AppleWebKit/537.36 (KHTML, like Gecko) Chrome/94.0.4606.61 Safari/537.36",legacy,legacy,legacy,0,uniform,0,0,left,38,38,38,38,0,0,0,38,38,0,0,0,38,38,38,0,0,38,38,0,30-08-21,30-08-21,09:18:08,Thu Sep 30 2021 09:18:08 GMT+0200 (Centraleuropæisk sommertid),The main experiment item,yes,0,0,/Users/ethan/Documents/GitHub/OpenSesame/Sternberg/experiment_files,0,0,0,no,mono,no,18,no,white,no,no,768,109,3.6.1,legacy,legacy,5 3 8 7 2 4,osweb,1.4.0,1,0,n,37,,0,right,,,space,up,right,right,587,,,21763,21414,15536,587,2,legacy,680,1280,24,720,24,0,0,1280,1632986290185,6,1024,2,48000,-16,experiment,1,odd,Win32,9,292779,,,283667,83,290548,289498,83,21857,117583,294795,291563,295394,83,294795,Sternberg_updated,33,30586,39,yes,1024
83,83,779,779,black,no,experiment,Mozilla,Netscape,"5.0 (Windows NT 10.0; Win64; x64) AppleWebKit/537.36 (KHTML, like Gecko) Chrome/94.0.4606.61 Safari/537.36",legacy,legacy,legacy,0,uniform,0,0,right,39,39,39,39,0,0,0,39,39,0,0,0,39,39,39,0,0,39,39,0,30-08-21,30-08-21,09:18:08,Thu Sep 30 2021 09:18:08 GMT+0200 (Centraleuropæisk sommertid),The main experiment item,yes,0,0,/Users/ethan/Documents/GitHub/OpenSesame/Sternberg/experiment_files,0,0,0,no,mono,no,18,no,white,no,no,768,109,3.6.1,legacy,legacy,5 7 3 6 2,osweb,1.4.0,1,5,y,37,,0,left,,,space,up,right,left,569,,,21763,21414,15536,569,2,legacy,680,1280,24,720,24,0,0,1280,1632986290185,5,1024,2,48000,-16,experiment,1,odd,Win32,2,298676,,,283667,83,296445,295396,83,21857,117583,300692,297460,301275,83,300692,Sternberg_updated,33,31155,40,yes,1024
83,83,777,777,black,no,experiment,Mozilla,Netscape,"5.0 (Windows NT 10.0; Win64; x64) AppleWebKit/537.36 (KHTML, like Gecko) Chrome/94.0.4606.61 Safari/537.36",legacy,legacy,legacy,0,uniform,1,1,left,40,40,40,40,0,0,0,40,40,0,0,0,40,40,40,0,0,40,40,0,30-08-21,30-08-21,09:18:08,Thu Sep 30 2021 09:18:08 GMT+0200 (Centraleuropæisk sommertid),The main experiment item,yes,0,0,/Users/ethan/Documents/GitHub/OpenSesame/Sternberg/experiment_files,0,0,0,no,mono,no,18,no,white,no,no,768,109,3.6.1,legacy,legacy,7 3 2 8,osweb,1.4.0,1,0,n,37,,0,left,,,space,up,right,left,700,,,21763,21414,15536,700,2,legacy,680,1280,24,720,24,0,0,1280,1632986290185,4,1024,2,48000,-16,experiment,1,odd,Win32,4,304541,,,283667,83,302314,301276,83,21857,117583,306558,303325,307272,83,306558,Sternberg_updated,34,31855,41,yes,1024
83,83,776,776,black,no,experiment,Mozilla,Netscape,"5.0 (Windows NT 10.0; Win64; x64) AppleWebKit/537.36 (KHTML, like Gecko) Chrome/94.0.4606.61 Safari/537.36",legacy,legacy,legacy,0,uniform,1,1,left,41,41,41,41,0,0,0,41,41,0,0,0,41,41,41,0,0,41,41,0,30-08-21,30-08-21,09:18:08,Thu Sep 30 2021 09:18:08 GMT+0200 (Centraleuropæisk sommertid),The main experiment item,yes,0,0,/Users/ethan/Documents/GitHub/OpenSesame/Sternberg/experiment_files,0,0,0,no,mono,no,18,no,white,no,no,768,109,3.6.1,legacy,legacy,1 7 5 2 9,osweb,1.4.0,1,0,n,37,,0,left,,,space,up,right,left,740,,,21763,21414,15536,740,2,legacy,680,1280,24,720,24,0,0,1280,1632986290185,5,1024,2,48000,-16,experiment,1,odd,Win32,3,310555,,,307277,83,308326,301276,83,21857,117583,312571,309339,313320,83,312571,Sternberg_updated,35,32595,42,yes,1024
84,84,776,776,black,no,experiment,Mozilla,Netscape,"5.0 (Windows NT 10.0; Win64; x64) AppleWebKit/537.36 (KHTML, like Gecko) Chrome/94.0.4606.61 Safari/537.36",legacy,legacy,legacy,0,uniform,1,1,left,42,42,42,42,0,0,0,42,42,0,0,0,42,42,42,0,0,42,42,0,30-08-21,30-08-21,09:18:08,Thu Sep 30 2021 09:18:08 GMT+0200 (Centraleuropæisk sommertid),The main experiment item,yes,0,0,/Users/ethan/Documents/GitHub/OpenSesame/Sternberg/experiment_files,0,0,0,no,mono,no,18,no,white,no,no,768,109,3.6.1,legacy,legacy,3 4 2,osweb,1.4.0,1,0,n,37,,0,left,,,space,up,right,left,758,,,21763,21414,15536,758,2,legacy,680,1280,24,720,24,0,0,1280,1632986290185,3,1024,2,48000,-16,experiment,1,odd,Win32,5,316603,,,313322,83,314372,301276,83,21857,117583,318619,315386,319384,83,318619,Sternberg_updated,36,33353,43,yes,1024
84,84,778,778,black,no,experiment,Mozilla,Netscape,"5.0 (Windows NT 10.0; Win64; x64) AppleWebKit/537.36 (KHTML, like Gecko) Chrome/94.0.4606.61 Safari/537.36",legacy,legacy,legacy,0,uniform,1,1,left,43,43,43,43,0,0,0,43,43,0,0,0,43,43,43,0,0,43,43,0,30-08-21,30-08-21,09:18:08,Thu Sep 30 2021 09:18:08 GMT+0200 (Centraleuropæisk sommertid),The main experiment item,yes,0,0,/Users/ethan/Documents/GitHub/OpenSesame/Sternberg/experiment_files,0,0,0,no,mono,no,18,no,white,no,no,768,109,3.6.1,legacy,legacy,6 8 4,osweb,1.4.0,1,0,n,37,,0,left,,,space,up,right,left,878,,,21763,21414,15536,878,2,legacy,680,1280,24,720,24,0,0,1280,1632986290185,3,1024,2,48000,-16,experiment,1,odd,Win32,1,322666,,,319386,83,320435,301276,83,21857,117583,324683,321451,325565,83,324683,Sternberg_updated,37,34231,44,yes,1024
84,84,774,774,black,no,experiment,Mozilla,Netscape,"5.0 (Windows NT 10.0; Win64; x64) AppleWebKit/537.36 (KHTML, like Gecko) Chrome/94.0.4606.61 Safari/537.36",legacy,legacy,legacy,0,uniform,1,1,left,44,44,44,44,0,0,0,44,44,0,0,0,44,44,44,0,0,44,44,0,30-08-21,30-08-21,09:18:08,Thu Sep 30 2021 09:18:08 GMT+0200 (Centraleuropæisk sommertid),The main experiment item,yes,0,0,/Users/ethan/Documents/GitHub/OpenSesame/Sternberg/experiment_files,0,0,0,no,mono,no,18,no,white,no,no,768,109,3.6.1,legacy,legacy,1 7 8 3 9,osweb,1.4.0,1,0,n,37,,0,left,,,space,up,right,left,609,,,21763,21414,15536,609,2,legacy,680,1280,24,720,24,0,0,1280,1632986290185,5,1024,2,48000,-16,experiment,1,odd,Win32,2,328847,,,325567,83,326617,301276,83,21857,117583,330864,327632,331479,83,330864,Sternberg_updated,38,34840,45,yes,1024
85,85,773,773,black,no,experiment,Mozilla,Netscape,"5.0 (Windows NT 10.0; Win64; x64) AppleWebKit/537.36 (KHTML, like Gecko) Chrome/94.0.4606.61 Safari/537.36",legacy,legacy,legacy,0,uniform,1,1,right,45,45,45,45,0,0,0,45,45,0,0,0,45,45,45,0,0,45,45,0,30-08-21,30-08-21,09:18:08,Thu Sep 30 2021 09:18:08 GMT+0200 (Centraleuropæisk sommertid),The main experiment item,yes,0,0,/Users/ethan/Documents/GitHub/OpenSesame/Sternberg/experiment_files,0,0,0,no,mono,no,18,no,white,no,no,768,109,3.6.1,legacy,legacy,2 4 6 9,osweb,1.4.0,1,3,y,37,,0,right,,,space,up,right,right,696,,,21763,21414,15536,696,2,legacy,680,1280,24,720,24,0,0,1280,1632986290185,4,1024,2,48000,-16,experiment,1,odd,Win32,6,334762,,,331481,83,332533,301276,83,21857,117583,336778,333546,337477,83,336778,Sternberg_updated,39,35536,46,yes,1024
85,85,770,770,black,no,experiment,Mozilla,Netscape,"5.0 (Windows NT 10.0; Win64; x64) AppleWebKit/537.36 (KHTML, like Gecko) Chrome/94.0.4606.61 Safari/537.36",legacy,legacy,legacy,0,uniform,1,1,right,46,46,46,46,0,0,0,46,46,0,0,0,46,46,46,0,0,46,46,0,30-08-21,30-08-21,09:18:08,Thu Sep 30 2021 09:18:08 GMT+0200 (Centraleuropæisk sommertid),The main experiment item,yes,0,0,/Users/ethan/Documents/GitHub/OpenSesame/Sternberg/experiment_files,0,0,0,no,mono,no,18,no,white,no,no,768,109,3.6.1,legacy,legacy,7 2 3,osweb,1.4.0,1,3,y,37,,0,right,,,space,up,right,right,644,,,21763,21414,15536,644,2,legacy,680,1280,24,720,24,0,0,1280,1632986290185,3,1024,2,48000,-16,experiment,1,odd,Win32,3,340759,,,337479,83,338529,301276,83,21857,117583,342776,339544,343425,83,342775,Sternberg_updated,40,36180,47,yes,1024
85,85,762,762,black,no,experiment,Mozilla,Netscape,"5.0 (Windows NT 10.0; Win64; x64) AppleWebKit/537.36 (KHTML, like Gecko) Chrome/94.0.4606.61 Safari/537.36",legacy,legacy,legacy,0,uniform,1,1,right,47,47,47,47,0,0,0,47,47,0,0,0,47,47,47,0,0,47,47,0,30-08-21,30-08-21,09:18:08,Thu Sep 30 2021 09:18:08 GMT+0200 (Centraleuropæisk sommertid),The main experiment item,yes,0,0,/Users/ethan/Documents/GitHub/OpenSesame/Sternberg/experiment_files,0,0,0,no,mono,no,18,no,white,no,no,768,109,3.6.1,legacy,legacy,7 1 3,osweb,1.4.0,1,2,y,37,,0,right,,,space,up,right,right,410,,,21763,21414,15536,410,2,legacy,680,1280,24,720,24,0,0,1280,1632986290185,3,1024,2,48000,-16,experiment,1,odd,Win32,1,346707,,,343427,83,344479,301276,83,21857,117583,348723,345491,349139,83,348723,Sternberg_updated,41,36590,48,yes,1024
86,86,760,760,black,no,experiment,Mozilla,Netscape,"5.0 (Windows NT 10.0; Win64; x64) AppleWebKit/537.36 (KHTML, like Gecko) Chrome/94.0.4606.61 Safari/537.36",legacy,legacy,legacy,0,uniform,1,1,left,48,48,48,48,0,0,0,48,48,0,0,0,48,48,48,0,0,48,48,0,30-08-21,30-08-21,09:18:08,Thu Sep 30 2021 09:18:08 GMT+0200 (Centraleuropæisk sommertid),The main experiment item,yes,0,0,/Users/ethan/Documents/GitHub/OpenSesame/Sternberg/experiment_files,0,0,0,no,mono,no,18,no,white,no,no,768,109,3.6.1,legacy,legacy,5,osweb,1.4.0,1,0,n,37,,0,left,,,space,up,right,left,668,,,21763,21414,15536,668,2,legacy,680,1280,24,720,24,0,0,1280,1632986290185,1,1024,2,48000,-16,experiment,1,odd,Win32,8,352422,,,349141,83,350189,301276,83,21857,117583,354438,351206,355120,83,354438,Sternberg_updated,42,37258,49,yes,1024
86,86,762,762,black,no,experiment,Mozilla,Netscape,"5.0 (Windows NT 10.0; Win64; x64) AppleWebKit/537.36 (KHTML, like Gecko) Chrome/94.0.4606.61 Safari/537.36",legacy,legacy,legacy,0,uniform,1,1,right,49,49,49,49,0,0,0,49,49,0,0,0,49,49,49,0,0,49,49,0,30-08-21,30-08-21,09:18:08,Thu Sep 30 2021 09:18:08 GMT+0200 (Centraleuropæisk sommertid),The main experiment item,yes,0,0,/Users/ethan/Documents/GitHub/OpenSesame/Sternberg/experiment_files,0,0,0,no,mono,no,18,no,white,no,no,768,109,3.6.1,legacy,legacy,9 6 2 4 1,osweb,1.4.0,1,4,y,37,,0,right,,,space,up,right,right,842,,,21763,21414,15536,842,2,legacy,680,1280,24,720,24,0,0,1280,1632986290185,5,1024,2,48000,-16,experiment,1,odd,Win32,4,358402,,,355122,83,356171,301276,83,21857,117583,360418,357186,361267,83,360418,Sternberg_updated,43,38100,50,yes,1024
86,86,758,758,black,no,experiment,Mozilla,Netscape,"5.0 (Windows NT 10.0; Win64; x64) AppleWebKit/537.36 (KHTML, like Gecko) Chrome/94.0.4606.61 Safari/537.36",legacy,legacy,legacy,0,uniform,1,1,right,50,50,50,50,0,0,0,50,50,0,0,0,50,50,50,0,0,50,50,0,30-08-21,30-08-21,09:18:08,Thu Sep 30 2021 09:18:08 GMT+0200 (Centraleuropæisk sommertid),The main experiment item,yes,0,0,/Users/ethan/Documents/GitHub/OpenSesame/Sternberg/experiment_files,0,0,0,no,mono,no,18,no,white,no,no,768,109,3.6.1,legacy,legacy,6 9 7 4 5 1,osweb,1.4.0,1,2,y,37,,0,right,,,space,up,right,right,543,,,21763,21414,15536,543,2,legacy,680,1280,24,720,24,0,0,1280,1632986290185,6,1024,2,48000,-16,experiment,1,odd,Win32,9,364533,,,361268,83,362313,301276,83,21857,117583,366550,363317,367098,83,366549,Sternberg_updated,44,38643,51,yes,1024
87,87,757,757,black,no,experiment,Mozilla,Netscape,"5.0 (Windows NT 10.0; Win64; x64) AppleWebKit/537.36 (KHTML, like Gecko) Chrome/94.0.4606.61 Safari/537.36",legacy,legacy,legacy,0,uniform,1,1,right,51,51,51,51,0,0,0,51,51,0,0,0,51,51,51,0,0,51,51,0,30-08-21,30-08-21,09:18:08,Thu Sep 30 2021 09:18:08 GMT+0200 (Centraleuropæisk sommertid),The main experiment item,yes,0,0,/Users/ethan/Documents/GitHub/OpenSesame/Sternberg/experiment_files,0,0,0,no,mono,no,18,no,white,no,no,768,109,3.6.1,legacy,legacy,4 9 7 8 5 3,osweb,1.4.0,1,4,y,37,,0,right,,,space,up,right,right,720,,,21763,21414,15536,720,2,legacy,680,1280,24,720,24,0,0,1280,1632986290185,6,1024,2,48000,-16,experiment,1,odd,Win32,8,370364,,,367100,83,368143,301276,83,21857,117583,372381,369148,373113,83,372380,Sternberg_updated,45,39363,52,yes,1024
87,87,759,759,black,no,experiment,Mozilla,Netscape,"5.0 (Windows NT 10.0; Win64; x64) AppleWebKit/537.36 (KHTML, like Gecko) Chrome/94.0.4606.61 Safari/537.36",legacy,legacy,legacy,0,uniform,1,1,right,52,52,52,52,0,0,0,52,52,0,0,0,52,52,52,0,0,52,52,0,30-08-21,30-08-21,09:18:08,Thu Sep 30 2021 09:18:08 GMT+0200 (Centraleuropæisk sommertid),The main experiment item,yes,0,0,/Users/ethan/Documents/GitHub/OpenSesame/Sternberg/experiment_files,0,0,0,no,mono,no,18,no,white,no,no,768,109,3.6.1,legacy,legacy,7 1 8 5 6 2,osweb,1.4.0,1,2,y,37,,0,right,,,space,up,right,right,847,,,21763,21414,15536,847,2,legacy,680,1280,24,720,24,0,0,1280,1632986290185,6,1024,2,48000,-16,experiment,1,odd,Win32,1,376395,,,373115,83,374166,301276,83,21857,117583,378411,375179,379260,83,378411,Sternberg_updated,46,40210,53,yes,1024
87,87,758,758,black,no,experiment,Mozilla,Netscape,"5.0 (Windows NT 10.0; Win64; x64) AppleWebKit/537.36 (KHTML, like Gecko) Chrome/94.0.4606.61 Safari/537.36",legacy,legacy,legacy,0,uniform,1,1,left,53,53,53,53,0,0,0,53,53,0,0,0,53,53,53,0,0,53,53,0,30-08-21,30-08-21,09:18:08,Thu Sep 30 2021 09:18:08 GMT+0200 (Centraleuropæisk sommertid),The main experiment item,yes,0,0,/Users/ethan/Documents/GitHub/OpenSesame/Sternberg/experiment_files,0,0,0,no,mono,no,18,no,white,no,no,768,109,3.6.1,legacy,legacy,8 5 7 3 6,osweb,1.4.0,1,0,n,37,,0,left,,,space,up,right,left,726,,,21763,21414,15536,726,2,legacy,680,1280,24,720,24,0,0,1280,1632986290185,5,1024,2,48000,-16,experiment,1,odd,Win32,9,382543,,,379262,83,380324,301276,83,21857,117583,384559,381327,385292,83,384559,Sternberg_updated,47,40936,54,yes,1024
87,87,758,758,black,no,experiment,Mozilla,Netscape,"5.0 (Windows NT 10.0; Win64; x64) AppleWebKit/537.36 (KHTML, like Gecko) Chrome/94.0.4606.61 Safari/537.36",legacy,legacy,legacy,0,uniform,1,1,right,54,54,54,54,0,0,0,54,54,0,0,0,54,54,54,0,0,54,54,0,30-08-21,30-08-21,09:18:08,Thu Sep 30 2021 09:18:08 GMT+0200 (Centraleuropæisk sommertid),The main experiment item,yes,0,0,/Users/ethan/Documents/GitHub/OpenSesame/Sternberg/experiment_files,0,0,0,no,mono,no,18,no,white,no,no,768,109,3.6.1,legacy,legacy,8 7 3,osweb,1.4.0,1,1,y,37,,0,right,,,space,up,right,right,752,,,21763,21414,15536,752,2,legacy,680,1280,24,720,24,0,0,1280,1632986290185,3,1024,2,48000,-16,experiment,1,odd,Win32,8,388574,,,385298,83,386345,301276,83,21857,117583,390590,387358,391356,83,390590,Sternberg_updated,48,41688,55,yes,1024
88,88,756,756,black,no,experiment,Mozilla,Netscape,"5.0 (Windows NT 10.0; Win64; x64) AppleWebKit/537.36 (KHTML, like Gecko) Chrome/94.0.4606.61 Safari/537.36",legacy,legacy,legacy,0,uniform,1,1,right,55,55,55,55,0,0,0,55,55,0,0,0,55,55,55,0,0,55,55,0,30-08-21,30-08-21,09:18:08,Thu Sep 30 2021 09:18:08 GMT+0200 (Centraleuropæisk sommertid),The main experiment item,yes,0,0,/Users/ethan/Documents/GitHub/OpenSesame/Sternberg/experiment_files,0,0,0,no,mono,no,18,no,white,no,no,768,109,3.6.1,legacy,legacy,9 1 7 2,osweb,1.4.0,1,2,y,37,,0,right,space,,space,up,right,right,662,27336,,21763,21414,15536,662,2,legacy,680,1280,24,720,24,0,0,1280,1632986290185,4,1024,2,48000,-16,experiment,1,odd,Win32,1,421977,392373,,391357,83,419749,301276,83,21857,117583,423993,420761,424659,83,423993,Sternberg_updated,49,42350,56,yes,1024
88,88,757,757,black,no,experiment,Mozilla,Netscape,"5.0 (Windows NT 10.0; Win64; x64) AppleWebKit/537.36 (KHTML, like Gecko) Chrome/94.0.4606.61 Safari/537.36",legacy,legacy,legacy,0,uniform,1,1,left,56,56,56,56,0,0,0,56,56,0,0,0,56,56,56,0,0,56,56,0,30-08-21,30-08-21,09:18:08,Thu Sep 30 2021 09:18:08 GMT+0200 (Centraleuropæisk sommertid),The main experiment item,yes,0,0,/Users/ethan/Documents/GitHub/OpenSesame/Sternberg/experiment_files,0,0,0,no,mono,no,18,no,white,no,no,768,109,3.6.1,legacy,legacy,7 1,osweb,1.4.0,1,0,n,37,,0,left,space,,space,up,right,left,784,27336,,21763,21414,15536,784,2,legacy,680,1280,24,720,24,0,0,1280,1632986290185,2,1024,2,48000,-16,experiment,1,odd,Win32,8,427941,392373,,424660,83,425715,301276,83,21857,117583,429958,426725,430756,83,429958,Sternberg_updated,50,43134,57,yes,1024
88,88,757,757,black,no,experiment,Mozilla,Netscape,"5.0 (Windows NT 10.0; Win64; x64) AppleWebKit/537.36 (KHTML, like Gecko) Chrome/94.0.4606.61 Safari/537.36",legacy,legacy,legacy,0,uniform,1,1,left,57,57,57,57,0,0,0,57,57,0,0,0,57,57,57,0,0,57,57,0,30-08-21,30-08-21,09:18:08,Thu Sep 30 2021 09:18:08 GMT+0200 (Centraleuropæisk sommertid),The main experiment item,yes,0,0,/Users/ethan/Documents/GitHub/OpenSesame/Sternberg/experiment_files,0,0,0,no,mono,no,18,no,white,no,no,768,109,3.6.1,legacy,legacy,2 8 9,osweb,1.4.0,1,0,n,37,,0,left,space,,space,up,right,left,796,27336,,21763,21414,15536,796,2,legacy,680,1280,24,720,24,0,0,1280,1632986290185,3,1024,2,48000,-16,experiment,1,odd,Win32,6,434022,392373,,430758,83,431804,301276,83,21857,117583,436038,432806,436837,83,436038,Sternberg_updated,51,43930,58,yes,1024
88,88,760,760,black,no,experiment,Mozilla,Netscape,"5.0 (Windows NT 10.0; Win64; x64) AppleWebKit/537.36 (KHTML, like Gecko) Chrome/94.0.4606.61 Safari/537.36",legacy,legacy,legacy,0,uniform,1,1,left,58,58,58,58,0,0,0,58,58,0,0,0,58,58,58,0,0,58,58,0,30-08-21,30-08-21,09:18:08,Thu Sep 30 2021 09:18:08 GMT+0200 (Centraleuropæisk sommertid),The main experiment item,yes,0,0,/Users/ethan/Documents/GitHub/OpenSesame/Sternberg/experiment_files,0,0,0,no,mono,no,18,no,white,no,no,768,109,3.6.1,legacy,legacy,1 7 5 2,osweb,1.4.0,1,0,n,37,,0,left,space,,space,up,right,left,881,27336,,21763,21414,15536,881,2,legacy,680,1280,24,720,24,0,0,1280,1632986290185,4,1024,2,48000,-16,experiment,1,odd,Win32,3,440120,392373,,436839,83,437895,301276,83,21857,117583,442136,438904,443018,83,442136,Sternberg_updated,52,44811,59,yes,1024
88,88,763,763,black,no,experiment,Mozilla,Netscape,"5.0 (Windows NT 10.0; Win64; x64) AppleWebKit/537.36 (KHTML, like Gecko) Chrome/94.0.4606.61 Safari/537.36",legacy,legacy,legacy,0,uniform,1,1,left,59,59,59,59,0,0,0,59,59,0,0,0,59,59,59,0,0,59,59,0,30-08-21,30-08-21,09:18:08,Thu Sep 30 2021 09:18:08 GMT+0200 (Centraleuropæisk sommertid),The main experiment item,yes,0,0,/Users/ethan/Documents/GitHub/OpenSesame/Sternberg/experiment_files,0,0,0,no,mono,no,18,no,white,no,no,768,109,3.6.1,legacy,legacy,5 3 2 6 9 8,osweb,1.4.0,1,0,n,37,,0,left,space,,space,up,right,left,965,27336,,21763,21414,15536,965,2,legacy,680,1280,24,720,24,0,0,1280,1632986290185,6,1024,2,48000,-16,experiment,1,odd,Win32,4,446301,392373,,443020,83,444072,301276,83,21857,117583,448317,445086,449283,83,448317,Sternberg_updated,53,45776,60,yes,1024
89,89,761,761,black,no,experiment,Mozilla,Netscape,"5.0 (Windows NT 10.0; Win64; x64) AppleWebKit/537.36 (KHTML, like Gecko) Chrome/94.0.4606.61 Safari/537.36",legacy,legacy,legacy,0,uniform,1,1,left,60,60,60,60,0,0,0,60,60,0,0,0,60,60,60,0,0,60,60,0,30-08-21,30-08-21,09:18:08,Thu Sep 30 2021 09:18:08 GMT+0200 (Centraleuropæisk sommertid),The main experiment item,yes,0,0,/Users/ethan/Documents/GitHub/OpenSesame/Sternberg/experiment_files,0,0,0,no,mono,no,18,no,white,no,no,768,109,3.6.1,legacy,legacy,8 6 3 4 7,osweb,1.4.0,1,0,n,37,,0,left,space,,space,up,right,left,661,27336,,21763,21414,15536,661,2,legacy,680,1280,24,720,24,0,0,1280,1632986290185,5,1024,2,48000,-16,experiment,1,odd,Win32,1,452565,392373,,449284,83,450335,301276,83,21857,117583,454581,451349,455247,83,454581,Sternberg_updated,54,46437,61,yes,1024
89,89,758,758,black,no,experiment,Mozilla,Netscape,"5.0 (Windows NT 10.0; Win64; x64) AppleWebKit/537.36 (KHTML, like Gecko) Chrome/94.0.4606.61 Safari/537.36",legacy,legacy,legacy,0,uniform,1,1,right,61,61,61,61,0,0,0,61,61,0,0,0,61,61,61,0,0,61,61,0,30-08-21,30-08-21,09:18:08,Thu Sep 30 2021 09:18:08 GMT+0200 (Centraleuropæisk sommertid),The main experiment item,yes,0,0,/Users/ethan/Documents/GitHub/OpenSesame/Sternberg/experiment_files,0,0,0,no,mono,no,18,no,white,no,no,768,109,3.6.1,legacy,legacy,5 2 6,osweb,1.4.0,1,2,y,37,,0,right,space,,space,up,right,right,578,27336,,21763,21414,15536,578,2,legacy,680,1280,24,720,24,0,0,1280,1632986290185,3,1024,2,48000,-16,experiment,1,odd,Win32,2,458529,392373,,455248,83,456307,301276,83,21857,117583,460545,457313,461128,83,460545,Sternberg_updated,55,47015,62,yes,1024
89,89,756,756,black,no,experiment,Mozilla,Netscape,"5.0 (Windows NT 10.0; Win64; x64) AppleWebKit/537.36 (KHTML, like Gecko) Chrome/94.0.4606.61 Safari/537.36",legacy,legacy,legacy,0,uniform,1,1,right,62,62,62,62,0,0,0,62,62,0,0,0,62,62,62,0,0,62,62,0,30-08-21,30-08-21,09:18:08,Thu Sep 30 2021 09:18:08 GMT+0200 (Centraleuropæisk sommertid),The main experiment item,yes,0,0,/Users/ethan/Documents/GitHub/OpenSesame/Sternberg/experiment_files,0,0,0,no,mono,no,18,no,white,no,no,768,109,3.6.1,legacy,legacy,2 3 7 4,osweb,1.4.0,1,1,y,37,,0,right,space,,space,up,right,right,583,27336,,21763,21414,15536,583,2,legacy,680,1280,24,720,24,0,0,1280,1632986290185,4,1024,2,48000,-16,experiment,1,odd,Win32,2,464410,392373,,461129,83,462182,301276,83,21857,117583,466427,463194,467025,83,466426,Sternberg_updated,56,47598,63,yes,1024
89,89,753,753,black,no,experiment,Mozilla,Netscape,"5.0 (Windows NT 10.0; Win64; x64) AppleWebKit/537.36 (KHTML, like Gecko) Chrome/94.0.4606.61 Safari/537.36",legacy,legacy,legacy,0,uniform,1,1,right,63,63,63,63,0,0,0,63,63,0,0,0,63,63,63,0,0,63,63,0,30-08-21,30-08-21,09:18:08,Thu Sep 30 2021 09:18:08 GMT+0200 (Centraleuropæisk sommertid),The main experiment item,yes,0,0,/Users/ethan/Documents/GitHub/OpenSesame/Sternberg/experiment_files,0,0,0,no,mono,no,18,no,white,no,no,768,109,3.6.1,legacy,legacy,8 5 1 3 9,osweb,1.4.0,1,4,y,37,,0,right,space,,space,up,right,right,584,27336,,21763,21414,15536,584,2,legacy,680,1280,24,720,24,0,0,1280,1632986290185,5,1024,2,48000,-16,experiment,1,odd,Win32,3,470291,392373,,467027,83,468071,301276,83,21857,117583,472308,469075,472906,83,472308,Sternberg_updated,57,48182,64,yes,1024
89,89,754,754,black,no,experiment,Mozilla,Netscape,"5.0 (Windows NT 10.0; Win64; x64) AppleWebKit/537.36 (KHTML, like Gecko) Chrome/94.0.4606.61 Safari/537.36",legacy,legacy,legacy,0,uniform,1,1,left,64,64,64,64,0,0,0,64,64,0,0,0,64,64,64,0,0,64,64,0,30-08-21,30-08-21,09:18:08,Thu Sep 30 2021 09:18:08 GMT+0200 (Centraleuropæisk sommertid),The main experiment item,yes,0,0,/Users/ethan/Documents/GitHub/OpenSesame/Sternberg/experiment_files,0,0,0,no,mono,no,18,no,white,no,no,768,109,3.6.1,legacy,legacy,5 9 2 3,osweb,1.4.0,1,0,n,37,,0,left,space,,space,up,right,left,801,27336,,21763,21414,15536,801,2,legacy,680,1280,24,720,24,0,0,1280,1632986290185,4,1024,2,48000,-16,experiment,1,odd,Win32,8,476172,392373,,472908,83,473952,301276,83,21857,117583,478188,474956,479004,83,478188,Sternberg_updated,58,48983,65,yes,1024
89,89,750,750,black,no,experiment,Mozilla,Netscape,"5.0 (Windows NT 10.0; Win64; x64) AppleWebKit/537.36 (KHTML, like Gecko) Chrome/94.0.4606.61 Safari/537.36",legacy,legacy,legacy,0,uniform,1,1,right,65,65,65,65,0,0,0,65,65,0,0,0,65,65,65,0,0,65,65,0,30-08-21,30-08-21,09:18:08,Thu Sep 30 2021 09:18:08 GMT+0200 (Centraleuropæisk sommertid),The main experiment item,yes,0,0,/Users/ethan/Documents/GitHub/OpenSesame/Sternberg/experiment_files,0,0,0,no,mono,no,18,no,white,no,no,768,109,3.6.1,legacy,legacy,4 7 6 8 2 3,osweb,1.4.0,1,6,y,37,,0,right,space,,space,up,right,right,514,27336,,21763,21414,15536,514,2,legacy,680,1280,24,720,24,0,0,1280,1632986290185,6,1024,2,48000,-16,experiment,1,odd,Win32,3,482286,392373,,479005,83,480055,301276,83,21857,117583,484302,481070,484818,83,484302,Sternberg_updated,59,49497,66,yes,1024
90,90,747,747,black,no,experiment,Mozilla,Netscape,"5.0 (Windows NT 10.0; Win64; x64) AppleWebKit/537.36 (KHTML, like Gecko) Chrome/94.0.4606.61 Safari/537.36",legacy,legacy,legacy,0,uniform,1,1,left,66,66,66,66,0,0,0,66,66,0,0,0,66,66,66,0,0,66,66,0,30-08-21,30-08-21,09:18:08,Thu Sep 30 2021 09:18:08 GMT+0200 (Centraleuropæisk sommertid),The main experiment item,yes,0,0,/Users/ethan/Documents/GitHub/OpenSesame/Sternberg/experiment_files,0,0,0,no,mono,no,18,no,white,no,no,768,109,3.6.1,legacy,legacy,2 8 9 4 1,osweb,1.4.0,1,0,n,37,,0,left,space,,space,up,right,left,577,27336,,21763,21414,15536,577,2,legacy,680,1280,24,720,24,0,0,1280,1632986290185,5,1024,2,48000,-16,experiment,1,odd,Win32,5,488101,392373,,484820,83,485868,301276,83,21857,117583,490117,486885,490699,83,490117,Sternberg_updated,60,50074,67,yes,1024
90,90,746,746,black,no,experiment,Mozilla,Netscape,"5.0 (Windows NT 10.0; Win64; x64) AppleWebKit/537.36 (KHTML, like Gecko) Chrome/94.0.4606.61 Safari/537.36",legacy,legacy,legacy,0,uniform,1,1,right,67,67,67,67,0,0,0,67,67,0,0,0,67,67,67,0,0,67,67,0,30-08-21,30-08-21,09:18:08,Thu Sep 30 2021 09:18:08 GMT+0200 (Centraleuropæisk sommertid),The main experiment item,yes,0,0,/Users/ethan/Documents/GitHub/OpenSesame/Sternberg/experiment_files,0,0,0,no,mono,no,18,no,white,no,no,768,109,3.6.1,legacy,legacy,6 9 3 1,osweb,1.4.0,1,4,y,37,,0,right,space,,space,up,right,right,623,27336,,21763,21414,15536,623,2,legacy,680,1280,24,720,24,0,0,1280,1632986290185,4,1024,2,48000,-16,experiment,1,odd,Win32,1,493965,392373,,490701,83,491745,301276,83,21857,117583,495981,492749,496614,83,495981,Sternberg_updated,61,50697,68,yes,1024
90,90,743,743,black,no,experiment,Mozilla,Netscape,"5.0 (Windows NT 10.0; Win64; x64) AppleWebKit/537.36 (KHTML, like Gecko) Chrome/94.0.4606.61 Safari/537.36",legacy,legacy,legacy,0,uniform,1,1,left,68,68,68,68,0,0,0,68,68,0,0,0,68,68,68,0,0,68,68,0,30-08-21,30-08-21,09:18:08,Thu Sep 30 2021 09:18:08 GMT+0200 (Centraleuropæisk sommertid),The main experiment item,yes,0,0,/Users/ethan/Documents/GitHub/OpenSesame/Sternberg/experiment_files,0,0,0,no,mono,no,18,no,white,no,no,768,109,3.6.1,legacy,legacy,5 7 3,osweb,1.4.0,1,0,n,37,,0,left,space,,space,up,right,left,580,27336,,21763,21414,15536,580,2,legacy,680,1280,24,720,24,0,0,1280,1632986290185,3,1024,2,48000,-16,experiment,1,odd,Win32,9,499896,392373,,496615,83,497665,301276,83,21857,117583,501912,498680,502494,83,501912,Sternberg_updated,62,51277,69,yes,1024
90,90,740,740,black,no,experiment,Mozilla,Netscape,"5.0 (Windows NT 10.0; Win64; x64) AppleWebKit/537.36 (KHTML, like Gecko) Chrome/94.0.4606.61 Safari/537.36",legacy,legacy,legacy,0,uniform,1,1,right,69,69,69,69,0,0,0,69,69,0,0,0,69,69,69,0,0,69,69,0,30-08-21,30-08-21,09:18:08,Thu Sep 30 2021 09:18:08 GMT+0200 (Centraleuropæisk sommertid),The main experiment item,yes,0,0,/Users/ethan/Documents/GitHub/OpenSesame/Sternberg/experiment_files,0,0,0,no,mono,no,18,no,white,no,no,768,109,3.6.1,legacy,legacy,4 1 5,osweb,1.4.0,1,2,y,37,,0,right,space,,space,up,right,right,528,27336,,21763,21414,15536,528,2,legacy,680,1280,24,720,24,0,0,1280,1632986290185,3,1024,2,48000,-16,experiment,1,odd,Win32,1,505777,392373,,502496,83,503547,301276,83,21857,117583,507793,504561,508325,83,507793,Sternberg_updated,63,51805,70,yes,1024
90,90,738,738,black,no,experiment,Mozilla,Netscape,"5.0 (Windows NT 10.0; Win64; x64) AppleWebKit/537.36 (KHTML, like Gecko) Chrome/94.0.4606.61 Safari/537.36",legacy,legacy,legacy,0,uniform,1,1,left,70,70,70,70,0,0,0,70,70,0,0,0,70,70,70,0,0,70,70,0,30-08-21,30-08-21,09:18:08,Thu Sep 30 2021 09:18:08 GMT+0200 (Centraleuropæisk sommertid),The main experiment item,yes,0,0,/Users/ethan/Documents/GitHub/OpenSesame/Sternberg/experiment_files,0,0,0,no,mono,no,18,no,white,no,no,768,109,3.6.1,legacy,legacy,8 4 3 5,osweb,1.4.0,1,0,n,37,,0,left,space,,space,up,right,left,577,27336,,21763,21414,15536,577,2,legacy,680,1280,24,720,24,0,0,1280,1632986290185,4,1024,2,48000,-16,experiment,1,odd,Win32,6,511608,392373,,508327,83,509381,301276,83,21857,117583,513624,510392,514207,83,513624,Sternberg_updated,64,52382,71,yes,1024
90,90,738,738,black,no,experiment,Mozilla,Netscape,"5.0 (Windows NT 10.0; Win64; x64) AppleWebKit/537.36 (KHTML, like Gecko) Chrome/94.0.4606.61 Safari/537.36",legacy,legacy,legacy,0,uniform,1,1,right,71,71,71,71,0,0,0,71,71,0,0,0,71,71,71,0,0,71,71,0,30-08-21,30-08-21,09:18:08,Thu Sep 30 2021 09:18:08 GMT+0200 (Centraleuropæisk sommertid),The main experiment item,yes,0,0,/Users/ethan/Documents/GitHub/OpenSesame/Sternberg/experiment_files,0,0,0,no,mono,no,18,no,white,no,no,768,109,3.6.1,legacy,legacy,9 1 6 7 8,osweb,1.4.0,1,1,y,37,,0,right,space,,space,up,right,right,720,27336,,21763,21414,15536,720,2,legacy,680,1280,24,720,24,0,0,1280,1632986290185,5,1024,2,48000,-16,experiment,1,odd,Win32,9,517489,392373,,514208,83,515259,301276,83,21857,117583,519505,516273,520238,83,519505,Sternberg_updated,65,53102,72,yes,1024
90,90,736,736,black,no,experiment,Mozilla,Netscape,"5.0 (Windows NT 10.0; Win64; x64) AppleWebKit/537.36 (KHTML, like Gecko) Chrome/94.0.4606.61 Safari/537.36",legacy,legacy,legacy,0,uniform,1,1,right,72,72,72,72,0,0,0,72,72,0,0,0,72,72,72,0,0,72,72,0,30-08-21,30-08-21,09:18:08,Thu Sep 30 2021 09:18:08 GMT+0200 (Centraleuropæisk sommertid),The main experiment item,yes,0,0,/Users/ethan/Documents/GitHub/OpenSesame/Sternberg/experiment_files,0,0,0,no,mono,no,18,no,white,no,no,768,109,3.6.1,legacy,legacy,4 1 8 7 5,osweb,1.4.0,1,3,y,37,,0,right,space,,space,up,right,right,625,27336,,21763,21414,15536,625,2,legacy,680,1280,24,720,24,0,0,1280,1632986290185,5,1024,2,48000,-16,experiment,1,odd,Win32,8,523520,392373,,520239,83,521287,301276,83,21857,117583,525536,522304,526168,83,525536,Sternberg_updated,66,53727,73,yes,1024
91,91,735,735,black,no,experiment,Mozilla,Netscape,"5.0 (Windows NT 10.0; Win64; x64) AppleWebKit/537.36 (KHTML, like Gecko) Chrome/94.0.4606.61 Safari/537.36",legacy,legacy,legacy,0,uniform,1,1,left,73,73,73,73,0,0,0,73,73,0,0,0,73,73,73,0,0,73,73,0,30-08-21,30-08-21,09:18:08,Thu Sep 30 2021 09:18:08 GMT+0200 (Centraleuropæisk sommertid),The main experiment item,yes,0,0,/Users/ethan/Documents/GitHub/OpenSesame/Sternberg/experiment_files,0,0,0,no,mono,no,18,no,white,no,no,768,109,3.6.1,legacy,legacy,6 9 4 5 2,osweb,1.4.0,1,0,n,37,,0,left,space,,space,up,right,left,680,27336,,21763,21414,15536,680,2,legacy,680,1280,24,720,24,0,0,1280,1632986290185,5,1024,2,48000,-16,experiment,1,odd,Win32,1,529451,392373,,526170,83,527222,301276,83,21857,117583,531467,528235,532149,83,531467,Sternberg_updated,67,54407,74,yes,1024
91,91,733,733,black,no,experiment,Mozilla,Netscape,"5.0 (Windows NT 10.0; Win64; x64) AppleWebKit/537.36 (KHTML, like Gecko) Chrome/94.0.4606.61 Safari/537.36",legacy,legacy,legacy,0,uniform,1,1,left,74,74,74,74,0,0,0,74,74,0,0,0,74,74,74,0,0,74,74,0,30-08-21,30-08-21,09:18:08,Thu Sep 30 2021 09:18:08 GMT+0200 (Centraleuropæisk sommertid),The main experiment item,yes,0,0,/Users/ethan/Documents/GitHub/OpenSesame/Sternberg/experiment_files,0,0,0,no,mono,no,18,no,white,no,no,768,109,3.6.1,legacy,legacy,6 7 5 9,osweb,1.4.0,1,0,n,37,,0,left,space,,space,up,right,left,561,27336,,21763,21414,15536,561,2,legacy,680,1280,24,720,24,0,0,1280,1632986290185,4,1024,2,48000,-16,experiment,1,odd,Win32,2,535432,392373,,532151,83,533204,301276,83,21857,117583,537447,534216,538014,83,537447,Sternberg_updated,68,54968,75,yes,1024
91,91,732,732,black,no,experiment,Mozilla,Netscape,"5.0 (Windows NT 10.0; Win64; x64) AppleWebKit/537.36 (KHTML, like Gecko) Chrome/94.0.4606.61 Safari/537.36",legacy,legacy,legacy,0,uniform,1,1,right,75,75,75,75,0,0,0,75,75,0,0,0,75,75,75,0,0,75,75,0,30-08-21,30-08-21,09:18:08,Thu Sep 30 2021 09:18:08 GMT+0200 (Centraleuropæisk sommertid),The main experiment item,yes,0,0,/Users/ethan/Documents/GitHub/OpenSesame/Sternberg/experiment_files,0,0,0,no,mono,no,18,no,white,no,no,768,109,3.6.1,legacy,legacy,9 8 4,osweb,1.4.0,1,1,y,37,,0,right,space,,space,up,right,right,635,27336,,21763,21414,15536,635,2,legacy,680,1280,24,720,24,0,0,1280,1632986290185,3,1024,2,48000,-16,experiment,1,odd,Win32,9,541296,392373,,538015,83,539071,301276,83,21857,117583,543312,540080,543961,83,543312,Sternberg_updated,69,55603,76,yes,1024
91,91,732,732,black,no,experiment,Mozilla,Netscape,"5.0 (Windows NT 10.0; Win64; x64) AppleWebKit/537.36 (KHTML, like Gecko) Chrome/94.0.4606.61 Safari/537.36",legacy,legacy,legacy,0,uniform,1,1,left,76,76,76,76,0,0,0,76,76,0,0,0,76,76,76,0,0,76,76,0,30-08-21,30-08-21,09:18:08,Thu Sep 30 2021 09:18:08 GMT+0200 (Centraleuropæisk sommertid),The main experiment item,yes,0,0,/Users/ethan/Documents/GitHub/OpenSesame/Sternberg/experiment_files,0,0,0,no,mono,no,18,no,white,no,no,768,109,3.6.1,legacy,legacy,1 5 3 2 8,osweb,1.4.0,1,0,n,37,,0,left,space,,space,up,right,left,754,27336,,21763,21414,15536,754,2,legacy,680,1280,24,720,24,0,0,1280,1632986290185,5,1024,2,48000,-16,experiment,1,odd,Win32,4,547244,392373,,543963,83,545012,301276,83,21857,117583,549260,546028,550026,83,549260,Sternberg_updated,70,56357,77,yes,1024
91,91,730,730,black,no,experiment,Mozilla,Netscape,"5.0 (Windows NT 10.0; Win64; x64) AppleWebKit/537.36 (KHTML, like Gecko) Chrome/94.0.4606.61 Safari/537.36",legacy,legacy,legacy,0,uniform,1,1,right,77,77,77,77,0,0,0,77,77,0,0,0,77,77,77,0,0,77,77,0,30-08-21,30-08-21,09:18:08,Thu Sep 30 2021 09:18:08 GMT+0200 (Centraleuropæisk sommertid),The main experiment item,yes,0,0,/Users/ethan/Documents/GitHub/OpenSesame/Sternberg/experiment_files,0,0,0,no,mono,no,18,no,white,no,no,768,109,3.6.1,legacy,legacy,4 6 5 8,osweb,1.4.0,1,1,y,37,,0,right,space,,space,up,right,right,563,27336,,21763,21414,15536,563,2,legacy,680,1280,24,720,24,0,0,1280,1632986290185,4,1024,2,48000,-16,experiment,1,odd,Win32,4,553308,392373,,550027,83,551076,301276,83,21857,117583,555324,552092,555890,83,555324,Sternberg_updated,71,56920,78,yes,1024
91,91,729,729,black,no,experiment,Mozilla,Netscape,"5.0 (Windows NT 10.0; Win64; x64) AppleWebKit/537.36 (KHTML, like Gecko) Chrome/94.0.4606.61 Safari/537.36",legacy,legacy,legacy,0,uniform,1,1,left,78,78,78,78,0,0,0,78,78,0,0,0,78,78,78,0,0,78,78,0,30-08-21,30-08-21,09:18:08,Thu Sep 30 2021 09:18:08 GMT+0200 (Centraleuropæisk sommertid),The main experiment item,yes,0,0,/Users/ethan/Documents/GitHub/OpenSesame/Sternberg/experiment_files,0,0,0,no,mono,no,18,no,white,no,no,768,109,3.6.1,legacy,legacy,8 4 3 9,osweb,1.4.0,1,0,n,37,,0,left,space,,space,up,right,left,678,27336,,21763,21414,15536,678,2,legacy,680,1280,24,720,24,0,0,1280,1632986290185,4,1024,2,48000,-16,experiment,1,odd,Win32,5,559172,392373,,555892,83,556941,301276,83,21857,117583,561189,557963,561871,83,561189,Sternberg_updated,72,57598,79,yes,1024
91,91,734,734,black,no,experiment,Mozilla,Netscape,"5.0 (Windows NT 10.0; Win64; x64) AppleWebKit/537.36 (KHTML, like Gecko) Chrome/94.0.4606.61 Safari/537.36",legacy,legacy,legacy,0,uniform,1,1,right,79,79,79,79,0,0,0,79,79,0,0,0,79,79,79,0,0,79,79,0,30-08-21,30-08-21,09:18:08,Thu Sep 30 2021 09:18:08 GMT+0200 (Centraleuropæisk sommertid),The main experiment item,yes,0,0,/Users/ethan/Documents/GitHub/OpenSesame/Sternberg/experiment_files,0,0,0,no,mono,no,18,no,white,no,no,768,109,3.6.1,legacy,legacy,8 5 4 7 3 1,osweb,1.4.0,1,2,y,37,,0,right,space,,space,up,right,right,1157,27336,,21763,21414,15536,1157,2,legacy,680,1280,24,720,24,0,0,1280,1632986290185,6,1024,2,48000,-16,experiment,1,odd,Win32,5,565153,392373,,561873,83,562923,301276,83,21857,117583,567170,563938,568335,83,567169,Sternberg_updated,73,58755,80,yes,1024
91,91,737,737,black,no,experiment,Mozilla,Netscape,"5.0 (Windows NT 10.0; Win64; x64) AppleWebKit/537.36 (KHTML, like Gecko) Chrome/94.0.4606.61 Safari/537.36",legacy,legacy,legacy,0,uniform,1,1,left,80,80,80,80,0,0,0,80,80,0,0,0,80,80,80,0,0,80,80,0,30-08-21,30-08-21,09:18:08,Thu Sep 30 2021 09:18:08 GMT+0200 (Centraleuropæisk sommertid),The main experiment item,yes,0,0,/Users/ethan/Documents/GitHub/OpenSesame/Sternberg/experiment_files,0,0,0,no,mono,no,18,no,white,no,no,768,109,3.6.1,legacy,legacy,1 4 3 6 5,osweb,1.4.0,1,0,n,37,,0,left,space,,space,up,right,left,933,27336,,21763,21414,15536,933,2,legacy,680,1280,24,720,24,0,0,1280,1632986290185,5,1024,2,48000,-16,experiment,1,odd,Win32,8,571617,392373,,568337,83,569391,301276,83,21857,117583,573634,570402,574582,83,573634,Sternberg_updated,74,59688,81,yes,1024
91,91,737,737,black,no,experiment,Mozilla,Netscape,"5.0 (Windows NT 10.0; Win64; x64) AppleWebKit/537.36 (KHTML, like Gecko) Chrome/94.0.4606.61 Safari/537.36",legacy,legacy,legacy,0,uniform,1,1,left,81,81,81,81,0,0,0,81,81,0,0,0,81,81,81,0,0,81,81,0,30-08-21,30-08-21,09:18:08,Thu Sep 30 2021 09:18:08 GMT+0200 (Centraleuropæisk sommertid),The main experiment item,yes,0,0,/Users/ethan/Documents/GitHub/OpenSesame/Sternberg/experiment_files,0,0,0,no,mono,no,18,no,white,no,no,768,109,3.6.1,legacy,legacy,1,osweb,1.4.0,1,0,n,37,,0,left,space,,space,up,right,left,775,27336,,21763,21414,15536,775,2,legacy,680,1280,24,720,24,0,0,1280,1632986290185,1,1024,2,48000,-16,experiment,1,odd,Win32,7,577865,392373,,574584,83,575637,301276,83,21857,117583,579881,576649,580663,83,579881,Sternberg_updated,75,60463,82,yes,1024
92,92,739,739,black,no,experiment,Mozilla,Netscape,"5.0 (Windows NT 10.0; Win64; x64) AppleWebKit/537.36 (KHTML, like Gecko) Chrome/94.0.4606.61 Safari/537.36",legacy,legacy,legacy,0,uniform,1,1,left,82,82,82,82,0,0,0,82,82,0,0,0,82,82,82,0,0,82,82,0,30-08-21,30-08-21,09:18:08,Thu Sep 30 2021 09:18:08 GMT+0200 (Centraleuropæisk sommertid),The main experiment item,yes,0,0,/Users/ethan/Documents/GitHub/OpenSesame/Sternberg/experiment_files,0,0,0,no,mono,no,18,no,white,no,no,768,109,3.6.1,legacy,legacy,3 4 9 6 7 8,osweb,1.4.0,1,0,n,37,,0,left,space,,space,up,right,left,892,27336,,21763,21414,15536,892,2,legacy,680,1280,24,720,24,0,0,1280,1632986290185,6,1024,2,48000,-16,experiment,1,odd,Win32,2,583946,392373,,580665,83,581717,301276,83,21857,117583,585962,582730,586861,83,585962,Sternberg_updated,76,61355,83,yes,1024
92,92,736,736,black,no,experiment,Mozilla,Netscape,"5.0 (Windows NT 10.0; Win64; x64) AppleWebKit/537.36 (KHTML, like Gecko) Chrome/94.0.4606.61 Safari/537.36",legacy,legacy,legacy,0,uniform,1,1,right,83,83,83,83,0,0,0,83,83,0,0,0,83,83,83,0,0,83,83,0,30-08-21,30-08-21,09:18:08,Thu Sep 30 2021 09:18:08 GMT+0200 (Centraleuropæisk sommertid),The main experiment item,yes,0,0,/Users/ethan/Documents/GitHub/OpenSesame/Sternberg/experiment_files,0,0,0,no,mono,no,18,no,white,no,no,768,109,3.6.1,legacy,legacy,9 3 8 2 1 4,osweb,1.4.0,1,3,y,37,,0,right,space,,space,up,right,right,490,27336,,21763,21414,15536,490,2,legacy,680,1280,24,720,24,0,0,1280,1632986290185,6,1024,2,48000,-16,experiment,1,odd,Win32,8,590143,392373,,586863,83,587918,301276,83,21857,117583,592160,588928,592659,83,592160,Sternberg_updated,77,61845,84,yes,1024
92,92,738,738,black,no,experiment,Mozilla,Netscape,"5.0 (Windows NT 10.0; Win64; x64) AppleWebKit/537.36 (KHTML, like Gecko) Chrome/94.0.4606.61 Safari/537.36",legacy,legacy,legacy,0,uniform,1,1,right,84,84,84,84,0,0,0,84,84,0,0,0,84,84,84,0,0,84,84,0,30-08-21,30-08-21,09:18:08,Thu Sep 30 2021 09:18:08 GMT+0200 (Centraleuropæisk sommertid),The main experiment item,yes,0,0,/Users/ethan/Documents/GitHub/OpenSesame/Sternberg/experiment_files,0,0,0,no,mono,no,18,no,white,no,no,768,109,3.6.1,legacy,legacy,8 3,osweb,1.4.0,1,2,y,37,,0,right,space,,space,up,right,right,914,27336,,21763,21414,15536,914,2,legacy,680,1280,24,720,24,0,0,1280,1632986290185,2,1024,2,48000,-16,experiment,1,odd,Win32,3,595941,392373,,592660,83,593712,301276,83,21857,117583,597957,594725,598873,83,597957,Sternberg_updated,78,62759,85,yes,1024
92,92,738,738,black,no,experiment,Mozilla,Netscape,"5.0 (Windows NT 10.0; Win64; x64) AppleWebKit/537.36 (KHTML, like Gecko) Chrome/94.0.4606.61 Safari/537.36",legacy,legacy,legacy,0,uniform,1,1,right,85,85,85,85,0,0,0,85,85,0,0,0,85,85,85,0,0,85,85,0,30-08-21,30-08-21,09:18:08,Thu Sep 30 2021 09:18:08 GMT+0200 (Centraleuropæisk sommertid),The main experiment item,yes,0,0,/Users/ethan/Documents/GitHub/OpenSesame/Sternberg/experiment_files,0,0,0,no,mono,no,18,no,white,no,no,768,109,3.6.1,legacy,legacy,9 5 3 8 4,osweb,1.4.0,1,1,y,37,,0,right,space,,space,up,right,right,714,27336,,21763,21414,15536,714,2,legacy,680,1280,24,720,24,0,0,1280,1632986290185,5,1024,2,48000,-16,experiment,1,odd,Win32,9,602155,392373,,598874,83,599923,301276,83,21857,117583,604171,600939,604887,83,604171,Sternberg_updated,79,63473,86,yes,1024
92,92,741,741,black,no,experiment,Mozilla,Netscape,"5.0 (Windows NT 10.0; Win64; x64) AppleWebKit/537.36 (KHTML, like Gecko) Chrome/94.0.4606.61 Safari/537.36",legacy,legacy,legacy,0,uniform,1,1,left,86,86,86,86,0,0,0,86,86,0,0,0,86,86,86,0,0,86,86,0,30-08-21,30-08-21,09:18:08,Thu Sep 30 2021 09:18:08 GMT+0200 (Centraleuropæisk sommertid),The main experiment item,yes,0,0,/Users/ethan/Documents/GitHub/OpenSesame/Sternberg/experiment_files,0,0,0,no,mono,no,18,no,white,no,no,768,109,3.6.1,legacy,legacy,2 7 5,osweb,1.4.0,1,0,n,37,,0,left,space,,space,up,right,left,989,27336,,21763,21414,15536,989,2,legacy,680,1280,24,720,24,0,0,1280,1632986290185,3,1024,2,48000,-16,experiment,1,odd,Win32,8,608169,392373,,604889,83,605948,301276,83,21857,117583,610186,606954,611185,83,610186,Sternberg_updated,80,64462,87,yes,1024
92,92,740,740,black,no,experiment,Mozilla,Netscape,"5.0 (Windows NT 10.0; Win64; x64) AppleWebKit/537.36 (KHTML, like Gecko) Chrome/94.0.4606.61 Safari/537.36",legacy,legacy,legacy,0,uniform,1,1,left,87,87,87,87,0,0,0,87,87,0,0,0,87,87,87,0,0,87,87,0,30-08-21,30-08-21,09:18:08,Thu Sep 30 2021 09:18:08 GMT+0200 (Centraleuropæisk sommertid),The main experiment item,yes,0,0,/Users/ethan/Documents/GitHub/OpenSesame/Sternberg/experiment_files,0,0,0,no,mono,no,18,no,white,no,no,768,109,3.6.1,legacy,legacy,9 7 4 5 8,osweb,1.4.0,1,0,n,37,,0,left,space,,space,up,right,left,631,27336,,21763,21414,15536,631,2,legacy,680,1280,24,720,24,0,0,1280,1632986290185,5,1024,2,48000,-16,experiment,1,odd,Win32,6,614467,392373,,611186,83,612236,301276,83,21857,117583,616483,613252,617116,83,616483,Sternberg_updated,81,65093,88,yes,1024
91,91,742,742,black,no,experiment,Mozilla,Netscape,"5.0 (Windows NT 10.0; Win64; x64) AppleWebKit/537.36 (KHTML, like Gecko) Chrome/94.0.4606.61 Safari/537.36",legacy,legacy,legacy,0,uniform,0,0,right,88,88,88,88,0,0,0,88,88,0,0,0,88,88,88,0,0,88,88,0,30-08-21,30-08-21,09:18:08,Thu Sep 30 2021 09:18:08 GMT+0200 (Centraleuropæisk sommertid),The main experiment item,yes,0,0,/Users/ethan/Documents/GitHub/OpenSesame/Sternberg/experiment_files,0,0,0,no,mono,no,18,no,white,no,no,768,109,3.6.1,legacy,legacy,6 7 8 5,osweb,1.4.0,1,3,y,37,,0,left,space,,space,up,right,left,951,27336,,21763,21414,15536,951,2,legacy,680,1280,24,720,24,0,0,1280,1632986290185,4,1024,2,48000,-16,experiment,1,odd,Win32,8,620398,392373,,617118,83,618167,301276,83,21857,117583,622414,619182,623380,83,622414,Sternberg_updated,81,66044,89,yes,1024
91,91,740,740,black,no,experiment,Mozilla,Netscape,"5.0 (Windows NT 10.0; Win64; x64) AppleWebKit/537.36 (KHTML, like Gecko) Chrome/94.0.4606.61 Safari/537.36",legacy,legacy,legacy,0,uniform,1,1,left,89,89,89,89,0,0,0,89,89,0,0,0,89,89,89,0,0,89,89,0,30-08-21,30-08-21,09:18:08,Thu Sep 30 2021 09:18:08 GMT+0200 (Centraleuropæisk sommertid),The main experiment item,yes,0,0,/Users/ethan/Documents/GitHub/OpenSesame/Sternberg/experiment_files,0,0,0,no,mono,no,18,no,white,no,no,768,109,3.6.1,legacy,legacy,9 5 3 2 8 6,osweb,1.4.0,1,0,n,37,,0,left,space,,space,up,right,left,585,27336,,21763,21414,15536,585,2,legacy,680,1280,24,720,24,0,0,1280,1632986290185,6,1024,2,48000,-16,experiment,1,odd,Win32,7,626679,392373,,617118,83,624459,623382,83,21857,117583,628695,625463,629294,83,628695,Sternberg_updated,82,66629,90,yes,1024
91,91,739,739,black,no,experiment,Mozilla,Netscape,"5.0 (Windows NT 10.0; Win64; x64) AppleWebKit/537.36 (KHTML, like Gecko) Chrome/94.0.4606.61 Safari/537.36",legacy,legacy,legacy,0,uniform,1,1,left,90,90,90,90,0,0,0,90,90,0,0,0,90,90,90,0,0,90,90,0,30-08-21,30-08-21,09:18:08,Thu Sep 30 2021 09:18:08 GMT+0200 (Centraleuropæisk sommertid),The main experiment item,yes,0,0,/Users/ethan/Documents/GitHub/OpenSesame/Sternberg/experiment_files,0,0,0,no,mono,no,18,no,white,no,no,768,109,3.6.1,legacy,legacy,2 5 1 4,osweb,1.4.0,1,0,n,37,,0,left,space,,space,up,right,left,642,27336,,21763,21414,15536,642,2,legacy,680,1280,24,720,24,0,0,1280,1632986290185,4,1024,2,48000,-16,experiment,1,odd,Win32,6,632577,392373,,629296,83,630346,623382,83,21857,117583,634593,631361,635242,83,634593,Sternberg_updated,83,67271,91,yes,1024
91,91,740,740,black,no,experiment,Mozilla,Netscape,"5.0 (Windows NT 10.0; Win64; x64) AppleWebKit/537.36 (KHTML, like Gecko) Chrome/94.0.4606.61 Safari/537.36",legacy,legacy,legacy,0,uniform,1,1,right,91,91,91,91,0,0,0,91,91,0,0,0,91,91,91,0,0,91,91,0,30-08-21,30-08-21,09:18:08,Thu Sep 30 2021 09:18:08 GMT+0200 (Centraleuropæisk sommertid),The main experiment item,yes,0,0,/Users/ethan/Documents/GitHub/OpenSesame/Sternberg/experiment_files,0,0,0,no,mono,no,18,no,white,no,no,768,109,3.6.1,legacy,legacy,2 3,osweb,1.4.0,1,1,y,37,,0,right,space,,space,up,right,right,850,27336,,21763,21414,15536,850,2,legacy,680,1280,24,720,24,0,0,1280,1632986290185,2,1024,2,48000,-16,experiment,1,odd,Win32,2,638541,392373,,635243,83,636309,623382,83,21857,117583,640557,637325,641423,83,640557,Sternberg_updated,84,68121,92,yes,1024
91,91,740,740,black,no,experiment,Mozilla,Netscape,"5.0 (Windows NT 10.0; Win64; x64) AppleWebKit/537.36 (KHTML, like Gecko) Chrome/94.0.4606.61 Safari/537.36",legacy,legacy,legacy,0,uniform,1,1,right,92,92,92,92,0,0,0,92,92,0,0,0,92,92,92,0,0,92,92,0,30-08-21,30-08-21,09:18:08,Thu Sep 30 2021 09:18:08 GMT+0200 (Centraleuropæisk sommertid),The main experiment item,yes,0,0,/Users/ethan/Documents/GitHub/OpenSesame/Sternberg/experiment_files,0,0,0,no,mono,no,18,no,white,no,no,768,109,3.6.1,legacy,legacy,5 7 8 2 3 8,osweb,1.4.0,1,5,y,37,,0,right,space,,space,up,right,right,703,27336,,21763,21414,15536,703,2,legacy,680,1280,24,720,24,0,0,1280,1632986290185,6,1024,2,48000,-16,experiment,1,odd,Win32,3,644706,392373,,641424,83,642475,623382,83,21857,117583,646721,643489,647437,83,646721,Sternberg_updated,85,68824,93,yes,1024
91,91,740,740,black,no,experiment,Mozilla,Netscape,"5.0 (Windows NT 10.0; Win64; x64) AppleWebKit/537.36 (KHTML, like Gecko) Chrome/94.0.4606.61 Safari/537.36",legacy,legacy,legacy,0,uniform,1,1,left,93,93,93,93,0,0,0,93,93,0,0,0,93,93,93,0,0,93,93,0,30-08-21,30-08-21,09:18:08,Thu Sep 30 2021 09:18:08 GMT+0200 (Centraleuropæisk sommertid),The main experiment item,yes,0,0,/Users/ethan/Documents/GitHub/OpenSesame/Sternberg/experiment_files,0,0,0,no,mono,no,18,no,white,no,no,768,109,3.6.1,legacy,legacy,4 2 6 9,osweb,1.4.0,1,0,n,37,,0,left,space,,space,up,right,left,712,27336,,21763,21414,15536,712,2,legacy,680,1280,24,720,24,0,0,1280,1632986290185,4,1024,2,48000,-16,experiment,1,odd,Win32,7,650719,392373,,647439,83,648491,623382,83,21857,117583,652735,649503,653451,83,652735,Sternberg_updated,86,69536,94,yes,1024
92,92,739,739,black,no,experiment,Mozilla,Netscape,"5.0 (Windows NT 10.0; Win64; x64) AppleWebKit/537.36 (KHTML, like Gecko) Chrome/94.0.4606.61 Safari/537.36",legacy,legacy,legacy,0,uniform,1,1,left,94,94,94,94,0,0,0,94,94,0,0,0,94,94,94,0,0,94,94,0,30-08-21,30-08-21,09:18:08,Thu Sep 30 2021 09:18:08 GMT+0200 (Centraleuropæisk sommertid),The main experiment item,yes,0,0,/Users/ethan/Documents/GitHub/OpenSesame/Sternberg/experiment_files,0,0,0,no,mono,no,18,no,white,no,no,768,109,3.6.1,legacy,legacy,3 9 1,osweb,1.4.0,1,0,n,37,,0,left,space,,space,up,right,left,657,27336,,21763,21414,15536,657,2,legacy,680,1280,24,720,24,0,0,1280,1632986290185,3,1024,2,48000,-16,experiment,1,odd,Win32,7,656733,392373,,653453,83,654502,623382,83,21857,117583,658749,655518,659415,83,658749,Sternberg_updated,87,70193,95,yes,1024
92,92,738,738,black,no,experiment,Mozilla,Netscape,"5.0 (Windows NT 10.0; Win64; x64) AppleWebKit/537.36 (KHTML, like Gecko) Chrome/94.0.4606.61 Safari/537.36",legacy,legacy,legacy,0,uniform,1,1,left,95,95,95,95,0,0,0,95,95,0,0,0,95,95,95,0,0,95,95,0,30-08-21,30-08-21,09:18:08,Thu Sep 30 2021 09:18:08 GMT+0200 (Centraleuropæisk sommertid),The main experiment item,yes,0,0,/Users/ethan/Documents/GitHub/OpenSesame/Sternberg/experiment_files,0,0,0,no,mono,no,18,no,white,no,no,768,109,3.6.1,legacy,legacy,7 8 6 1,osweb,1.4.0,1,0,n,37,,0,left,space,,space,up,right,left,684,27336,,21763,21414,15536,684,2,legacy,680,1280,24,720,24,0,0,1280,1632986290185,4,1024,2,48000,-16,experiment,1,odd,Win32,3,662697,392373,,659417,83,660465,623382,83,21857,117583,664714,661482,665413,83,664714,Sternberg_updated,88,70877,96,yes,1024
92,92,736,736,black,no,experiment,Mozilla,Netscape,"5.0 (Windows NT 10.0; Win64; x64) AppleWebKit/537.36 (KHTML, like Gecko) Chrome/94.0.4606.61 Safari/537.36",legacy,legacy,legacy,0,uniform,1,1,right,96,96,96,96,0,0,0,96,96,0,0,0,96,96,96,0,0,96,96,0,30-08-21,30-08-21,09:18:08,Thu Sep 30 2021 09:18:08 GMT+0200 (Centraleuropæisk sommertid),The main experiment item,yes,0,0,/Users/ethan/Documents/GitHub/OpenSesame/Sternberg/experiment_files,0,0,0,no,mono,no,18,no,white,no,no,768,109,3.6.1,legacy,legacy,3 4 9 6 2 9,osweb,1.4.0,1,5,y,37,,0,right,space,,space,up,right,right,520,27336,,21763,21414,15536,520,2,legacy,680,1280,24,720,24,0,0,1280,1632986290185,6,1024,2,48000,-16,experiment,1,odd,Win32,2,668696,392373,,665415,83,666469,623382,83,21857,117583,670712,667480,671244,83,670712,Sternberg_updated,89,71397,97,yes,1024
92,92,739,739,black,no,experiment,Mozilla,Netscape,"5.0 (Windows NT 10.0; Win64; x64) AppleWebKit/537.36 (KHTML, like Gecko) Chrome/94.0.4606.61 Safari/537.36",legacy,legacy,legacy,0,uniform,1,1,right,97,97,97,97,0,0,0,97,97,0,0,0,97,97,97,0,0,97,97,0,30-08-21,30-08-21,09:18:08,Thu Sep 30 2021 09:18:08 GMT+0200 (Centraleuropæisk sommertid),The main experiment item,yes,0,0,/Users/ethan/Documents/GitHub/OpenSesame/Sternberg/experiment_files,0,0,0,no,mono,no,18,no,white,no,no,768,109,3.6.1,legacy,legacy,7,osweb,1.4.0,1,1,y,37,,0,right,space,left,space,up,right,right,986,27336,46494,21763,21414,15536,986,2,legacy,680,1280,24,720,24,0,0,1280,1632986290185,1,1024,2,48000,-16,experiment,1,odd,Win32,7,721008,392373,672261,671246,83,718782,623382,83,21857,117583,723024,719791,724023,83,723024,Sternberg_updated,90,72383,98,yes,1024
92,92,738,738,black,no,experiment,Mozilla,Netscape,"5.0 (Windows NT 10.0; Win64; x64) AppleWebKit/537.36 (KHTML, like Gecko) Chrome/94.0.4606.61 Safari/537.36",legacy,legacy,legacy,0,uniform,1,1,left,98,98,98,98,0,0,0,98,98,0,0,0,98,98,98,0,0,98,98,0,30-08-21,30-08-21,09:18:08,Thu Sep 30 2021 09:18:08 GMT+0200 (Centraleuropæisk sommertid),The main experiment item,yes,0,0,/Users/ethan/Documents/GitHub/OpenSesame/Sternberg/experiment_files,0,0,0,no,mono,no,18,no,white,no,no,768,109,3.6.1,legacy,legacy,2 6 4 3 9,osweb,1.4.0,1,0,n,37,,0,left,space,left,space,up,right,left,703,27336,46494,21763,21414,15536,703,2,legacy,680,1280,24,720,24,0,0,1280,1632986290185,5,1024,2,48000,-16,experiment,1,odd,Win32,1,727305,392373,672261,724024,83,725074,623382,83,21857,117583,729322,726090,730037,83,729322,Sternberg_updated,91,73086,99,yes,1024
92,92,737,737,black,no,experiment,Mozilla,Netscape,"5.0 (Windows NT 10.0; Win64; x64) AppleWebKit/537.36 (KHTML, like Gecko) Chrome/94.0.4606.61 Safari/537.36",legacy,legacy,legacy,0,uniform,1,1,left,99,99,99,99,0,0,0,99,99,0,0,0,99,99,99,0,0,99,99,0,30-08-21,30-08-21,09:18:08,Thu Sep 30 2021 09:18:08 GMT+0200 (Centraleuropæisk sommertid),The main experiment item,yes,0,0,/Users/ethan/Documents/GitHub/OpenSesame/Sternberg/experiment_files,0,0,0,no,mono,no,18,no,white,no,no,768,109,3.6.1,legacy,legacy,6 2 9 3 8 4,osweb,1.4.0,1,0,n,37,,0,left,space,left,space,up,right,left,627,27336,46494,21763,21414,15536,627,2,legacy,680,1280,24,720,24,0,0,1280,1632986290185,6,1024,2,48000,-16,experiment,1,odd,Win32,1,733303,392373,672261,730039,83,731085,623382,83,21857,117583,735319,732087,735952,83,735319,Sternberg_updated,92,73713,100,yes,1024
92,92,736,736,black,no,experiment,Mozilla,Netscape,"5.0 (Windows NT 10.0; Win64; x64) AppleWebKit/537.36 (KHTML, like Gecko) Chrome/94.0.4606.61 Safari/537.36",legacy,legacy,legacy,0,uniform,1,1,left,100,100,100,100,0,0,0,100,100,0,0,0,100,100,100,0,0,100,100,0,30-08-21,30-08-21,09:18:08,Thu Sep 30 2021 09:18:08 GMT+0200 (Centraleuropæisk sommertid),The main experiment item,yes,0,0,/Users/ethan/Documents/GitHub/OpenSesame/Sternberg/experiment_files,0,0,0,no,mono,no,18,no,white,no,no,768,109,3.6.1,legacy,legacy,8 9,osweb,1.4.0,1,0,n,37,,0,left,space,left,space,up,right,left,668,27336,46494,21763,21414,15536,668,2,legacy,680,1280,24,720,24,0,0,1280,1632986290185,2,1024,2,48000,-16,experiment,1,odd,Win32,5,739234,392373,672261,735953,83,737004,623382,83,21857,117583,741250,738018,741933,83,741250,Sternberg_updated,93,74381,101,yes,1024
92,92,736,736,black,no,experiment,Mozilla,Netscape,"5.0 (Windows NT 10.0; Win64; x64) AppleWebKit/537.36 (KHTML, like Gecko) Chrome/94.0.4606.61 Safari/537.36",legacy,legacy,legacy,0,uniform,1,1,right,101,101,101,101,0,0,0,101,101,0,0,0,101,101,101,0,0,101,101,0,30-08-21,30-08-21,09:18:08,Thu Sep 30 2021 09:18:08 GMT+0200 (Centraleuropæisk sommertid),The main experiment item,yes,0,0,/Users/ethan/Documents/GitHub/OpenSesame/Sternberg/experiment_files,0,0,0,no,mono,no,18,no,white,no,no,768,109,3.6.1,legacy,legacy,4,osweb,1.4.0,1,1,y,37,,0,right,space,left,space,up,right,right,716,27336,46494,21763,21414,15536,716,2,legacy,680,1280,24,720,24,0,0,1280,1632986290185,1,1024,2,48000,-16,experiment,1,odd,Win32,4,745215,392373,672261,741934,83,742991,623382,83,21857,117583,747231,743999,747964,83,747231,Sternberg_updated,94,75097,102,yes,1024
92,92,736,736,black,no,experiment,Mozilla,Netscape,"5.0 (Windows NT 10.0; Win64; x64) AppleWebKit/537.36 (KHTML, like Gecko) Chrome/94.0.4606.61 Safari/537.36",legacy,legacy,legacy,0,uniform,1,1,right,102,102,102,102,0,0,0,102,102,0,0,0,102,102,102,0,0,102,102,0,30-08-21,30-08-21,09:18:08,Thu Sep 30 2021 09:18:08 GMT+0200 (Centraleuropæisk sommertid),The main experiment item,yes,0,0,/Users/ethan/Documents/GitHub/OpenSesame/Sternberg/experiment_files,0,0,0,no,mono,no,18,no,white,no,no,768,109,3.6.1,legacy,legacy,2 5 4 8 7,osweb,1.4.0,1,3,y,37,,0,right,space,left,space,up,right,right,666,27336,46494,21763,21414,15536,666,2,legacy,680,1280,24,720,24,0,0,1280,1632986290185,5,1024,2,48000,-16,experiment,1,odd,Win32,4,751246,392373,672261,747965,83,749016,623382,83,21857,117583,753262,750030,753928,83,753262,Sternberg_updated,95,75763,103,yes,1024
92,92,735,735,black,no,experiment,Mozilla,Netscape,"5.0 (Windows NT 10.0; Win64; x64) AppleWebKit/537.36 (KHTML, like Gecko) Chrome/94.0.4606.61 Safari/537.36",legacy,legacy,legacy,0,uniform,1,1,right,103,103,103,103,0,0,0,103,103,0,0,0,103,103,103,0,0,103,103,0,30-08-21,30-08-21,09:18:08,Thu Sep 30 2021 09:18:08 GMT+0200 (Centraleuropæisk sommertid),The main experiment item,yes,0,0,/Users/ethan/Documents/GitHub/OpenSesame/Sternberg/experiment_files,0,0,0,no,mono,no,18,no,white,no,no,768,109,3.6.1,legacy,legacy,3 9 6 2,osweb,1.4.0,1,4,y,37,,0,right,space,left,space,up,right,right,667,27336,46494,21763,21414,15536,667,2,legacy,680,1280,24,720,24,0,0,1280,1632986290185,4,1024,2,48000,-16,experiment,1,odd,Win32,2,757210,392373,672261,753931,83,754981,623382,83,21857,117583,759227,755994,759909,83,759227,Sternberg_updated,96,76430,104,yes,1024
92,92,737,737,black,no,experiment,Mozilla,Netscape,"5.0 (Windows NT 10.0; Win64; x64) AppleWebKit/537.36 (KHTML, like Gecko) Chrome/94.0.4606.61 Safari/537.36",legacy,legacy,legacy,0,uniform,1,1,right,104,104,104,104,0,0,0,104,104,0,0,0,104,104,104,0,0,104,104,0,30-08-21,30-08-21,09:18:08,Thu Sep 30 2021 09:18:08 GMT+0200 (Centraleuropæisk sommertid),The main experiment item,yes,0,0,/Users/ethan/Documents/GitHub/OpenSesame/Sternberg/experiment_files,0,0,0,no,mono,no,18,no,white,no,no,768,109,3.6.1,legacy,legacy,4 3 2 5 8,osweb,1.4.0,1,2,y,37,,0,right,space,left,space,up,right,right,986,27336,46494,21763,21414,15536,986,2,legacy,680,1280,24,720,24,0,0,1280,1632986290185,5,1024,2,48000,-16,experiment,1,odd,Win32,3,763191,392373,672261,759910,83,760961,623382,83,21857,117583,765207,761975,766206,83,765207,Sternberg_updated,97,77416,105,yes,1024
92,92,736,736,black,no,experiment,Mozilla,Netscape,"5.0 (Windows NT 10.0; Win64; x64) AppleWebKit/537.36 (KHTML, like Gecko) Chrome/94.0.4606.61 Safari/537.36",legacy,legacy,legacy,0,uniform,1,1,right,105,105,105,105,0,0,0,105,105,0,0,0,105,105,105,0,0,105,105,0,30-08-21,30-08-21,09:18:08,Thu Sep 30 2021 09:18:08 GMT+0200 (Centraleuropæisk sommertid),The main experiment item,yes,0,0,/Users/ethan/Documents/GitHub/OpenSesame/Sternberg/experiment_files,0,0,0,no,mono,no,18,no,white,no,no,768,109,3.6.1,legacy,legacy,3 5 9 6 2 4,osweb,1.4.0,1,1,y,37,,0,right,space,left,space,up,right,right,587,27336,46494,21763,21414,15536,587,2,legacy,680,1280,24,720,24,0,0,1280,1632986290185,6,1024,2,48000,-16,experiment,1,odd,Win32,3,769489,392373,672261,766208,83,767264,623382,83,21857,117583,771505,768273,772104,83,771505,Sternberg_updated,98,78003,106,yes,1024
93,93,736,736,black,no,experiment,Mozilla,Netscape,"5.0 (Windows NT 10.0; Win64; x64) AppleWebKit/537.36 (KHTML, like Gecko) Chrome/94.0.4606.61 Safari/537.36",legacy,legacy,legacy,0,uniform,1,1,right,106,106,106,106,0,0,0,106,106,0,0,0,106,106,106,0,0,106,106,0,30-08-21,30-08-21,09:18:08,Thu Sep 30 2021 09:18:08 GMT+0200 (Centraleuropæisk sommertid),The main experiment item,yes,0,0,/Users/ethan/Documents/GitHub/OpenSesame/Sternberg/experiment_files,0,0,0,no,mono,no,18,no,white,no,no,768,109,3.6.1,legacy,legacy,3 4,osweb,1.4.0,1,1,y,37,,0,right,space,left,space,up,right,right,750,27336,46494,21763,21414,15536,750,2,legacy,680,1280,24,720,24,0,0,1280,1632986290185,2,1024,2,48000,-16,experiment,1,odd,Win32,3,775386,392373,672261,772105,83,773155,623382,83,21857,117583,777402,774171,778168,83,777402,Sternberg_updated,99,78753,107,yes,1024
93,93,735,735,black,no,experiment,Mozilla,Netscape,"5.0 (Windows NT 10.0; Win64; x64) AppleWebKit/537.36 (KHTML, like Gecko) Chrome/94.0.4606.61 Safari/537.36",legacy,legacy,legacy,0,uniform,1,1,left,107,107,107,107,0,0,0,107,107,0,0,0,107,107,107,0,0,107,107,0,30-08-21,30-08-21,09:18:08,Thu Sep 30 2021 09:18:08 GMT+0200 (Centraleuropæisk sommertid),The main experiment item,yes,0,0,/Users/ethan/Documents/GitHub/OpenSesame/Sternberg/experiment_files,0,0,0,no,mono,no,18,no,white,no,no,768,109,3.6.1,legacy,legacy,2 8 6 3 1,osweb,1.4.0,1,0,n,37,,0,left,space,left,space,up,right,left,635,27336,46494,21763,21414,15536,635,2,legacy,680,1280,24,720,24,0,0,1280,1632986290185,5,1024,2,48000,-16,experiment,1,odd,Win32,7,781450,392373,672261,778170,83,779230,623382,83,21857,117583,783466,780234,784115,83,783466,Sternberg_updated,100,79388,108,yes,1024
93,93,735,735,black,no,experiment,Mozilla,Netscape,"5.0 (Windows NT 10.0; Win64; x64) AppleWebKit/537.36 (KHTML, like Gecko) Chrome/94.0.4606.61 Safari/537.36",legacy,legacy,legacy,0,uniform,1,1,right,108,108,108,108,0,0,0,108,108,0,0,0,108,108,108,0,0,108,108,0,30-08-21,30-08-21,09:18:08,Thu Sep 30 2021 09:18:08 GMT+0200 (Centraleuropæisk sommertid),The main experiment item,yes,0,0,/Users/ethan/Documents/GitHub/OpenSesame/Sternberg/experiment_files,0,0,0,no,mono,no,18,no,white,no,no,768,109,3.6.1,legacy,legacy,6 5,osweb,1.4.0,1,2,y,37,,0,right,space,left,space,up,right,right,752,27336,46494,21763,21414,15536,752,2,legacy,680,1280,24,720,24,0,0,1280,1632986290185,2,1024,2,48000,-16,experiment,1,odd,Win32,5,787398,392373,672261,784117,83,785170,623382,83,21857,117583,789414,786182,790180,83,789414,Sternberg_updated,101,80140,109,yes,1024
93,93,735,735,black,no,experiment,Mozilla,Netscape,"5.0 (Windows NT 10.0; Win64; x64) AppleWebKit/537.36 (KHTML, like Gecko) Chrome/94.0.4606.61 Safari/537.36",legacy,legacy,legacy,0,uniform,1,1,right,109,109,109,109,0,0,0,109,109,0,0,0,109,109,109,0,0,109,109,0,30-08-21,30-08-21,09:18:08,Thu Sep 30 2021 09:18:08 GMT+0200 (Centraleuropæisk sommertid),The main experiment item,yes,0,0,/Users/ethan/Documents/GitHub/OpenSesame/Sternberg/experiment_files,0,0,0,no,mono,no,18,no,white,no,no,768,109,3.6.1,legacy,legacy,2 6 1 7 4,osweb,1.4.0,1,2,y,37,,0,right,space,left,space,up,right,right,658,27336,46494,21763,21414,15536,658,2,legacy,680,1280,24,720,24,0,0,1280,1632986290185,5,1024,2,48000,-16,experiment,1,odd,Win32,6,793462,392373,672261,790182,83,791231,623382,83,21857,117583,795479,792247,796144,83,795479,Sternberg_updated,102,80798,110,yes,1024
93,93,735,735,black,no,experiment,Mozilla,Netscape,"5.0 (Windows NT 10.0; Win64; x64) AppleWebKit/537.36 (KHTML, like Gecko) Chrome/94.0.4606.61 Safari/537.36",legacy,legacy,legacy,0,uniform,1,1,right,110,110,110,110,0,0,0,110,110,0,0,0,110,110,110,0,0,110,110,0,30-08-21,30-08-21,09:18:08,Thu Sep 30 2021 09:18:08 GMT+0200 (Centraleuropæisk sommertid),The main experiment item,yes,0,0,/Users/ethan/Documents/GitHub/OpenSesame/Sternberg/experiment_files,0,0,0,no,mono,no,18,no,white,no,no,768,109,3.6.1,legacy,legacy,9 5 8 1,osweb,1.4.0,1,2,y,37,,0,right,space,left,space,up,right,right,836,27336,46494,21763,21414,15536,836,2,legacy,680,1280,24,720,24,0,0,1280,1632986290185,4,1024,2,48000,-16,experiment,1,odd,Win32,5,799427,392373,672261,796146,83,797196,623382,83,21857,117583,801443,798211,802292,83,801443,Sternberg_updated,103,81634,111,yes,1024
93,93,735,735,black,no,experiment,Mozilla,Netscape,"5.0 (Windows NT 10.0; Win64; x64) AppleWebKit/537.36 (KHTML, like Gecko) Chrome/94.0.4606.61 Safari/537.36",legacy,legacy,legacy,0,uniform,1,1,left,111,111,111,111,0,0,0,111,111,0,0,0,111,111,111,0,0,111,111,0,30-08-21,30-08-21,09:18:08,Thu Sep 30 2021 09:18:08 GMT+0200 (Centraleuropæisk sommertid),The main experiment item,yes,0,0,/Users/ethan/Documents/GitHub/OpenSesame/Sternberg/experiment_files,0,0,0,no,mono,no,18,no,white,no,no,768,109,3.6.1,legacy,legacy,6 9 4 5 3 2,osweb,1.4.0,1,0,n,37,,0,left,space,left,space,up,right,left,645,27336,46494,21763,21414,15536,645,2,legacy,680,1280,24,720,24,0,0,1280,1632986290185,6,1024,2,48000,-16,experiment,1,odd,Win32,8,805574,392373,672261,802294,83,803343,623382,83,21857,117583,807591,804359,808239,83,807591,Sternberg_updated,104,82279,112,yes,1024
93,93,738,738,black,no,experiment,Mozilla,Netscape,"5.0 (Windows NT 10.0; Win64; x64) AppleWebKit/537.36 (KHTML, like Gecko) Chrome/94.0.4606.61 Safari/537.36",legacy,legacy,legacy,0,uniform,1,1,left,112,112,112,112,0,0,0,112,112,0,0,0,112,112,112,0,0,112,112,0,30-08-21,30-08-21,09:18:08,Thu Sep 30 2021 09:18:08 GMT+0200 (Centraleuropæisk sommertid),The main experiment item,yes,0,0,/Users/ethan/Documents/GitHub/OpenSesame/Sternberg/experiment_files,0,0,0,no,mono,no,18,no,white,no,no,768,109,3.6.1,legacy,legacy,6 9 7 3 8 2,osweb,1.4.0,1,0,n,37,,0,left,space,left,space,up,right,left,1102,27336,46494,21763,21414,15536,1102,2,legacy,680,1280,24,720,24,0,0,1280,1632986290185,6,1024,2,48000,-16,experiment,1,odd,Win32,5,811522,392373,672261,808241,83,809291,623382,83,21857,117583,813538,810306,814654,83,813538,Sternberg_updated,105,83381,113,yes,1024
93,93,738,738,black,no,experiment,Mozilla,Netscape,"5.0 (Windows NT 10.0; Win64; x64) AppleWebKit/537.36 (KHTML, like Gecko) Chrome/94.0.4606.61 Safari/537.36",legacy,legacy,legacy,0,uniform,1,1,left,113,113,113,113,0,0,0,113,113,0,0,0,113,113,113,0,0,113,113,0,30-08-21,30-08-21,09:18:08,Thu Sep 30 2021 09:18:08 GMT+0200 (Centraleuropæisk sommertid),The main experiment item,yes,0,0,/Users/ethan/Documents/GitHub/OpenSesame/Sternberg/experiment_files,0,0,0,no,mono,no,18,no,white,no,no,768,109,3.6.1,legacy,legacy,7 1 5 6 3,osweb,1.4.0,1,0,n,37,,0,left,space,left,space,up,right,left,746,27336,46494,21763,21414,15536,746,2,legacy,680,1280,24,720,24,0,0,1280,1632986290185,5,1024,2,48000,-16,experiment,1,odd,Win32,8,817919,392373,672261,814655,83,815701,623382,83,21857,117583,819936,816704,820685,83,819936,Sternberg_updated,106,84127,114,yes,1024
93,93,736,736,black,no,experiment,Mozilla,Netscape,"5.0 (Windows NT 10.0; Win64; x64) AppleWebKit/537.36 (KHTML, like Gecko) Chrome/94.0.4606.61 Safari/537.36",legacy,legacy,legacy,0,uniform,1,1,left,114,114,114,114,0,0,0,114,114,0,0,0,114,114,114,0,0,114,114,0,30-08-21,30-08-21,09:18:08,Thu Sep 30 2021 09:18:08 GMT+0200 (Centraleuropæisk sommertid),The main experiment item,yes,0,0,/Users/ethan/Documents/GitHub/OpenSesame/Sternberg/experiment_files,0,0,0,no,mono,no,18,no,white,no,no,768,109,3.6.1,legacy,legacy,7 6 4 8 1 2,osweb,1.4.0,1,0,n,37,,0,left,space,left,space,up,right,left,550,27336,46494,21763,21414,15536,550,2,legacy,680,1280,24,720,24,0,0,1280,1632986290185,6,1024,2,48000,-16,experiment,1,odd,Win32,9,823967,392373,672261,820687,83,821737,623382,83,21857,117583,825983,822751,826549,83,825983,Sternberg_updated,107,84677,115,yes,1024
93,93,736,736,black,no,experiment,Mozilla,Netscape,"5.0 (Windows NT 10.0; Win64; x64) AppleWebKit/537.36 (KHTML, like Gecko) Chrome/94.0.4606.61 Safari/537.36",legacy,legacy,legacy,0,uniform,1,1,right,115,115,115,115,0,0,0,115,115,0,0,0,115,115,115,0,0,115,115,0,30-08-21,30-08-21,09:18:08,Thu Sep 30 2021 09:18:08 GMT+0200 (Centraleuropæisk sommertid),The main experiment item,yes,0,0,/Users/ethan/Documents/GitHub/OpenSesame/Sternberg/experiment_files,0,0,0,no,mono,no,18,no,white,no,no,768,109,3.6.1,legacy,legacy,8,osweb,1.4.0,1,1,y,37,,0,right,space,left,space,up,right,right,672,27336,46494,21763,21414,15536,672,2,legacy,680,1280,24,720,24,0,0,1280,1632986290185,1,1024,2,48000,-16,experiment,1,odd,Win32,8,829831,392373,672261,826550,83,827601,623382,83,21857,117583,831848,828615,832530,83,831848,Sternberg_updated,108,85349,116,yes,1024
93,93,735,735,black,no,experiment,Mozilla,Netscape,"5.0 (Windows NT 10.0; Win64; x64) AppleWebKit/537.36 (KHTML, like Gecko) Chrome/94.0.4606.61 Safari/537.36",legacy,legacy,legacy,0,uniform,1,1,left,116,116,116,116,0,0,0,116,116,0,0,0,116,116,116,0,0,116,116,0,30-08-21,30-08-21,09:18:08,Thu Sep 30 2021 09:18:08 GMT+0200 (Centraleuropæisk sommertid),The main experiment item,yes,0,0,/Users/ethan/Documents/GitHub/OpenSesame/Sternberg/experiment_files,0,0,0,no,mono,no,18,no,white,no,no,768,109,3.6.1,legacy,legacy,7 4 2 8 1 9,osweb,1.4.0,1,0,n,37,,0,left,space,left,space,up,right,left,696,27336,46494,21763,21414,15536,696,2,legacy,680,1280,24,720,24,0,0,1280,1632986290185,6,1024,2,48000,-16,experiment,1,odd,Win32,5,835823,392373,672261,832532,83,833589,623382,83,21857,117583,837828,834596,838527,83,837828,Sternberg_updated,109,86045,117,yes,1024
93,93,735,735,black,no,experiment,Mozilla,Netscape,"5.0 (Windows NT 10.0; Win64; x64) AppleWebKit/537.36 (KHTML, like Gecko) Chrome/94.0.4606.61 Safari/537.36",legacy,legacy,legacy,0,uniform,1,1,right,117,117,117,117,0,0,0,117,117,0,0,0,117,117,117,0,0,117,117,0,30-08-21,30-08-21,09:18:08,Thu Sep 30 2021 09:18:08 GMT+0200 (Centraleuropæisk sommertid),The main experiment item,yes,0,0,/Users/ethan/Documents/GitHub/OpenSesame/Sternberg/experiment_files,0,0,0,no,mono,no,18,no,white,no,no,768,109,3.6.1,legacy,legacy,8 1 6,osweb,1.4.0,1,3,y,37,,0,right,space,left,space,up,right,right,712,27336,46494,21763,21414,15536,712,2,legacy,680,1280,24,720,24,0,0,1280,1632986290185,3,1024,2,48000,-16,experiment,1,odd,Win32,6,841810,392373,672261,838529,83,839585,623382,83,21857,117583,843825,840593,844541,83,843825,Sternberg_updated,110,86757,118,yes,1024
93,93,735,735,black,no,experiment,Mozilla,Netscape,"5.0 (Windows NT 10.0; Win64; x64) AppleWebKit/537.36 (KHTML, like Gecko) Chrome/94.0.4606.61 Safari/537.36",legacy,legacy,legacy,0,uniform,1,1,left,118,118,118,118,0,0,0,118,118,0,0,0,118,118,118,0,0,118,118,0,30-08-21,30-08-21,09:18:08,Thu Sep 30 2021 09:18:08 GMT+0200 (Centraleuropæisk sommertid),The main experiment item,yes,0,0,/Users/ethan/Documents/GitHub/OpenSesame/Sternberg/experiment_files,0,0,0,no,mono,no,18,no,white,no,no,768,109,3.6.1,legacy,legacy,5 2,osweb,1.4.0,1,0,n,37,,0,left,space,left,space,up,right,left,758,27336,46494,21763,21414,15536,758,2,legacy,680,1280,24,720,24,0,0,1280,1632986290185,2,1024,2,48000,-16,experiment,1,odd,Win32,7,847824,392373,672261,844543,83,845593,623382,83,21857,117583,849840,846608,850606,83,849840,Sternberg_updated,111,87515,119,yes,1024
