acc,accuracy,average_response_time,avg_rt,background,bidi,block,browser_codename,browser_name,browser_version,canvas_backend,clock_backend,color_backend,compensation,coordinates,correct,correct_keyboard_response,correct_response,count_ISI,count_break1,count_break_2,count_correct_feedback,count_credits,count_experiment,count_experimentLoop,count_fixation,count_incorrect_feedback,count_instructions1a,count_instructions1b,count_instructions2,count_keyboard_response,count_memory_set,count_new_logger,count_osweb,count_practiceLoop,count_practiceSequence,count_probe,count_thankYou,date_startdate,date_startdateUTC,date_starttime,datetime,description,disable_garbage_collection,experiment_debug,experiment_parameters,experiment_path,experiment_pilot,experiment_taskname,experiment_taskversion,font_bold,font_family,font_italic,font_size,font_underline,foreground,form_clicks,fullscreen,height,jatosStudyResultId,jatosVersion,keyboard_backend,mouse_backend,numberSet,opensesame_codename,opensesame_version,penwidth,posInSet,present,queryParams_batchId,queryParams_generalMultiple,repeat_cycle,response,response_break1,response_break_2,response_instructions1a,response_instructions1b,response_instructions2,response_keyboard_response,response_time,response_time_break1,response_time_break_2,response_time_instructions1a,response_time_instructions1b,response_time_instructions2,response_time_keyboard_response,round_decimals,sampler_backend,screen_availableHeight,screen_availableWidth,screen_colorDepth,screen_height,screen_pixelDepth,screen_screenX,screen_screenY,screen_width,sessionid,setSize,sound_buf_size,sound_channels,sound_freq,sound_sample_size,start,subject_nr,subject_parity,system_os,target,time_ISI,time_break1,time_break_2,time_correct_feedback,time_experimentLoop,time_fixation,time_incorrect_feedback,time_instructions1a,time_instructions1b,time_instructions2,time_keyboard_response,time_memory_set,time_new_logger,time_practiceLoop,time_probe,title,total_correct,total_response_time,total_responses,uniform_coordinates,width
100,100,463,463,black,no,practice,Mozilla,Netscape,"5.0 (Windows NT 10.0; Win64; x64) AppleWebKit/537.36 (KHTML, like Gecko) Chrome/94.0.4606.61 Safari/537.36",legacy,legacy,legacy,0,uniform,1,1,right,0,0,0,0,0,0,0,0,0,0,0,0,0,0,0,0,0,0,0,0,30-08-21,30-08-21,09:19:50,Thu Sep 30 2021 09:19:50 GMT+0200 (Central European Summer Time),The main experiment item,yes,0,0,/Users/ethan/Documents/GitHub/OpenSesame/Sternberg/experiment_files,0,0,0,no,mono,no,18,no,white,no,no,768,111,3.6.1,legacy,legacy,4 3 1 7 9 8,osweb,1.4.0,1,1,y,37,,0,right,,,f11,right,,right,463,,,2162,28198,,463,2,legacy,680,1280,24,720,24,0,0,1280,1632986447697,6,1024,2,48000,-16,experiment,1,odd,Win32,4,32674,,,,58,30465,,58,2230,,34691,31473,35156,58,34690,Sternberg_updated,1,463,1,yes,1024
100,100,585,585,black,no,practice,Mozilla,Netscape,"5.0 (Windows NT 10.0; Win64; x64) AppleWebKit/537.36 (KHTML, like Gecko) Chrome/94.0.4606.61 Safari/537.36",legacy,legacy,legacy,0,uniform,1,1,left,1,1,1,1,0,0,0,1,1,0,0,0,1,1,1,0,0,1,1,0,30-08-21,30-08-21,09:19:50,Thu Sep 30 2021 09:19:50 GMT+0200 (Central European Summer Time),The main experiment item,yes,0,0,/Users/ethan/Documents/GitHub/OpenSesame/Sternberg/experiment_files,0,0,0,no,mono,no,18,no,white,no,no,768,111,3.6.1,legacy,legacy,2 1,osweb,1.4.0,1,0,n,37,,0,left,,,f11,right,,left,706,,,2162,28198,,706,2,legacy,680,1280,24,720,24,0,0,1280,1632986447697,2,1024,2,48000,-16,experiment,1,odd,Win32,5,38423,,,35158,58,36191,,58,2230,,40440,37207,41156,58,40440,Sternberg_updated,2,1169,2,yes,1024
100,100,641,641,black,no,practice,Mozilla,Netscape,"5.0 (Windows NT 10.0; Win64; x64) AppleWebKit/537.36 (KHTML, like Gecko) Chrome/94.0.4606.61 Safari/537.36",legacy,legacy,legacy,0,uniform,1,1,right,2,2,2,2,0,0,0,2,2,0,0,0,2,2,2,0,0,2,2,0,30-08-21,30-08-21,09:19:50,Thu Sep 30 2021 09:19:50 GMT+0200 (Central European Summer Time),The main experiment item,yes,0,0,/Users/ethan/Documents/GitHub/OpenSesame/Sternberg/experiment_files,0,0,0,no,mono,no,18,no,white,no,no,768,111,3.6.1,legacy,legacy,1 7 9 8 5,osweb,1.4.0,1,4,y,37,,0,right,,,f11,right,,right,754,,,2162,28198,,754,2,legacy,680,1280,24,720,24,0,0,1280,1632986447697,5,1024,2,48000,-16,experiment,1,odd,Win32,8,44406,,,41157,58,42188,,58,2230,,46423,43190,47190,58,46423,Sternberg_updated,3,1923,3,yes,1024
100,100,681,681,black,no,practice,Mozilla,Netscape,"5.0 (Windows NT 10.0; Win64; x64) AppleWebKit/537.36 (KHTML, like Gecko) Chrome/94.0.4606.61 Safari/537.36",legacy,legacy,legacy,0,uniform,1,1,right,3,3,3,3,0,0,0,3,3,0,0,0,3,3,3,0,0,3,3,0,30-08-21,30-08-21,09:19:50,Thu Sep 30 2021 09:19:50 GMT+0200 (Central European Summer Time),The main experiment item,yes,0,0,/Users/ethan/Documents/GitHub/OpenSesame/Sternberg/experiment_files,0,0,0,no,mono,no,18,no,white,no,no,768,111,3.6.1,legacy,legacy,1 5 2 9,osweb,1.4.0,1,2,y,37,,0,right,,,f11,right,,right,802,,,2162,28198,,802,2,legacy,680,1280,24,720,24,0,0,1280,1632986447697,4,1024,2,48000,-16,experiment,1,odd,Win32,5,50439,,,47191,58,48218,,58,2230,,52456,49223,53272,58,52456,Sternberg_updated,4,2725,4,yes,1024
80,80,688,688,black,no,practice,Mozilla,Netscape,"5.0 (Windows NT 10.0; Win64; x64) AppleWebKit/537.36 (KHTML, like Gecko) Chrome/94.0.4606.61 Safari/537.36",legacy,legacy,legacy,0,uniform,0,0,left,4,4,4,4,0,0,0,4,4,0,0,0,4,4,4,0,0,4,4,0,30-08-21,30-08-21,09:19:50,Thu Sep 30 2021 09:19:50 GMT+0200 (Central European Summer Time),The main experiment item,yes,0,0,/Users/ethan/Documents/GitHub/OpenSesame/Sternberg/experiment_files,0,0,0,no,mono,no,18,no,white,no,no,768,111,3.6.1,legacy,legacy,4 1 5,osweb,1.4.0,1,0,n,37,,0,right,,,f11,right,,right,717,,,2162,28198,,717,2,legacy,680,1280,24,720,24,0,0,1280,1632986447697,3,1024,2,48000,-16,experiment,1,odd,Win32,2,56523,,,53273,58,54302,,58,2230,,58540,55306,59272,58,58540,Sternberg_updated,4,3442,5,yes,1024
83,83,694,694,black,no,practice,Mozilla,Netscape,"5.0 (Windows NT 10.0; Win64; x64) AppleWebKit/537.36 (KHTML, like Gecko) Chrome/94.0.4606.61 Safari/537.36",legacy,legacy,legacy,0,uniform,1,1,left,5,5,5,5,0,0,0,5,5,0,0,0,5,5,5,0,0,5,5,0,30-08-21,30-08-21,09:19:50,Thu Sep 30 2021 09:19:50 GMT+0200 (Central European Summer Time),The main experiment item,yes,0,0,/Users/ethan/Documents/GitHub/OpenSesame/Sternberg/experiment_files,0,0,0,no,mono,no,18,no,white,no,no,768,111,3.6.1,legacy,legacy,5 7 8 4 1 2,osweb,1.4.0,1,0,n,37,,0,left,,,f11,right,,left,720,,,2162,28198,,720,2,legacy,680,1280,24,720,24,0,0,1280,1632986447697,6,1024,2,48000,-16,experiment,1,odd,Win32,6,62522,,,53273,58,60301,59273,58,2230,,64539,61306,65272,58,64539,Sternberg_updated,5,4162,6,yes,1024
86,86,718,718,black,no,practice,Mozilla,Netscape,"5.0 (Windows NT 10.0; Win64; x64) AppleWebKit/537.36 (KHTML, like Gecko) Chrome/94.0.4606.61 Safari/537.36",legacy,legacy,legacy,0,uniform,1,1,right,6,6,6,6,0,0,0,6,6,0,0,0,6,6,6,0,0,6,6,0,30-08-21,30-08-21,09:19:50,Thu Sep 30 2021 09:19:50 GMT+0200 (Central European Summer Time),The main experiment item,yes,0,0,/Users/ethan/Documents/GitHub/OpenSesame/Sternberg/experiment_files,0,0,0,no,mono,no,18,no,white,no,no,768,111,3.6.1,legacy,legacy,6,osweb,1.4.0,1,1,y,37,,0,right,,,f11,right,,right,865,,,2162,28198,,865,2,legacy,680,1280,24,720,24,0,0,1280,1632986447697,1,1024,2,48000,-16,experiment,1,odd,Win32,6,68522,,,65273,58,66301,59273,58,2230,,70539,67306,71405,58,70539,Sternberg_updated,6,5027,7,yes,1024
88,88,734,734,black,no,practice,Mozilla,Netscape,"5.0 (Windows NT 10.0; Win64; x64) AppleWebKit/537.36 (KHTML, like Gecko) Chrome/94.0.4606.61 Safari/537.36",legacy,legacy,legacy,0,uniform,1,1,left,7,7,7,7,0,0,0,7,7,0,0,0,7,7,7,0,0,7,7,0,30-08-21,30-08-21,09:19:50,Thu Sep 30 2021 09:19:50 GMT+0200 (Central European Summer Time),The main experiment item,yes,0,0,/Users/ethan/Documents/GitHub/OpenSesame/Sternberg/experiment_files,0,0,0,no,mono,no,18,no,white,no,no,768,111,3.6.1,legacy,legacy,9 6 7 4 5,osweb,1.4.0,1,0,n,37,,0,left,,,f11,right,,left,844,,,2162,28198,,844,2,legacy,680,1280,24,720,24,0,0,1280,1632986447697,5,1024,2,48000,-16,experiment,1,odd,Win32,3,74673,,,71406,58,72444,59273,58,2230,,76690,73456,77539,58,76690,Sternberg_updated,7,5871,8,yes,1024
89,89,740,740,black,no,practice,Mozilla,Netscape,"5.0 (Windows NT 10.0; Win64; x64) AppleWebKit/537.36 (KHTML, like Gecko) Chrome/94.0.4606.61 Safari/537.36",legacy,legacy,legacy,0,uniform,1,1,right,8,8,8,8,0,0,0,8,8,0,0,0,8,8,8,0,0,8,8,0,30-08-21,30-08-21,09:19:50,Thu Sep 30 2021 09:19:50 GMT+0200 (Central European Summer Time),The main experiment item,yes,0,0,/Users/ethan/Documents/GitHub/OpenSesame/Sternberg/experiment_files,0,0,0,no,mono,no,18,no,white,no,no,768,111,3.6.1,legacy,legacy,2 9 4,osweb,1.4.0,1,3,y,37,,0,right,,,f11,right,,right,792,,,2162,28198,,792,2,legacy,680,1280,24,720,24,0,0,1280,1632986447697,3,1024,2,48000,-16,experiment,1,odd,Win32,4,80789,,,77540,58,78570,59273,58,2230,,82807,79573,83605,58,82807,Sternberg_updated,8,6663,9,yes,1024
90,90,782,782,black,no,practice,Mozilla,Netscape,"5.0 (Windows NT 10.0; Win64; x64) AppleWebKit/537.36 (KHTML, like Gecko) Chrome/94.0.4606.61 Safari/537.36",legacy,legacy,legacy,0,uniform,1,1,left,9,9,9,9,0,0,0,9,9,0,0,0,9,9,9,0,0,9,9,0,30-08-21,30-08-21,09:19:50,Thu Sep 30 2021 09:19:50 GMT+0200 (Central European Summer Time),The main experiment item,yes,0,0,/Users/ethan/Documents/GitHub/OpenSesame/Sternberg/experiment_files,0,0,0,no,mono,no,18,no,white,no,no,768,111,3.6.1,legacy,legacy,3 1 9 4,osweb,1.4.0,1,0,n,37,,0,left,,,f11,right,,left,1159,,,2162,28198,,1159,2,legacy,680,1280,24,720,24,0,0,1280,1632986447697,4,1024,2,48000,-16,experiment,1,odd,Win32,6,86856,,,83606,58,84634,59273,58,2230,,88873,85639,90039,58,88873,Sternberg_updated,9,7822,10,yes,1024
91,91,814,814,black,no,practice,Mozilla,Netscape,"5.0 (Windows NT 10.0; Win64; x64) AppleWebKit/537.36 (KHTML, like Gecko) Chrome/94.0.4606.61 Safari/537.36",legacy,legacy,legacy,0,uniform,1,1,right,10,10,10,10,0,0,0,10,10,0,0,0,10,10,10,0,0,10,10,0,30-08-21,30-08-21,09:19:50,Thu Sep 30 2021 09:19:50 GMT+0200 (Central European Summer Time),The main experiment item,yes,0,0,/Users/ethan/Documents/GitHub/OpenSesame/Sternberg/experiment_files,0,0,0,no,mono,no,18,no,white,no,no,768,111,3.6.1,legacy,legacy,4 8,osweb,1.4.0,1,1,y,37,,0,right,,,f11,right,,right,1137,,,2162,28198,,1137,2,legacy,680,1280,24,720,24,0,0,1280,1632986447697,2,1024,2,48000,-16,experiment,1,odd,Win32,4,93289,,,90040,58,91068,59273,58,2230,,95306,92073,96455,58,95306,Sternberg_updated,10,8959,11,yes,1024
92,92,805,805,black,no,practice,Mozilla,Netscape,"5.0 (Windows NT 10.0; Win64; x64) AppleWebKit/537.36 (KHTML, like Gecko) Chrome/94.0.4606.61 Safari/537.36",legacy,legacy,legacy,0,uniform,1,1,left,11,11,11,11,0,0,0,11,11,0,0,0,11,11,11,0,0,11,11,0,30-08-21,30-08-21,09:19:50,Thu Sep 30 2021 09:19:50 GMT+0200 (Central European Summer Time),The main experiment item,yes,0,0,/Users/ethan/Documents/GitHub/OpenSesame/Sternberg/experiment_files,0,0,0,no,mono,no,18,no,white,no,no,768,111,3.6.1,legacy,legacy,5,osweb,1.4.0,1,0,n,37,,0,left,,,f11,right,,left,703,,,2162,28198,,703,2,legacy,680,1280,24,720,24,0,0,1280,1632986447697,1,1024,2,48000,-16,experiment,1,odd,Win32,3,99706,,,96456,58,97483,59273,58,2230,,101722,98489,102439,58,101722,Sternberg_updated,11,9662,12,yes,1024
92,92,785,785,black,no,experiment,Mozilla,Netscape,"5.0 (Windows NT 10.0; Win64; x64) AppleWebKit/537.36 (KHTML, like Gecko) Chrome/94.0.4606.61 Safari/537.36",legacy,legacy,legacy,0,uniform,1,1,right,12,12,12,12,0,0,0,12,12,0,0,0,12,12,12,0,0,12,12,0,30-08-21,30-08-21,09:19:50,Thu Sep 30 2021 09:19:50 GMT+0200 (Central European Summer Time),The main experiment item,yes,0,0,/Users/ethan/Documents/GitHub/OpenSesame/Sternberg/experiment_files,0,0,0,no,mono,no,18,no,white,no,no,768,111,3.6.1,legacy,legacy,3 5 4 7,osweb,1.4.0,1,1,y,37,,0,right,,,f11,right,right,right,540,,,2162,28198,24999,540,2,legacy,680,1280,24,720,24,0,0,1280,1632986447697,4,1024,2,48000,-16,experiment,1,odd,Win32,3,130705,,,102440,58,128483,59273,58,2230,103457,132722,129489,133272,58,132722,Sternberg_updated,12,10202,13,yes,1024
93,93,783,783,black,no,experiment,Mozilla,Netscape,"5.0 (Windows NT 10.0; Win64; x64) AppleWebKit/537.36 (KHTML, like Gecko) Chrome/94.0.4606.61 Safari/537.36",legacy,legacy,legacy,0,uniform,1,1,right,13,13,13,13,0,0,0,13,13,0,0,0,13,13,13,0,0,13,13,0,30-08-21,30-08-21,09:19:50,Thu Sep 30 2021 09:19:50 GMT+0200 (Central European Summer Time),The main experiment item,yes,0,0,/Users/ethan/Documents/GitHub/OpenSesame/Sternberg/experiment_files,0,0,0,no,mono,no,18,no,white,no,no,768,111,3.6.1,legacy,legacy,9 5 3 8 4,osweb,1.4.0,1,1,y,37,,0,right,,,f11,right,right,right,759,,,2162,28198,24999,759,2,legacy,680,1280,24,720,24,0,0,1280,1632986447697,5,1024,2,48000,-16,experiment,1,odd,Win32,9,136523,,,133273,58,134302,59273,58,2230,103457,138539,135306,139305,58,138539,Sternberg_updated,13,10961,14,yes,1024
93,93,794,794,black,no,experiment,Mozilla,Netscape,"5.0 (Windows NT 10.0; Win64; x64) AppleWebKit/537.36 (KHTML, like Gecko) Chrome/94.0.4606.61 Safari/537.36",legacy,legacy,legacy,0,uniform,1,1,left,14,14,14,14,0,0,0,14,14,0,0,0,14,14,14,0,0,14,14,0,30-08-21,30-08-21,09:19:50,Thu Sep 30 2021 09:19:50 GMT+0200 (Central European Summer Time),The main experiment item,yes,0,0,/Users/ethan/Documents/GitHub/OpenSesame/Sternberg/experiment_files,0,0,0,no,mono,no,18,no,white,no,no,768,111,3.6.1,legacy,legacy,8 4 3 9,osweb,1.4.0,1,0,n,37,,0,left,,,f11,right,right,left,948,,,2162,28198,24999,948,2,legacy,680,1280,24,720,24,0,0,1280,1632986447697,4,1024,2,48000,-16,experiment,1,odd,Win32,5,142556,,,139306,58,140333,59273,58,2230,103457,144572,141339,145522,58,144572,Sternberg_updated,14,11909,15,yes,1024
94,94,810,810,black,no,experiment,Mozilla,Netscape,"5.0 (Windows NT 10.0; Win64; x64) AppleWebKit/537.36 (KHTML, like Gecko) Chrome/94.0.4606.61 Safari/537.36",legacy,legacy,legacy,0,uniform,1,1,right,15,15,15,15,0,0,0,15,15,0,0,0,15,15,15,0,0,15,15,0,30-08-21,30-08-21,09:19:50,Thu Sep 30 2021 09:19:50 GMT+0200 (Central European Summer Time),The main experiment item,yes,0,0,/Users/ethan/Documents/GitHub/OpenSesame/Sternberg/experiment_files,0,0,0,no,mono,no,18,no,white,no,no,768,111,3.6.1,legacy,legacy,2 8 5 1,osweb,1.4.0,1,4,y,37,,0,right,,,f11,right,right,right,1048,,,2162,28198,24999,1048,2,legacy,680,1280,24,720,24,0,0,1280,1632986447697,4,1024,2,48000,-16,experiment,1,odd,Win32,1,148772,,,145523,58,146549,59273,58,2230,103457,150789,147556,151838,58,150789,Sternberg_updated,15,12957,16,yes,1024
94,94,808,808,black,no,experiment,Mozilla,Netscape,"5.0 (Windows NT 10.0; Win64; x64) AppleWebKit/537.36 (KHTML, like Gecko) Chrome/94.0.4606.61 Safari/537.36",legacy,legacy,legacy,0,uniform,1,1,right,16,16,16,16,0,0,0,16,16,0,0,0,16,16,16,0,0,16,16,0,30-08-21,30-08-21,09:19:50,Thu Sep 30 2021 09:19:50 GMT+0200 (Central European Summer Time),The main experiment item,yes,0,0,/Users/ethan/Documents/GitHub/OpenSesame/Sternberg/experiment_files,0,0,0,no,mono,no,18,no,white,no,no,768,111,3.6.1,legacy,legacy,3 2 1 4 7,osweb,1.4.0,1,2,y,37,,0,right,,,f11,right,right,right,779,,,2162,28198,24999,779,2,legacy,680,1280,24,720,24,0,0,1280,1632986447697,5,1024,2,48000,-16,experiment,1,odd,Win32,2,155089,,,151839,58,152869,59273,58,2230,103457,157105,153872,157888,58,157105,Sternberg_updated,16,13736,17,yes,1024
94,94,813,813,black,no,experiment,Mozilla,Netscape,"5.0 (Windows NT 10.0; Win64; x64) AppleWebKit/537.36 (KHTML, like Gecko) Chrome/94.0.4606.61 Safari/537.36",legacy,legacy,legacy,0,uniform,1,1,right,17,17,17,17,0,0,0,17,17,0,0,0,17,17,17,0,0,17,17,0,30-08-21,30-08-21,09:19:50,Thu Sep 30 2021 09:19:50 GMT+0200 (Central European Summer Time),The main experiment item,yes,0,0,/Users/ethan/Documents/GitHub/OpenSesame/Sternberg/experiment_files,0,0,0,no,mono,no,18,no,white,no,no,768,111,3.6.1,legacy,legacy,4 9 7 8 5 3,osweb,1.4.0,1,4,y,37,,0,right,,,f11,right,right,right,893,,,2162,28198,24999,893,2,legacy,680,1280,24,720,24,0,0,1280,1632986447697,6,1024,2,48000,-16,experiment,1,odd,Win32,8,161139,,,157889,58,158917,59273,58,2230,103457,163156,159923,164055,58,163156,Sternberg_updated,17,14629,18,yes,1024
95,95,807,807,black,no,experiment,Mozilla,Netscape,"5.0 (Windows NT 10.0; Win64; x64) AppleWebKit/537.36 (KHTML, like Gecko) Chrome/94.0.4606.61 Safari/537.36",legacy,legacy,legacy,0,uniform,1,1,left,18,18,18,18,0,0,0,18,18,0,0,0,18,18,18,0,0,18,18,0,30-08-21,30-08-21,09:19:50,Thu Sep 30 2021 09:19:50 GMT+0200 (Central European Summer Time),The main experiment item,yes,0,0,/Users/ethan/Documents/GitHub/OpenSesame/Sternberg/experiment_files,0,0,0,no,mono,no,18,no,white,no,no,768,111,3.6.1,legacy,legacy,2 5 1 4,osweb,1.4.0,1,0,n,37,,0,left,,,f11,right,right,left,698,,,2162,28198,24999,698,2,legacy,680,1280,24,720,24,0,0,1280,1632986447697,4,1024,2,48000,-16,experiment,1,odd,Win32,6,167322,,,164056,58,165091,59273,58,2230,103457,169339,166106,170038,58,169339,Sternberg_updated,18,15327,19,yes,1024
95,95,825,825,black,no,experiment,Mozilla,Netscape,"5.0 (Windows NT 10.0; Win64; x64) AppleWebKit/537.36 (KHTML, like Gecko) Chrome/94.0.4606.61 Safari/537.36",legacy,legacy,legacy,0,uniform,1,1,right,19,19,19,19,0,0,0,19,19,0,0,0,19,19,19,0,0,19,19,0,30-08-21,30-08-21,09:19:50,Thu Sep 30 2021 09:19:50 GMT+0200 (Central European Summer Time),The main experiment item,yes,0,0,/Users/ethan/Documents/GitHub/OpenSesame/Sternberg/experiment_files,0,0,0,no,mono,no,18,no,white,no,no,768,111,3.6.1,legacy,legacy,6 7 9 3 1 2,osweb,1.4.0,1,1,y,37,,0,right,,,f11,right,right,right,1170,,,2162,28198,24999,1170,2,legacy,680,1280,24,720,24,0,0,1280,1632986447697,6,1024,2,48000,-16,experiment,1,odd,Win32,6,173288,,,170039,58,171067,59273,58,2230,103457,175305,172072,176488,58,175305,Sternberg_updated,19,16497,20,yes,1024
95,95,817,817,black,no,experiment,Mozilla,Netscape,"5.0 (Windows NT 10.0; Win64; x64) AppleWebKit/537.36 (KHTML, like Gecko) Chrome/94.0.4606.61 Safari/537.36",legacy,legacy,legacy,0,uniform,1,1,right,20,20,20,20,0,0,0,20,20,0,0,0,20,20,20,0,0,20,20,0,30-08-21,30-08-21,09:19:50,Thu Sep 30 2021 09:19:50 GMT+0200 (Central European Summer Time),The main experiment item,yes,0,0,/Users/ethan/Documents/GitHub/OpenSesame/Sternberg/experiment_files,0,0,0,no,mono,no,18,no,white,no,no,768,111,3.6.1,legacy,legacy,7 1 3,osweb,1.4.0,1,2,y,37,,0,right,,,f11,right,right,right,664,,,2162,28198,24999,664,2,legacy,680,1280,24,720,24,0,0,1280,1632986447697,3,1024,2,48000,-16,experiment,1,odd,Win32,1,179739,,,176489,58,177518,59273,58,2230,103457,181756,178522,182422,58,181756,Sternberg_updated,20,17161,21,yes,1024
95,95,816,816,black,no,experiment,Mozilla,Netscape,"5.0 (Windows NT 10.0; Win64; x64) AppleWebKit/537.36 (KHTML, like Gecko) Chrome/94.0.4606.61 Safari/537.36",legacy,legacy,legacy,0,uniform,1,1,left,21,21,21,21,0,0,0,21,21,0,0,0,21,21,21,0,0,21,21,0,30-08-21,30-08-21,09:19:50,Thu Sep 30 2021 09:19:50 GMT+0200 (Central European Summer Time),The main experiment item,yes,0,0,/Users/ethan/Documents/GitHub/OpenSesame/Sternberg/experiment_files,0,0,0,no,mono,no,18,no,white,no,no,768,111,3.6.1,legacy,legacy,1 8 7,osweb,1.4.0,1,0,n,37,,0,left,,,f11,right,right,left,789,,,2162,28198,24999,789,2,legacy,680,1280,24,720,24,0,0,1280,1632986447697,3,1024,2,48000,-16,experiment,1,odd,Win32,4,185672,,,182422,58,183450,59273,58,2230,103457,187689,184455,188488,58,187689,Sternberg_updated,21,17950,22,yes,1024
96,96,810,810,black,no,experiment,Mozilla,Netscape,"5.0 (Windows NT 10.0; Win64; x64) AppleWebKit/537.36 (KHTML, like Gecko) Chrome/94.0.4606.61 Safari/537.36",legacy,legacy,legacy,0,uniform,1,1,right,22,22,22,22,0,0,0,22,22,0,0,0,22,22,22,0,0,22,22,0,30-08-21,30-08-21,09:19:50,Thu Sep 30 2021 09:19:50 GMT+0200 (Central European Summer Time),The main experiment item,yes,0,0,/Users/ethan/Documents/GitHub/OpenSesame/Sternberg/experiment_files,0,0,0,no,mono,no,18,no,white,no,no,768,111,3.6.1,legacy,legacy,7 6,osweb,1.4.0,1,2,y,37,,0,right,,,f11,right,right,right,677,,,2162,28198,24999,677,2,legacy,680,1280,24,720,24,0,0,1280,1632986447697,2,1024,2,48000,-16,experiment,1,odd,Win32,6,191739,,,188489,58,189516,59273,58,2230,103457,193755,190522,194438,58,193755,Sternberg_updated,22,18627,23,yes,1024
96,96,804,804,black,no,experiment,Mozilla,Netscape,"5.0 (Windows NT 10.0; Win64; x64) AppleWebKit/537.36 (KHTML, like Gecko) Chrome/94.0.4606.61 Safari/537.36",legacy,legacy,legacy,0,uniform,1,1,right,23,23,23,23,0,0,0,23,23,0,0,0,23,23,23,0,0,23,23,0,30-08-21,30-08-21,09:19:50,Thu Sep 30 2021 09:19:50 GMT+0200 (Central European Summer Time),The main experiment item,yes,0,0,/Users/ethan/Documents/GitHub/OpenSesame/Sternberg/experiment_files,0,0,0,no,mono,no,18,no,white,no,no,768,111,3.6.1,legacy,legacy,5 7 3 6 2,osweb,1.4.0,1,5,y,37,,0,right,,,f11,right,right,right,662,,,2162,28198,24999,662,2,legacy,680,1280,24,720,24,0,0,1280,1632986447697,5,1024,2,48000,-16,experiment,1,odd,Win32,2,197688,,,194439,58,195467,59273,58,2230,103457,199705,196472,200371,58,199705,Sternberg_updated,23,19289,24,yes,1024
96,96,825,825,black,no,experiment,Mozilla,Netscape,"5.0 (Windows NT 10.0; Win64; x64) AppleWebKit/537.36 (KHTML, like Gecko) Chrome/94.0.4606.61 Safari/537.36",legacy,legacy,legacy,0,uniform,1,1,right,24,24,24,24,0,0,0,24,24,0,0,0,24,24,24,0,0,24,24,0,30-08-21,30-08-21,09:19:50,Thu Sep 30 2021 09:19:50 GMT+0200 (Central European Summer Time),The main experiment item,yes,0,0,/Users/ethan/Documents/GitHub/OpenSesame/Sternberg/experiment_files,0,0,0,no,mono,no,18,no,white,no,no,768,111,3.6.1,legacy,legacy,7 4 2 6 3 5,osweb,1.4.0,1,6,y,37,,0,right,,,f11,right,right,right,1324,,,2162,28198,24999,1324,2,legacy,680,1280,24,720,24,0,0,1280,1632986447697,6,1024,2,48000,-16,experiment,1,odd,Win32,5,203622,,,200373,58,201400,59273,58,2230,103457,205639,202405,206971,58,205639,Sternberg_updated,24,20613,25,yes,1024
96,96,824,824,black,no,experiment,Mozilla,Netscape,"5.0 (Windows NT 10.0; Win64; x64) AppleWebKit/537.36 (KHTML, like Gecko) Chrome/94.0.4606.61 Safari/537.36",legacy,legacy,legacy,0,uniform,1,1,right,25,25,25,25,0,0,0,25,25,0,0,0,25,25,25,0,0,25,25,0,30-08-21,30-08-21,09:19:50,Thu Sep 30 2021 09:19:50 GMT+0200 (Central European Summer Time),The main experiment item,yes,0,0,/Users/ethan/Documents/GitHub/OpenSesame/Sternberg/experiment_files,0,0,0,no,mono,no,18,no,white,no,no,768,111,3.6.1,legacy,legacy,5 2 9 6 1 7,osweb,1.4.0,1,3,y,37,,0,right,,,f11,right,right,right,809,,,2162,28198,24999,809,2,legacy,680,1280,24,720,24,0,0,1280,1632986447697,6,1024,2,48000,-16,experiment,1,odd,Win32,9,210222,,,206972,58,207999,59273,58,2230,103457,212238,209006,213055,58,212238,Sternberg_updated,25,21422,26,yes,1024
96,96,816,816,black,no,experiment,Mozilla,Netscape,"5.0 (Windows NT 10.0; Win64; x64) AppleWebKit/537.36 (KHTML, like Gecko) Chrome/94.0.4606.61 Safari/537.36",legacy,legacy,legacy,0,uniform,1,1,left,26,26,26,26,0,0,0,26,26,0,0,0,26,26,26,0,0,26,26,0,30-08-21,30-08-21,09:19:50,Thu Sep 30 2021 09:19:50 GMT+0200 (Central European Summer Time),The main experiment item,yes,0,0,/Users/ethan/Documents/GitHub/OpenSesame/Sternberg/experiment_files,0,0,0,no,mono,no,18,no,white,no,no,768,111,3.6.1,legacy,legacy,6 9 5,osweb,1.4.0,1,0,n,37,,0,left,,,f11,right,right,left,603,,,2162,28198,24999,603,2,legacy,680,1280,24,720,24,0,0,1280,1632986447697,3,1024,2,48000,-16,experiment,1,odd,Win32,8,216305,,,213056,58,214084,59273,58,2230,103457,218322,215089,218938,58,218322,Sternberg_updated,26,22025,27,yes,1024
96,96,810,810,black,no,experiment,Mozilla,Netscape,"5.0 (Windows NT 10.0; Win64; x64) AppleWebKit/537.36 (KHTML, like Gecko) Chrome/94.0.4606.61 Safari/537.36",legacy,legacy,legacy,0,uniform,1,1,left,27,27,27,27,0,0,0,27,27,0,0,0,27,27,27,0,0,27,27,0,30-08-21,30-08-21,09:19:50,Thu Sep 30 2021 09:19:50 GMT+0200 (Central European Summer Time),The main experiment item,yes,0,0,/Users/ethan/Documents/GitHub/OpenSesame/Sternberg/experiment_files,0,0,0,no,mono,no,18,no,white,no,no,768,111,3.6.1,legacy,legacy,1 4 3 6 5,osweb,1.4.0,1,0,n,37,,0,left,,,f11,right,right,left,663,,,2162,28198,24999,663,2,legacy,680,1280,24,720,24,0,0,1280,1632986447697,5,1024,2,48000,-16,experiment,1,odd,Win32,8,222205,,,218939,58,219975,59273,58,2230,103457,224222,220989,224888,58,224222,Sternberg_updated,27,22688,28,yes,1024
97,97,812,812,black,no,experiment,Mozilla,Netscape,"5.0 (Windows NT 10.0; Win64; x64) AppleWebKit/537.36 (KHTML, like Gecko) Chrome/94.0.4606.61 Safari/537.36",legacy,legacy,legacy,0,uniform,1,1,left,28,28,28,28,0,0,0,28,28,0,0,0,28,28,28,0,0,28,28,0,30-08-21,30-08-21,09:19:50,Thu Sep 30 2021 09:19:50 GMT+0200 (Central European Summer Time),The main experiment item,yes,0,0,/Users/ethan/Documents/GitHub/OpenSesame/Sternberg/experiment_files,0,0,0,no,mono,no,18,no,white,no,no,768,111,3.6.1,legacy,legacy,7 3 2 8,osweb,1.4.0,1,0,n,37,,0,left,,,f11,right,right,left,868,,,2162,28198,24999,868,2,legacy,680,1280,24,720,24,0,0,1280,1632986447697,4,1024,2,48000,-16,experiment,1,odd,Win32,4,228138,,,224889,58,225916,59273,58,2230,103457,230155,226922,231038,58,230155,Sternberg_updated,28,23556,29,yes,1024
97,97,805,805,black,no,experiment,Mozilla,Netscape,"5.0 (Windows NT 10.0; Win64; x64) AppleWebKit/537.36 (KHTML, like Gecko) Chrome/94.0.4606.61 Safari/537.36",legacy,legacy,legacy,0,uniform,1,1,left,29,29,29,29,0,0,0,29,29,0,0,0,29,29,29,0,0,29,29,0,30-08-21,30-08-21,09:19:50,Thu Sep 30 2021 09:19:50 GMT+0200 (Central European Summer Time),The main experiment item,yes,0,0,/Users/ethan/Documents/GitHub/OpenSesame/Sternberg/experiment_files,0,0,0,no,mono,no,18,no,white,no,no,768,111,3.6.1,legacy,legacy,6 7 5 9,osweb,1.4.0,1,0,n,37,,0,left,,,f11,right,right,left,589,,,2162,28198,24999,589,2,legacy,680,1280,24,720,24,0,0,1280,1632986447697,4,1024,2,48000,-16,experiment,1,odd,Win32,2,234288,,,231039,58,232066,59273,58,2230,103457,236305,233072,236905,58,236305,Sternberg_updated,29,24145,30,yes,1024
97,97,804,804,black,no,experiment,Mozilla,Netscape,"5.0 (Windows NT 10.0; Win64; x64) AppleWebKit/537.36 (KHTML, like Gecko) Chrome/94.0.4606.61 Safari/537.36",legacy,legacy,legacy,0,uniform,1,1,right,30,30,30,30,0,0,0,30,30,0,0,0,30,30,30,0,0,30,30,0,30-08-21,30-08-21,09:19:50,Thu Sep 30 2021 09:19:50 GMT+0200 (Central European Summer Time),The main experiment item,yes,0,0,/Users/ethan/Documents/GitHub/OpenSesame/Sternberg/experiment_files,0,0,0,no,mono,no,18,no,white,no,no,768,111,3.6.1,legacy,legacy,2 5 4 8 7,osweb,1.4.0,1,3,y,37,,0,right,,,f11,right,right,right,772,,,2162,28198,24999,772,2,legacy,680,1280,24,720,24,0,0,1280,1632986447697,5,1024,2,48000,-16,experiment,1,odd,Win32,4,240155,,,236905,58,237934,59273,58,2230,103457,242172,238938,242955,58,242172,Sternberg_updated,30,24917,31,yes,1024
97,97,816,816,black,no,experiment,Mozilla,Netscape,"5.0 (Windows NT 10.0; Win64; x64) AppleWebKit/537.36 (KHTML, like Gecko) Chrome/94.0.4606.61 Safari/537.36",legacy,legacy,legacy,0,uniform,1,1,left,31,31,31,31,0,0,0,31,31,0,0,0,31,31,31,0,0,31,31,0,30-08-21,30-08-21,09:19:50,Thu Sep 30 2021 09:19:50 GMT+0200 (Central European Summer Time),The main experiment item,yes,0,0,/Users/ethan/Documents/GitHub/OpenSesame/Sternberg/experiment_files,0,0,0,no,mono,no,18,no,white,no,no,768,111,3.6.1,legacy,legacy,3 4 9 6 7 8,osweb,1.4.0,1,0,n,37,,0,left,,,f11,right,right,left,1190,,,2162,28198,24999,1190,2,legacy,680,1280,24,720,24,0,0,1280,1632986447697,6,1024,2,48000,-16,experiment,1,odd,Win32,2,246205,,,242956,58,243983,59273,58,2230,103457,248222,244988,249421,58,248222,Sternberg_updated,31,26107,32,yes,1024
97,97,819,819,black,no,experiment,Mozilla,Netscape,"5.0 (Windows NT 10.0; Win64; x64) AppleWebKit/537.36 (KHTML, like Gecko) Chrome/94.0.4606.61 Safari/537.36",legacy,legacy,legacy,0,uniform,1,1,right,32,32,32,32,0,0,0,32,32,0,0,0,32,32,32,0,0,32,32,0,30-08-21,30-08-21,09:19:50,Thu Sep 30 2021 09:19:50 GMT+0200 (Central European Summer Time),The main experiment item,yes,0,0,/Users/ethan/Documents/GitHub/OpenSesame/Sternberg/experiment_files,0,0,0,no,mono,no,18,no,white,no,no,768,111,3.6.1,legacy,legacy,7 1 8 5 6 2,osweb,1.4.0,1,2,y,37,,0,right,,,f11,right,right,right,934,,,2162,28198,24999,934,2,legacy,680,1280,24,720,24,0,0,1280,1632986447697,6,1024,2,48000,-16,experiment,1,odd,Win32,1,252671,,,249422,58,250448,59273,58,2230,103457,254688,251455,255638,58,254688,Sternberg_updated,32,27041,33,yes,1024
97,97,811,811,black,no,experiment,Mozilla,Netscape,"5.0 (Windows NT 10.0; Win64; x64) AppleWebKit/537.36 (KHTML, like Gecko) Chrome/94.0.4606.61 Safari/537.36",legacy,legacy,legacy,0,uniform,1,1,right,33,33,33,33,0,0,0,33,33,0,0,0,33,33,33,0,0,33,33,0,30-08-21,30-08-21,09:19:50,Thu Sep 30 2021 09:19:50 GMT+0200 (Central European Summer Time),The main experiment item,yes,0,0,/Users/ethan/Documents/GitHub/OpenSesame/Sternberg/experiment_files,0,0,0,no,mono,no,18,no,white,no,no,768,111,3.6.1,legacy,legacy,8,osweb,1.4.0,1,1,y,37,,0,right,,,f11,right,right,right,546,,,2162,28198,24999,546,2,legacy,680,1280,24,720,24,0,0,1280,1632986447697,1,1024,2,48000,-16,experiment,1,odd,Win32,8,258888,,,255639,58,256666,59273,58,2230,103457,260905,257672,261455,58,260905,Sternberg_updated,33,27587,34,yes,1024
97,97,817,817,black,no,experiment,Mozilla,Netscape,"5.0 (Windows NT 10.0; Win64; x64) AppleWebKit/537.36 (KHTML, like Gecko) Chrome/94.0.4606.61 Safari/537.36",legacy,legacy,legacy,0,uniform,1,1,right,34,34,34,34,0,0,0,34,34,0,0,0,34,34,34,0,0,34,34,0,30-08-21,30-08-21,09:19:50,Thu Sep 30 2021 09:19:50 GMT+0200 (Central European Summer Time),The main experiment item,yes,0,0,/Users/ethan/Documents/GitHub/OpenSesame/Sternberg/experiment_files,0,0,0,no,mono,no,18,no,white,no,no,768,111,3.6.1,legacy,legacy,3 4,osweb,1.4.0,1,1,y,37,,0,right,,,f11,right,right,right,993,,,2162,28198,24999,993,2,legacy,680,1280,24,720,24,0,0,1280,1632986447697,2,1024,2,48000,-16,experiment,1,odd,Win32,3,264705,,,261455,58,262483,59273,58,2230,103457,266722,263488,267721,58,266722,Sternberg_updated,34,28580,35,yes,1024
97,97,822,822,black,no,experiment,Mozilla,Netscape,"5.0 (Windows NT 10.0; Win64; x64) AppleWebKit/537.36 (KHTML, like Gecko) Chrome/94.0.4606.61 Safari/537.36",legacy,legacy,legacy,0,uniform,1,1,right,35,35,35,35,0,0,0,35,35,0,0,0,35,35,35,0,0,35,35,0,30-08-21,30-08-21,09:19:50,Thu Sep 30 2021 09:19:50 GMT+0200 (Central European Summer Time),The main experiment item,yes,0,0,/Users/ethan/Documents/GitHub/OpenSesame/Sternberg/experiment_files,0,0,0,no,mono,no,18,no,white,no,no,768,111,3.6.1,legacy,legacy,3 5 7 1,osweb,1.4.0,1,3,y,37,,0,right,,,f11,right,right,right,1019,,,2162,28198,24999,1019,2,legacy,680,1280,24,720,24,0,0,1280,1632986447697,4,1024,2,48000,-16,experiment,1,odd,Win32,7,270972,,,267722,58,268750,59273,58,2230,103457,272988,269755,274021,58,272988,Sternberg_updated,35,29599,36,yes,1024
97,97,819,819,black,no,experiment,Mozilla,Netscape,"5.0 (Windows NT 10.0; Win64; x64) AppleWebKit/537.36 (KHTML, like Gecko) Chrome/94.0.4606.61 Safari/537.36",legacy,legacy,legacy,0,uniform,1,1,right,36,36,36,36,0,0,0,36,36,0,0,0,36,36,36,0,0,36,36,0,30-08-21,30-08-21,09:19:50,Thu Sep 30 2021 09:19:50 GMT+0200 (Central European Summer Time),The main experiment item,yes,0,0,/Users/ethan/Documents/GitHub/OpenSesame/Sternberg/experiment_files,0,0,0,no,mono,no,18,no,white,no,no,768,111,3.6.1,legacy,legacy,2 4 8 5 1 3,osweb,1.4.0,1,1,y,37,,0,right,,,f11,right,right,right,713,,,2162,28198,24999,713,2,legacy,680,1280,24,720,24,0,0,1280,1632986447697,6,1024,2,48000,-16,experiment,1,odd,Win32,2,277271,,,274022,58,275049,59273,58,2230,103457,279288,276055,280004,58,279288,Sternberg_updated,36,30312,37,yes,1024
97,97,816,816,black,no,experiment,Mozilla,Netscape,"5.0 (Windows NT 10.0; Win64; x64) AppleWebKit/537.36 (KHTML, like Gecko) Chrome/94.0.4606.61 Safari/537.36",legacy,legacy,legacy,0,uniform,1,1,left,37,37,37,37,0,0,0,37,37,0,0,0,37,37,37,0,0,37,37,0,30-08-21,30-08-21,09:19:50,Thu Sep 30 2021 09:19:50 GMT+0200 (Central European Summer Time),The main experiment item,yes,0,0,/Users/ethan/Documents/GitHub/OpenSesame/Sternberg/experiment_files,0,0,0,no,mono,no,18,no,white,no,no,768,111,3.6.1,legacy,legacy,5,osweb,1.4.0,1,0,n,37,,0,left,,,f11,right,right,left,701,,,2162,28198,24999,701,2,legacy,680,1280,24,720,24,0,0,1280,1632986447697,1,1024,2,48000,-16,experiment,1,odd,Win32,8,283255,,,280005,58,281033,59273,58,2230,103457,285271,282038,285988,58,285271,Sternberg_updated,37,31013,38,yes,1024
97,97,811,811,black,no,experiment,Mozilla,Netscape,"5.0 (Windows NT 10.0; Win64; x64) AppleWebKit/537.36 (KHTML, like Gecko) Chrome/94.0.4606.61 Safari/537.36",legacy,legacy,legacy,0,uniform,1,1,right,38,38,38,38,0,0,0,38,38,0,0,0,38,38,38,0,0,38,38,0,30-08-21,30-08-21,09:19:50,Thu Sep 30 2021 09:19:50 GMT+0200 (Central European Summer Time),The main experiment item,yes,0,0,/Users/ethan/Documents/GitHub/OpenSesame/Sternberg/experiment_files,0,0,0,no,mono,no,18,no,white,no,no,768,111,3.6.1,legacy,legacy,9 6 2 4 1,osweb,1.4.0,1,4,y,37,,0,right,,,f11,right,right,right,606,,,2162,28198,24999,606,2,legacy,680,1280,24,720,24,0,0,1280,1632986447697,5,1024,2,48000,-16,experiment,1,odd,Win32,4,289238,,,285989,58,287015,59273,58,2230,103457,291255,288021,291871,58,291255,Sternberg_updated,38,31619,39,yes,1024
98,98,808,808,black,no,experiment,Mozilla,Netscape,"5.0 (Windows NT 10.0; Win64; x64) AppleWebKit/537.36 (KHTML, like Gecko) Chrome/94.0.4606.61 Safari/537.36",legacy,legacy,legacy,0,uniform,1,1,right,39,39,39,39,0,0,0,39,39,0,0,0,39,39,39,0,0,39,39,0,30-08-21,30-08-21,09:19:50,Thu Sep 30 2021 09:19:50 GMT+0200 (Central European Summer Time),The main experiment item,yes,0,0,/Users/ethan/Documents/GitHub/OpenSesame/Sternberg/experiment_files,0,0,0,no,mono,no,18,no,white,no,no,768,111,3.6.1,legacy,legacy,9 3 8 2 1 4,osweb,1.4.0,1,3,y,37,,0,right,,,f11,right,right,right,704,,,2162,28198,24999,704,2,legacy,680,1280,24,720,24,0,0,1280,1632986447697,6,1024,2,48000,-16,experiment,1,odd,Win32,8,295121,,,291872,58,292899,59273,58,2230,103457,297138,293906,297854,58,297138,Sternberg_updated,39,32323,40,yes,1024
98,98,815,815,black,no,experiment,Mozilla,Netscape,"5.0 (Windows NT 10.0; Win64; x64) AppleWebKit/537.36 (KHTML, like Gecko) Chrome/94.0.4606.61 Safari/537.36",legacy,legacy,legacy,0,uniform,1,1,left,40,40,40,40,0,0,0,40,40,0,0,0,40,40,40,0,0,40,40,0,30-08-21,30-08-21,09:19:50,Thu Sep 30 2021 09:19:50 GMT+0200 (Central European Summer Time),The main experiment item,yes,0,0,/Users/ethan/Documents/GitHub/OpenSesame/Sternberg/experiment_files,0,0,0,no,mono,no,18,no,white,no,no,768,111,3.6.1,legacy,legacy,5 7 3,osweb,1.4.0,1,0,n,37,,0,left,,,f11,right,right,left,1093,,,2162,28198,24999,1093,2,legacy,680,1280,24,720,24,0,0,1280,1632986447697,3,1024,2,48000,-16,experiment,1,odd,Win32,9,301105,,,297855,58,298882,59273,58,2230,103457,303121,299888,304221,58,303121,Sternberg_updated,40,33416,41,yes,1024
98,98,809,809,black,no,experiment,Mozilla,Netscape,"5.0 (Windows NT 10.0; Win64; x64) AppleWebKit/537.36 (KHTML, like Gecko) Chrome/94.0.4606.61 Safari/537.36",legacy,legacy,legacy,0,uniform,1,1,left,41,41,41,41,0,0,0,41,41,0,0,0,41,41,41,0,0,41,41,0,30-08-21,30-08-21,09:19:50,Thu Sep 30 2021 09:19:50 GMT+0200 (Central European Summer Time),The main experiment item,yes,0,0,/Users/ethan/Documents/GitHub/OpenSesame/Sternberg/experiment_files,0,0,0,no,mono,no,18,no,white,no,no,768,111,3.6.1,legacy,legacy,8 5 7 3 6,osweb,1.4.0,1,0,n,37,,0,left,,,f11,right,right,left,568,,,2162,28198,24999,568,2,legacy,680,1280,24,720,24,0,0,1280,1632986447697,5,1024,2,48000,-16,experiment,1,odd,Win32,9,307471,,,304222,58,305249,59273,58,2230,103457,309488,306255,310071,58,309488,Sternberg_updated,41,33984,42,yes,1024
98,98,808,808,black,no,experiment,Mozilla,Netscape,"5.0 (Windows NT 10.0; Win64; x64) AppleWebKit/537.36 (KHTML, like Gecko) Chrome/94.0.4606.61 Safari/537.36",legacy,legacy,legacy,0,uniform,1,1,right,42,42,42,42,0,0,0,42,42,0,0,0,42,42,42,0,0,42,42,0,30-08-21,30-08-21,09:19:50,Thu Sep 30 2021 09:19:50 GMT+0200 (Central European Summer Time),The main experiment item,yes,0,0,/Users/ethan/Documents/GitHub/OpenSesame/Sternberg/experiment_files,0,0,0,no,mono,no,18,no,white,no,no,768,111,3.6.1,legacy,legacy,7 8 6 3 1,osweb,1.4.0,1,5,y,37,,0,right,,,f11,right,right,right,758,,,2162,28198,24999,758,2,legacy,680,1280,24,720,24,0,0,1280,1632986447697,5,1024,2,48000,-16,experiment,1,odd,Win32,1,313321,,,310072,58,311101,59273,58,2230,103457,315338,312105,316105,58,315338,Sternberg_updated,42,34742,43,yes,1024
98,98,802,802,black,no,experiment,Mozilla,Netscape,"5.0 (Windows NT 10.0; Win64; x64) AppleWebKit/537.36 (KHTML, like Gecko) Chrome/94.0.4606.61 Safari/537.36",legacy,legacy,legacy,0,uniform,1,1,left,43,43,43,43,0,0,0,43,43,0,0,0,43,43,43,0,0,43,43,0,30-08-21,30-08-21,09:19:50,Thu Sep 30 2021 09:19:50 GMT+0200 (Central European Summer Time),The main experiment item,yes,0,0,/Users/ethan/Documents/GitHub/OpenSesame/Sternberg/experiment_files,0,0,0,no,mono,no,18,no,white,no,no,768,111,3.6.1,legacy,legacy,9,osweb,1.4.0,1,0,n,37,,0,left,,,f11,right,right,left,558,,,2162,28198,24999,558,2,legacy,680,1280,24,720,24,0,0,1280,1632986447697,1,1024,2,48000,-16,experiment,1,odd,Win32,6,319354,,,316106,58,317132,59273,58,2230,103457,321371,318138,321938,58,321371,Sternberg_updated,43,35300,44,yes,1024
98,98,806,806,black,no,experiment,Mozilla,Netscape,"5.0 (Windows NT 10.0; Win64; x64) AppleWebKit/537.36 (KHTML, like Gecko) Chrome/94.0.4606.61 Safari/537.36",legacy,legacy,legacy,0,uniform,1,1,left,44,44,44,44,0,0,0,44,44,0,0,0,44,44,44,0,0,44,44,0,30-08-21,30-08-21,09:19:50,Thu Sep 30 2021 09:19:50 GMT+0200 (Central European Summer Time),The main experiment item,yes,0,0,/Users/ethan/Documents/GitHub/OpenSesame/Sternberg/experiment_files,0,0,0,no,mono,no,18,no,white,no,no,768,111,3.6.1,legacy,legacy,3 9 8 1 6 4,osweb,1.4.0,1,0,n,37,,0,left,,,f11,right,right,left,971,,,2162,28198,24999,971,2,legacy,680,1280,24,720,24,0,0,1280,1632986447697,6,1024,2,48000,-16,experiment,1,odd,Win32,7,325188,,,321939,58,322965,59273,58,2230,103457,327205,323971,328187,58,327205,Sternberg_updated,44,36271,45,yes,1024
98,98,801,801,black,no,experiment,Mozilla,Netscape,"5.0 (Windows NT 10.0; Win64; x64) AppleWebKit/537.36 (KHTML, like Gecko) Chrome/94.0.4606.61 Safari/537.36",legacy,legacy,legacy,0,uniform,1,1,left,45,45,45,45,0,0,0,45,45,0,0,0,45,45,45,0,0,45,45,0,30-08-21,30-08-21,09:19:50,Thu Sep 30 2021 09:19:50 GMT+0200 (Central European Summer Time),The main experiment item,yes,0,0,/Users/ethan/Documents/GitHub/OpenSesame/Sternberg/experiment_files,0,0,0,no,mono,no,18,no,white,no,no,768,111,3.6.1,legacy,legacy,1 5 3 2 8,osweb,1.4.0,1,0,n,37,,0,left,,,f11,right,right,left,583,,,2162,28198,24999,583,2,legacy,680,1280,24,720,24,0,0,1280,1632986447697,5,1024,2,48000,-16,experiment,1,odd,Win32,4,331438,,,328188,58,329217,59273,58,2230,103457,333455,330221,334038,58,333455,Sternberg_updated,45,36854,46,yes,1024
98,98,808,808,black,no,experiment,Mozilla,Netscape,"5.0 (Windows NT 10.0; Win64; x64) AppleWebKit/537.36 (KHTML, like Gecko) Chrome/94.0.4606.61 Safari/537.36",legacy,legacy,legacy,0,uniform,1,1,left,46,46,46,46,0,0,0,46,46,0,0,0,46,46,46,0,0,46,46,0,30-08-21,30-08-21,09:19:50,Thu Sep 30 2021 09:19:50 GMT+0200 (Central European Summer Time),The main experiment item,yes,0,0,/Users/ethan/Documents/GitHub/OpenSesame/Sternberg/experiment_files,0,0,0,no,mono,no,18,no,white,no,no,768,111,3.6.1,legacy,legacy,1 7 5 2,osweb,1.4.0,1,0,n,37,,0,left,,,f11,right,right,left,1135,,,2162,28198,24999,1135,2,legacy,680,1280,24,720,24,0,0,1280,1632986447697,4,1024,2,48000,-16,experiment,1,odd,Win32,3,337288,,,334039,58,335066,59273,58,2230,103457,339304,336071,340439,58,339304,Sternberg_updated,46,37989,47,yes,1024
98,98,803,803,black,no,experiment,Mozilla,Netscape,"5.0 (Windows NT 10.0; Win64; x64) AppleWebKit/537.36 (KHTML, like Gecko) Chrome/94.0.4606.61 Safari/537.36",legacy,legacy,legacy,0,uniform,1,1,right,47,47,47,47,0,0,0,47,47,0,0,0,47,47,47,0,0,47,47,0,30-08-21,30-08-21,09:19:50,Thu Sep 30 2021 09:19:50 GMT+0200 (Central European Summer Time),The main experiment item,yes,0,0,/Users/ethan/Documents/GitHub/OpenSesame/Sternberg/experiment_files,0,0,0,no,mono,no,18,no,white,no,no,768,111,3.6.1,legacy,legacy,6 5,osweb,1.4.0,1,2,y,37,,0,right,,,f11,right,right,right,545,,,2162,28198,24999,545,2,legacy,680,1280,24,720,24,0,0,1280,1632986447697,2,1024,2,48000,-16,experiment,1,odd,Win32,5,343688,,,340440,58,341468,59273,58,2230,103457,345705,342472,346254,58,345705,Sternberg_updated,47,38534,48,yes,1024
98,98,810,810,black,no,experiment,Mozilla,Netscape,"5.0 (Windows NT 10.0; Win64; x64) AppleWebKit/537.36 (KHTML, like Gecko) Chrome/94.0.4606.61 Safari/537.36",legacy,legacy,legacy,0,uniform,1,1,left,48,48,48,48,0,0,0,48,48,0,0,0,48,48,48,0,0,48,48,0,30-08-21,30-08-21,09:19:50,Thu Sep 30 2021 09:19:50 GMT+0200 (Central European Summer Time),The main experiment item,yes,0,0,/Users/ethan/Documents/GitHub/OpenSesame/Sternberg/experiment_files,0,0,0,no,mono,no,18,no,white,no,no,768,111,3.6.1,legacy,legacy,1 7 8 3 9,osweb,1.4.0,1,0,n,37,,0,left,,,f11,right,right,left,1144,,,2162,28198,24999,1144,2,legacy,680,1280,24,720,24,0,0,1280,1632986447697,5,1024,2,48000,-16,experiment,1,odd,Win32,2,349504,,,346255,58,347282,59273,58,2230,103457,351521,348289,352671,58,351521,Sternberg_updated,48,39678,49,yes,1024
98,98,806,806,black,no,experiment,Mozilla,Netscape,"5.0 (Windows NT 10.0; Win64; x64) AppleWebKit/537.36 (KHTML, like Gecko) Chrome/94.0.4606.61 Safari/537.36",legacy,legacy,legacy,0,uniform,1,1,right,49,49,49,49,0,0,0,49,49,0,0,0,49,49,49,0,0,49,49,0,30-08-21,30-08-21,09:19:50,Thu Sep 30 2021 09:19:50 GMT+0200 (Central European Summer Time),The main experiment item,yes,0,0,/Users/ethan/Documents/GitHub/OpenSesame/Sternberg/experiment_files,0,0,0,no,mono,no,18,no,white,no,no,768,111,3.6.1,legacy,legacy,5 7 8 2 3 8,osweb,1.4.0,1,5,y,37,,0,right,,,f11,right,right,right,645,,,2162,28198,24999,645,2,legacy,680,1280,24,720,24,0,0,1280,1632986447697,6,1024,2,48000,-16,experiment,1,odd,Win32,3,355921,,,352672,58,353699,59273,58,2230,103457,357938,354705,358587,58,357938,Sternberg_updated,49,40323,50,yes,1024
98,98,806,806,black,no,experiment,Mozilla,Netscape,"5.0 (Windows NT 10.0; Win64; x64) AppleWebKit/537.36 (KHTML, like Gecko) Chrome/94.0.4606.61 Safari/537.36",legacy,legacy,legacy,0,uniform,1,1,right,50,50,50,50,0,0,0,50,50,0,0,0,50,50,50,0,0,50,50,0,30-08-21,30-08-21,09:19:50,Thu Sep 30 2021 09:19:50 GMT+0200 (Central European Summer Time),The main experiment item,yes,0,0,/Users/ethan/Documents/GitHub/OpenSesame/Sternberg/experiment_files,0,0,0,no,mono,no,18,no,white,no,no,768,111,3.6.1,legacy,legacy,3 9 6 2,osweb,1.4.0,1,4,y,37,,0,right,,,f11,right,right,right,771,,,2162,28198,24999,771,2,legacy,680,1280,24,720,24,0,0,1280,1632986447697,4,1024,2,48000,-16,experiment,1,odd,Win32,2,361838,,,358590,58,359618,59273,58,2230,103457,363855,360621,364637,58,363855,Sternberg_updated,50,41094,51,yes,1024
98,98,802,802,black,no,experiment,Mozilla,Netscape,"5.0 (Windows NT 10.0; Win64; x64) AppleWebKit/537.36 (KHTML, like Gecko) Chrome/94.0.4606.61 Safari/537.36",legacy,legacy,legacy,0,uniform,1,1,left,51,51,51,51,0,0,0,51,51,0,0,0,51,51,51,0,0,51,51,0,30-08-21,30-08-21,09:19:50,Thu Sep 30 2021 09:19:50 GMT+0200 (Central European Summer Time),The main experiment item,yes,0,0,/Users/ethan/Documents/GitHub/OpenSesame/Sternberg/experiment_files,0,0,0,no,mono,no,18,no,white,no,no,768,111,3.6.1,legacy,legacy,5 3 8 7 2 4,osweb,1.4.0,1,0,n,37,,0,left,,,f11,right,right,left,617,,,2162,28198,24999,617,2,legacy,680,1280,24,720,24,0,0,1280,1632986447697,6,1024,2,48000,-16,experiment,1,odd,Win32,9,367888,,,364638,58,365669,59273,58,2230,103457,369905,366671,370537,58,369904,Sternberg_updated,51,41711,52,yes,1024
98,98,802,802,black,no,experiment,Mozilla,Netscape,"5.0 (Windows NT 10.0; Win64; x64) AppleWebKit/537.36 (KHTML, like Gecko) Chrome/94.0.4606.61 Safari/537.36",legacy,legacy,legacy,0,uniform,1,1,left,52,52,52,52,0,0,0,52,52,0,0,0,52,52,52,0,0,52,52,0,30-08-21,30-08-21,09:19:50,Thu Sep 30 2021 09:19:50 GMT+0200 (Central European Summer Time),The main experiment item,yes,0,0,/Users/ethan/Documents/GitHub/OpenSesame/Sternberg/experiment_files,0,0,0,no,mono,no,18,no,white,no,no,768,111,3.6.1,legacy,legacy,4 8 1 2,osweb,1.4.0,1,0,n,37,,0,left,,,f11,right,right,left,792,,,2162,28198,24999,792,2,legacy,680,1280,24,720,24,0,0,1280,1632986447697,4,1024,2,48000,-16,experiment,1,odd,Win32,7,373788,,,370538,58,371566,59273,58,2230,103457,375804,372571,376604,58,375804,Sternberg_updated,52,42503,53,yes,1024
98,98,800,800,black,no,experiment,Mozilla,Netscape,"5.0 (Windows NT 10.0; Win64; x64) AppleWebKit/537.36 (KHTML, like Gecko) Chrome/94.0.4606.61 Safari/537.36",legacy,legacy,legacy,0,uniform,1,1,left,53,53,53,53,0,0,0,53,53,0,0,0,53,53,53,0,0,53,53,0,30-08-21,30-08-21,09:19:50,Thu Sep 30 2021 09:19:50 GMT+0200 (Central European Summer Time),The main experiment item,yes,0,0,/Users/ethan/Documents/GitHub/OpenSesame/Sternberg/experiment_files,0,0,0,no,mono,no,18,no,white,no,no,768,111,3.6.1,legacy,legacy,1,osweb,1.4.0,1,0,n,37,,0,left,,,f11,right,right,left,686,,,2162,28198,24999,686,2,legacy,680,1280,24,720,24,0,0,1280,1632986447697,1,1024,2,48000,-16,experiment,1,odd,Win32,7,379854,,,376605,58,377632,59273,58,2230,103457,381871,378638,382571,58,381871,Sternberg_updated,53,43189,54,yes,1024
98,98,799,799,black,no,experiment,Mozilla,Netscape,"5.0 (Windows NT 10.0; Win64; x64) AppleWebKit/537.36 (KHTML, like Gecko) Chrome/94.0.4606.61 Safari/537.36",legacy,legacy,legacy,0,uniform,1,1,left,54,54,54,54,0,0,0,54,54,0,0,0,54,54,54,0,0,54,54,0,30-08-21,30-08-21,09:19:50,Thu Sep 30 2021 09:19:50 GMT+0200 (Central European Summer Time),The main experiment item,yes,0,0,/Users/ethan/Documents/GitHub/OpenSesame/Sternberg/experiment_files,0,0,0,no,mono,no,18,no,white,no,no,768,111,3.6.1,legacy,legacy,1 4 9 2 5,osweb,1.4.0,1,0,n,37,,0,left,,,f11,right,right,left,742,,,2162,28198,24999,742,2,legacy,680,1280,24,720,24,0,0,1280,1632986447697,5,1024,2,48000,-16,experiment,1,odd,Win32,7,385821,,,382572,58,383598,59273,58,2230,103457,387838,384604,388588,58,387838,Sternberg_updated,54,43931,55,yes,1024
98,98,810,810,black,no,experiment,Mozilla,Netscape,"5.0 (Windows NT 10.0; Win64; x64) AppleWebKit/537.36 (KHTML, like Gecko) Chrome/94.0.4606.61 Safari/537.36",legacy,legacy,legacy,0,uniform,1,1,right,55,55,55,55,0,0,0,55,55,0,0,0,55,55,55,0,0,55,55,0,30-08-21,30-08-21,09:19:50,Thu Sep 30 2021 09:19:50 GMT+0200 (Central European Summer Time),The main experiment item,yes,0,0,/Users/ethan/Documents/GitHub/OpenSesame/Sternberg/experiment_files,0,0,0,no,mono,no,18,no,white,no,no,768,111,3.6.1,legacy,legacy,8 5 1 3 9,osweb,1.4.0,1,4,y,37,,0,right,rshift,,f11,right,right,right,1436,62928,,2162,28198,24999,1436,2,legacy,680,1280,24,720,24,0,0,1280,1632986447697,5,1024,2,48000,-16,experiment,1,odd,Win32,3,454771,389605,,388589,58,452549,59273,58,2230,103457,456787,453554,458237,58,456787,Sternberg_updated,55,45367,56,yes,1024
98,98,806,806,black,no,experiment,Mozilla,Netscape,"5.0 (Windows NT 10.0; Win64; x64) AppleWebKit/537.36 (KHTML, like Gecko) Chrome/94.0.4606.61 Safari/537.36",legacy,legacy,legacy,0,uniform,1,1,right,56,56,56,56,0,0,0,56,56,0,0,0,56,56,56,0,0,56,56,0,30-08-21,30-08-21,09:19:50,Thu Sep 30 2021 09:19:50 GMT+0200 (Central European Summer Time),The main experiment item,yes,0,0,/Users/ethan/Documents/GitHub/OpenSesame/Sternberg/experiment_files,0,0,0,no,mono,no,18,no,white,no,no,768,111,3.6.1,legacy,legacy,7,osweb,1.4.0,1,1,y,37,,0,right,rshift,,f11,right,right,right,551,62928,,2162,28198,24999,551,2,legacy,680,1280,24,720,24,0,0,1280,1632986447697,1,1024,2,48000,-16,experiment,1,odd,Win32,7,461487,389605,,458238,58,459265,59273,58,2230,103457,463504,460271,464070,58,463504,Sternberg_updated,56,45918,57,yes,1024
98,98,799,799,black,no,experiment,Mozilla,Netscape,"5.0 (Windows NT 10.0; Win64; x64) AppleWebKit/537.36 (KHTML, like Gecko) Chrome/94.0.4606.61 Safari/537.36",legacy,legacy,legacy,0,uniform,1,1,right,57,57,57,57,0,0,0,57,57,0,0,0,57,57,57,0,0,57,57,0,30-08-21,30-08-21,09:19:50,Thu Sep 30 2021 09:19:50 GMT+0200 (Central European Summer Time),The main experiment item,yes,0,0,/Users/ethan/Documents/GitHub/OpenSesame/Sternberg/experiment_files,0,0,0,no,mono,no,18,no,white,no,no,768,111,3.6.1,legacy,legacy,6 9 3 1,osweb,1.4.0,1,4,y,37,,0,right,rshift,,f11,right,right,right,436,62928,,2162,28198,24999,436,2,legacy,680,1280,24,720,24,0,0,1280,1632986447697,4,1024,2,48000,-16,experiment,1,odd,Win32,1,467321,389605,,464071,58,465099,59273,58,2230,103457,469337,466104,469787,58,469337,Sternberg_updated,57,46354,58,yes,1024
98,98,797,797,black,no,experiment,Mozilla,Netscape,"5.0 (Windows NT 10.0; Win64; x64) AppleWebKit/537.36 (KHTML, like Gecko) Chrome/94.0.4606.61 Safari/537.36",legacy,legacy,legacy,0,uniform,1,1,left,58,58,58,58,0,0,0,58,58,0,0,0,58,58,58,0,0,58,58,0,30-08-21,30-08-21,09:19:50,Thu Sep 30 2021 09:19:50 GMT+0200 (Central European Summer Time),The main experiment item,yes,0,0,/Users/ethan/Documents/GitHub/OpenSesame/Sternberg/experiment_files,0,0,0,no,mono,no,18,no,white,no,no,768,111,3.6.1,legacy,legacy,1 6 4 3 9 7,osweb,1.4.0,1,0,n,37,,0,left,rshift,,f11,right,right,left,644,62928,,2162,28198,24999,644,2,legacy,680,1280,24,720,24,0,0,1280,1632986447697,6,1024,2,48000,-16,experiment,1,odd,Win32,8,473037,389605,,469788,58,470817,59273,58,2230,103457,475054,471821,475704,58,475054,Sternberg_updated,58,46998,59,yes,1024
97,97,791,791,black,no,experiment,Mozilla,Netscape,"5.0 (Windows NT 10.0; Win64; x64) AppleWebKit/537.36 (KHTML, like Gecko) Chrome/94.0.4606.61 Safari/537.36",legacy,legacy,legacy,0,uniform,0,0,right,59,59,59,59,0,0,0,59,59,0,0,0,59,59,59,0,0,59,59,0,30-08-21,30-08-21,09:19:50,Thu Sep 30 2021 09:19:50 GMT+0200 (Central European Summer Time),The main experiment item,yes,0,0,/Users/ethan/Documents/GitHub/OpenSesame/Sternberg/experiment_files,0,0,0,no,mono,no,18,no,white,no,no,768,111,3.6.1,legacy,legacy,2 3,osweb,1.4.0,1,1,y,37,,0,left,rshift,,f11,right,right,left,468,62928,,2162,28198,24999,468,2,legacy,680,1280,24,720,24,0,0,1280,1632986447697,2,1024,2,48000,-16,experiment,1,odd,Win32,2,478954,389605,,475705,58,476731,59273,58,2230,103457,480971,477738,481454,58,480971,Sternberg_updated,58,47466,60,yes,1024
97,97,789,789,black,no,experiment,Mozilla,Netscape,"5.0 (Windows NT 10.0; Win64; x64) AppleWebKit/537.36 (KHTML, like Gecko) Chrome/94.0.4606.61 Safari/537.36",legacy,legacy,legacy,0,uniform,1,1,left,60,60,60,60,0,0,0,60,60,0,0,0,60,60,60,0,0,60,60,0,30-08-21,30-08-21,09:19:50,Thu Sep 30 2021 09:19:50 GMT+0200 (Central European Summer Time),The main experiment item,yes,0,0,/Users/ethan/Documents/GitHub/OpenSesame/Sternberg/experiment_files,0,0,0,no,mono,no,18,no,white,no,no,768,111,3.6.1,legacy,legacy,6 9 4 5 2,osweb,1.4.0,1,0,n,37,,0,left,rshift,,f11,right,right,left,665,62928,,2162,28198,24999,665,2,legacy,680,1280,24,720,24,0,0,1280,1632986447697,5,1024,2,48000,-16,experiment,1,odd,Win32,1,484720,389605,,475705,58,482488,481455,58,2230,103457,486737,483504,487404,58,486737,Sternberg_updated,59,48131,61,yes,1024
97,97,788,788,black,no,experiment,Mozilla,Netscape,"5.0 (Windows NT 10.0; Win64; x64) AppleWebKit/537.36 (KHTML, like Gecko) Chrome/94.0.4606.61 Safari/537.36",legacy,legacy,legacy,0,uniform,1,1,left,61,61,61,61,0,0,0,61,61,0,0,0,61,61,61,0,0,61,61,0,30-08-21,30-08-21,09:19:50,Thu Sep 30 2021 09:19:50 GMT+0200 (Central European Summer Time),The main experiment item,yes,0,0,/Users/ethan/Documents/GitHub/OpenSesame/Sternberg/experiment_files,0,0,0,no,mono,no,18,no,white,no,no,768,111,3.6.1,legacy,legacy,2 8 9 4 1,osweb,1.4.0,1,0,n,37,,0,left,rshift,,f11,right,right,left,716,62928,,2162,28198,24999,716,2,legacy,680,1280,24,720,24,0,0,1280,1632986447697,5,1024,2,48000,-16,experiment,1,odd,Win32,5,490654,389605,,487405,58,488433,481455,58,2230,103457,492671,489437,493387,58,492671,Sternberg_updated,60,48847,62,yes,1024
97,97,783,783,black,no,experiment,Mozilla,Netscape,"5.0 (Windows NT 10.0; Win64; x64) AppleWebKit/537.36 (KHTML, like Gecko) Chrome/94.0.4606.61 Safari/537.36",legacy,legacy,legacy,0,uniform,1,1,left,62,62,62,62,0,0,0,62,62,0,0,0,62,62,62,0,0,62,62,0,30-08-21,30-08-21,09:19:50,Thu Sep 30 2021 09:19:50 GMT+0200 (Central European Summer Time),The main experiment item,yes,0,0,/Users/ethan/Documents/GitHub/OpenSesame/Sternberg/experiment_files,0,0,0,no,mono,no,18,no,white,no,no,768,111,3.6.1,legacy,legacy,5 2,osweb,1.4.0,1,0,n,37,,0,left,rshift,,f11,right,right,left,467,62928,,2162,28198,24999,467,2,legacy,680,1280,24,720,24,0,0,1280,1632986447697,2,1024,2,48000,-16,experiment,1,odd,Win32,7,496637,389605,,493388,58,494416,481455,58,2230,103457,498654,495420,499137,58,498654,Sternberg_updated,61,49314,63,yes,1024
95,95,779,779,black,no,experiment,Mozilla,Netscape,"5.0 (Windows NT 10.0; Win64; x64) AppleWebKit/537.36 (KHTML, like Gecko) Chrome/94.0.4606.61 Safari/537.36",legacy,legacy,legacy,0,uniform,0,0,right,63,63,63,63,0,0,0,63,63,0,0,0,63,63,63,0,0,63,63,0,30-08-21,30-08-21,09:19:50,Thu Sep 30 2021 09:19:50 GMT+0200 (Central European Summer Time),The main experiment item,yes,0,0,/Users/ethan/Documents/GitHub/OpenSesame/Sternberg/experiment_files,0,0,0,no,mono,no,18,no,white,no,no,768,111,3.6.1,legacy,legacy,6 9 7 4 5 1,osweb,1.4.0,1,2,y,37,,0,left,rshift,,f11,right,right,left,570,62928,,2162,28198,24999,570,2,legacy,680,1280,24,720,24,0,0,1280,1632986447697,6,1024,2,48000,-16,experiment,1,odd,Win32,9,502387,389605,,499138,58,500165,481455,58,2230,103457,504404,501170,504987,58,504404,Sternberg_updated,61,49884,64,yes,1024
95,95,777,777,black,no,experiment,Mozilla,Netscape,"5.0 (Windows NT 10.0; Win64; x64) AppleWebKit/537.36 (KHTML, like Gecko) Chrome/94.0.4606.61 Safari/537.36",legacy,legacy,legacy,0,uniform,1,1,right,64,64,64,64,0,0,0,64,64,0,0,0,64,64,64,0,0,64,64,0,30-08-21,30-08-21,09:19:50,Thu Sep 30 2021 09:19:50 GMT+0200 (Central European Summer Time),The main experiment item,yes,0,0,/Users/ethan/Documents/GitHub/OpenSesame/Sternberg/experiment_files,0,0,0,no,mono,no,18,no,white,no,no,768,111,3.6.1,legacy,legacy,8 9 5 6 7,osweb,1.4.0,1,1,y,37,,0,right,rshift,,f11,right,right,right,602,62928,,2162,28198,24999,602,2,legacy,680,1280,24,720,24,0,0,1280,1632986447697,5,1024,2,48000,-16,experiment,1,odd,Win32,8,508237,389605,,499138,58,506015,504988,58,2230,103457,510254,507021,510870,58,510254,Sternberg_updated,62,50486,65,yes,1024
95,95,775,775,black,no,experiment,Mozilla,Netscape,"5.0 (Windows NT 10.0; Win64; x64) AppleWebKit/537.36 (KHTML, like Gecko) Chrome/94.0.4606.61 Safari/537.36",legacy,legacy,legacy,0,uniform,1,1,right,65,65,65,65,0,0,0,65,65,0,0,0,65,65,65,0,0,65,65,0,30-08-21,30-08-21,09:19:50,Thu Sep 30 2021 09:19:50 GMT+0200 (Central European Summer Time),The main experiment item,yes,0,0,/Users/ethan/Documents/GitHub/OpenSesame/Sternberg/experiment_files,0,0,0,no,mono,no,18,no,white,no,no,768,111,3.6.1,legacy,legacy,9 1 7 2,osweb,1.4.0,1,2,y,37,,0,right,rshift,,f11,right,right,right,671,62928,,2162,28198,24999,671,2,legacy,680,1280,24,720,24,0,0,1280,1632986447697,4,1024,2,48000,-16,experiment,1,odd,Win32,1,514120,389605,,510871,58,511898,504988,58,2230,103457,516137,512904,516820,58,516137,Sternberg_updated,63,51157,66,yes,1024
96,96,774,774,black,no,experiment,Mozilla,Netscape,"5.0 (Windows NT 10.0; Win64; x64) AppleWebKit/537.36 (KHTML, like Gecko) Chrome/94.0.4606.61 Safari/537.36",legacy,legacy,legacy,0,uniform,1,1,left,66,66,66,66,0,0,0,66,66,0,0,0,66,66,66,0,0,66,66,0,30-08-21,30-08-21,09:19:50,Thu Sep 30 2021 09:19:50 GMT+0200 (Central European Summer Time),The main experiment item,yes,0,0,/Users/ethan/Documents/GitHub/OpenSesame/Sternberg/experiment_files,0,0,0,no,mono,no,18,no,white,no,no,768,111,3.6.1,legacy,legacy,4 2 6 9,osweb,1.4.0,1,0,n,37,,0,left,rshift,,f11,right,right,left,703,62928,,2162,28198,24999,703,2,legacy,680,1280,24,720,24,0,0,1280,1632986447697,4,1024,2,48000,-16,experiment,1,odd,Win32,7,520070,389605,,516821,58,517848,504988,58,2230,103457,522087,518854,522803,58,522087,Sternberg_updated,64,51860,67,yes,1024
94,94,792,792,black,no,experiment,Mozilla,Netscape,"5.0 (Windows NT 10.0; Win64; x64) AppleWebKit/537.36 (KHTML, like Gecko) Chrome/94.0.4606.61 Safari/537.36",legacy,legacy,legacy,0,uniform,0,0,left,67,67,67,67,0,0,0,67,67,0,0,0,67,67,67,0,0,67,67,0,30-08-21,30-08-21,09:19:50,Thu Sep 30 2021 09:19:50 GMT+0200 (Central European Summer Time),The main experiment item,yes,0,0,/Users/ethan/Documents/GitHub/OpenSesame/Sternberg/experiment_files,0,0,0,no,mono,no,18,no,white,no,no,768,111,3.6.1,legacy,legacy,9 8 2 7 4,osweb,1.4.0,1,0,n,37,,0,None,rshift,,f11,right,right,None,2016,62928,,2162,28198,24999,2016,2,legacy,680,1280,24,720,24,0,0,1280,1632986447697,5,1024,2,48000,-16,experiment,1,odd,Win32,5,526054,389605,,522804,58,523832,504988,58,2230,103457,528070,524837,530087,58,528070,Sternberg_updated,64,53876,68,yes,1024
94,94,790,790,black,no,experiment,Mozilla,Netscape,"5.0 (Windows NT 10.0; Win64; x64) AppleWebKit/537.36 (KHTML, like Gecko) Chrome/94.0.4606.61 Safari/537.36",legacy,legacy,legacy,0,uniform,1,1,right,68,68,68,68,0,0,0,68,68,0,0,0,68,68,68,0,0,68,68,0,30-08-21,30-08-21,09:19:50,Thu Sep 30 2021 09:19:50 GMT+0200 (Central European Summer Time),The main experiment item,yes,0,0,/Users/ethan/Documents/GitHub/OpenSesame/Sternberg/experiment_files,0,0,0,no,mono,no,18,no,white,no,no,768,111,3.6.1,legacy,legacy,7 8 4 6 9 5,osweb,1.4.0,1,4,y,37,,0,right,rshift,,f11,right,right,right,633,62928,,2162,28198,24999,633,2,legacy,680,1280,24,720,24,0,0,1280,1632986447697,6,1024,2,48000,-16,experiment,1,odd,Win32,6,533337,389605,,522804,58,531115,530088,58,2230,103457,535354,532121,536003,58,535354,Sternberg_updated,65,54509,69,yes,1024
94,94,789,789,black,no,experiment,Mozilla,Netscape,"5.0 (Windows NT 10.0; Win64; x64) AppleWebKit/537.36 (KHTML, like Gecko) Chrome/94.0.4606.61 Safari/537.36",legacy,legacy,legacy,0,uniform,1,1,right,69,69,69,69,0,0,0,69,69,0,0,0,69,69,69,0,0,69,69,0,30-08-21,30-08-21,09:19:50,Thu Sep 30 2021 09:19:50 GMT+0200 (Central European Summer Time),The main experiment item,yes,0,0,/Users/ethan/Documents/GitHub/OpenSesame/Sternberg/experiment_files,0,0,0,no,mono,no,18,no,white,no,no,768,111,3.6.1,legacy,legacy,9 3 1 2 5,osweb,1.4.0,1,4,y,37,,0,right,rshift,,f11,right,right,right,750,62928,,2162,28198,24999,750,2,legacy,680,1280,24,720,24,0,0,1280,1632986447697,5,1024,2,48000,-16,experiment,1,odd,Win32,2,539253,389605,,536004,58,537031,530088,58,2230,103457,541270,538037,542021,58,541270,Sternberg_updated,66,55259,70,yes,1024
94,94,788,788,black,no,experiment,Mozilla,Netscape,"5.0 (Windows NT 10.0; Win64; x64) AppleWebKit/537.36 (KHTML, like Gecko) Chrome/94.0.4606.61 Safari/537.36",legacy,legacy,legacy,0,uniform,1,1,left,70,70,70,70,0,0,0,70,70,0,0,0,70,70,70,0,0,70,70,0,30-08-21,30-08-21,09:19:50,Thu Sep 30 2021 09:19:50 GMT+0200 (Central European Summer Time),The main experiment item,yes,0,0,/Users/ethan/Documents/GitHub/OpenSesame/Sternberg/experiment_files,0,0,0,no,mono,no,18,no,white,no,no,768,111,3.6.1,legacy,legacy,8 9,osweb,1.4.0,1,0,n,37,,0,left,rshift,,f11,right,right,left,675,62928,,2162,28198,24999,675,2,legacy,680,1280,24,720,24,0,0,1280,1632986447697,2,1024,2,48000,-16,experiment,1,odd,Win32,5,545271,389605,,542021,58,543047,530088,58,2230,103457,547287,544054,547970,58,547287,Sternberg_updated,67,55934,71,yes,1024
94,94,789,789,black,no,experiment,Mozilla,Netscape,"5.0 (Windows NT 10.0; Win64; x64) AppleWebKit/537.36 (KHTML, like Gecko) Chrome/94.0.4606.61 Safari/537.36",legacy,legacy,legacy,0,uniform,1,1,right,71,71,71,71,0,0,0,71,71,0,0,0,71,71,71,0,0,71,71,0,30-08-21,30-08-21,09:19:50,Thu Sep 30 2021 09:19:50 GMT+0200 (Central European Summer Time),The main experiment item,yes,0,0,/Users/ethan/Documents/GitHub/OpenSesame/Sternberg/experiment_files,0,0,0,no,mono,no,18,no,white,no,no,768,111,3.6.1,legacy,legacy,1 4 9 3 2 5,osweb,1.4.0,1,3,y,37,,0,right,rshift,,f11,right,right,right,862,62928,,2162,28198,24999,862,2,legacy,680,1280,24,720,24,0,0,1280,1632986447697,6,1024,2,48000,-16,experiment,1,odd,Win32,9,551220,389605,,547972,58,548998,530088,58,2230,103457,553237,550004,554103,58,553237,Sternberg_updated,68,56796,72,yes,1024
95,95,787,787,black,no,experiment,Mozilla,Netscape,"5.0 (Windows NT 10.0; Win64; x64) AppleWebKit/537.36 (KHTML, like Gecko) Chrome/94.0.4606.61 Safari/537.36",legacy,legacy,legacy,0,uniform,1,1,right,72,72,72,72,0,0,0,72,72,0,0,0,72,72,72,0,0,72,72,0,30-08-21,30-08-21,09:19:50,Thu Sep 30 2021 09:19:50 GMT+0200 (Central European Summer Time),The main experiment item,yes,0,0,/Users/ethan/Documents/GitHub/OpenSesame/Sternberg/experiment_files,0,0,0,no,mono,no,18,no,white,no,no,768,111,3.6.1,legacy,legacy,4 3 2 5 8,osweb,1.4.0,1,2,y,37,,0,right,rshift,,f11,right,right,right,661,62928,,2162,28198,24999,661,2,legacy,680,1280,24,720,24,0,0,1280,1632986447697,5,1024,2,48000,-16,experiment,1,odd,Win32,3,557354,389605,,554104,58,555131,530088,58,2230,103457,559370,556137,560037,58,559370,Sternberg_updated,69,57457,73,yes,1024
95,95,787,787,black,no,experiment,Mozilla,Netscape,"5.0 (Windows NT 10.0; Win64; x64) AppleWebKit/537.36 (KHTML, like Gecko) Chrome/94.0.4606.61 Safari/537.36",legacy,legacy,legacy,0,uniform,1,1,left,73,73,73,73,0,0,0,73,73,0,0,0,73,73,73,0,0,73,73,0,30-08-21,30-08-21,09:19:50,Thu Sep 30 2021 09:19:50 GMT+0200 (Central European Summer Time),The main experiment item,yes,0,0,/Users/ethan/Documents/GitHub/OpenSesame/Sternberg/experiment_files,0,0,0,no,mono,no,18,no,white,no,no,768,111,3.6.1,legacy,legacy,2 6 4 3 9,osweb,1.4.0,1,0,n,37,,0,left,rshift,,f11,right,right,left,800,62928,,2162,28198,24999,800,2,legacy,680,1280,24,720,24,0,0,1280,1632986447697,5,1024,2,48000,-16,experiment,1,odd,Win32,1,563287,389605,,560037,58,561066,530088,58,2230,103457,565304,562070,566120,58,565304,Sternberg_updated,70,58257,74,yes,1024
95,95,786,786,black,no,experiment,Mozilla,Netscape,"5.0 (Windows NT 10.0; Win64; x64) AppleWebKit/537.36 (KHTML, like Gecko) Chrome/94.0.4606.61 Safari/537.36",legacy,legacy,legacy,0,uniform,1,1,right,74,74,74,74,0,0,0,74,74,0,0,0,74,74,74,0,0,74,74,0,30-08-21,30-08-21,09:19:50,Thu Sep 30 2021 09:19:50 GMT+0200 (Central European Summer Time),The main experiment item,yes,0,0,/Users/ethan/Documents/GitHub/OpenSesame/Sternberg/experiment_files,0,0,0,no,mono,no,18,no,white,no,no,768,111,3.6.1,legacy,legacy,5 2 6,osweb,1.4.0,1,2,y,37,,0,right,rshift,,f11,right,right,right,666,62928,,2162,28198,24999,666,2,legacy,680,1280,24,720,24,0,0,1280,1632986447697,3,1024,2,48000,-16,experiment,1,odd,Win32,2,569370,389605,,566121,58,567148,530088,58,2230,103457,571387,568154,572055,58,571387,Sternberg_updated,71,58923,75,yes,1024
95,95,781,781,black,no,experiment,Mozilla,Netscape,"5.0 (Windows NT 10.0; Win64; x64) AppleWebKit/537.36 (KHTML, like Gecko) Chrome/94.0.4606.61 Safari/537.36",legacy,legacy,legacy,0,uniform,1,1,right,75,75,75,75,0,0,0,75,75,0,0,0,75,75,75,0,0,75,75,0,30-08-21,30-08-21,09:19:50,Thu Sep 30 2021 09:19:50 GMT+0200 (Central European Summer Time),The main experiment item,yes,0,0,/Users/ethan/Documents/GitHub/OpenSesame/Sternberg/experiment_files,0,0,0,no,mono,no,18,no,white,no,no,768,111,3.6.1,legacy,legacy,4 1 5,osweb,1.4.0,1,2,y,37,,0,right,rshift,,f11,right,right,right,433,62928,,2162,28198,24999,433,2,legacy,680,1280,24,720,24,0,0,1280,1632986447697,3,1024,2,48000,-16,experiment,1,odd,Win32,1,575303,389605,,572055,58,573081,530088,58,2230,103457,577320,574087,577753,58,577320,Sternberg_updated,72,59356,76,yes,1024
95,95,780,780,black,no,experiment,Mozilla,Netscape,"5.0 (Windows NT 10.0; Win64; x64) AppleWebKit/537.36 (KHTML, like Gecko) Chrome/94.0.4606.61 Safari/537.36",legacy,legacy,legacy,0,uniform,1,1,left,76,76,76,76,0,0,0,76,76,0,0,0,76,76,76,0,0,76,76,0,30-08-21,30-08-21,09:19:50,Thu Sep 30 2021 09:19:50 GMT+0200 (Central European Summer Time),The main experiment item,yes,0,0,/Users/ethan/Documents/GitHub/OpenSesame/Sternberg/experiment_files,0,0,0,no,mono,no,18,no,white,no,no,768,111,3.6.1,legacy,legacy,7 1 8 4 9 3,osweb,1.4.0,1,0,n,37,,0,left,rshift,,f11,right,right,left,686,62928,,2162,28198,24999,686,2,legacy,680,1280,24,720,24,0,0,1280,1632986447697,6,1024,2,48000,-16,experiment,1,odd,Win32,6,581004,389605,,577754,58,578780,530088,58,2230,103457,583020,579787,583720,58,583020,Sternberg_updated,73,60042,77,yes,1024
95,95,778,778,black,no,experiment,Mozilla,Netscape,"5.0 (Windows NT 10.0; Win64; x64) AppleWebKit/537.36 (KHTML, like Gecko) Chrome/94.0.4606.61 Safari/537.36",legacy,legacy,legacy,0,uniform,1,1,left,77,77,77,77,0,0,0,77,77,0,0,0,77,77,77,0,0,77,77,0,30-08-21,30-08-21,09:19:50,Thu Sep 30 2021 09:19:50 GMT+0200 (Central European Summer Time),The main experiment item,yes,0,0,/Users/ethan/Documents/GitHub/OpenSesame/Sternberg/experiment_files,0,0,0,no,mono,no,18,no,white,no,no,768,111,3.6.1,legacy,legacy,7 1,osweb,1.4.0,1,0,n,37,,0,left,rshift,,f11,right,right,left,618,62928,,2162,28198,24999,618,2,legacy,680,1280,24,720,24,0,0,1280,1632986447697,2,1024,2,48000,-16,experiment,1,odd,Win32,8,586970,389605,,583720,58,584748,530088,58,2230,103457,588987,585753,589620,58,588987,Sternberg_updated,74,60660,78,yes,1024
95,95,776,776,black,no,experiment,Mozilla,Netscape,"5.0 (Windows NT 10.0; Win64; x64) AppleWebKit/537.36 (KHTML, like Gecko) Chrome/94.0.4606.61 Safari/537.36",legacy,legacy,legacy,0,uniform,1,1,left,78,78,78,78,0,0,0,78,78,0,0,0,78,78,78,0,0,78,78,0,30-08-21,30-08-21,09:19:50,Thu Sep 30 2021 09:19:50 GMT+0200 (Central European Summer Time),The main experiment item,yes,0,0,/Users/ethan/Documents/GitHub/OpenSesame/Sternberg/experiment_files,0,0,0,no,mono,no,18,no,white,no,no,768,111,3.6.1,legacy,legacy,7 9,osweb,1.4.0,1,0,n,37,,0,left,rshift,,f11,right,right,left,679,62928,,2162,28198,24999,679,2,legacy,680,1280,24,720,24,0,0,1280,1632986447697,2,1024,2,48000,-16,experiment,1,odd,Win32,1,592870,389605,,589621,58,590648,530088,58,2230,103457,594887,591653,595570,58,594887,Sternberg_updated,75,61339,79,yes,1024
95,95,775,775,black,no,experiment,Mozilla,Netscape,"5.0 (Windows NT 10.0; Win64; x64) AppleWebKit/537.36 (KHTML, like Gecko) Chrome/94.0.4606.61 Safari/537.36",legacy,legacy,legacy,0,uniform,1,1,right,79,79,79,79,0,0,0,79,79,0,0,0,79,79,79,0,0,79,79,0,30-08-21,30-08-21,09:19:50,Thu Sep 30 2021 09:19:50 GMT+0200 (Central European Summer Time),The main experiment item,yes,0,0,/Users/ethan/Documents/GitHub/OpenSesame/Sternberg/experiment_files,0,0,0,no,mono,no,18,no,white,no,no,768,111,3.6.1,legacy,legacy,6 7 8 5,osweb,1.4.0,1,3,y,37,,0,right,rshift,,f11,right,right,right,694,62928,,2162,28198,24999,694,2,legacy,680,1280,24,720,24,0,0,1280,1632986447697,4,1024,2,48000,-16,experiment,1,odd,Win32,8,598820,389605,,595570,58,596598,530088,58,2230,103457,600837,597604,601536,58,600837,Sternberg_updated,76,62033,80,yes,1024
95,95,773,773,black,no,experiment,Mozilla,Netscape,"5.0 (Windows NT 10.0; Win64; x64) AppleWebKit/537.36 (KHTML, like Gecko) Chrome/94.0.4606.61 Safari/537.36",legacy,legacy,legacy,0,uniform,1,1,left,80,80,80,80,0,0,0,80,80,0,0,0,80,80,80,0,0,80,80,0,30-08-21,30-08-21,09:19:50,Thu Sep 30 2021 09:19:50 GMT+0200 (Central European Summer Time),The main experiment item,yes,0,0,/Users/ethan/Documents/GitHub/OpenSesame/Sternberg/experiment_files,0,0,0,no,mono,no,18,no,white,no,no,768,111,3.6.1,legacy,legacy,2 7 5,osweb,1.4.0,1,0,n,37,,0,left,rshift,,f11,right,right,left,607,62928,,2162,28198,24999,607,2,legacy,680,1280,24,720,24,0,0,1280,1632986447697,3,1024,2,48000,-16,experiment,1,odd,Win32,8,604786,389605,,601537,58,602564,530088,58,2230,103457,606803,603570,607420,58,606803,Sternberg_updated,77,62640,81,yes,1024
95,95,771,771,black,no,experiment,Mozilla,Netscape,"5.0 (Windows NT 10.0; Win64; x64) AppleWebKit/537.36 (KHTML, like Gecko) Chrome/94.0.4606.61 Safari/537.36",legacy,legacy,legacy,0,uniform,1,1,left,81,81,81,81,0,0,0,81,81,0,0,0,81,81,81,0,0,81,81,0,30-08-21,30-08-21,09:19:50,Thu Sep 30 2021 09:19:50 GMT+0200 (Central European Summer Time),The main experiment item,yes,0,0,/Users/ethan/Documents/GitHub/OpenSesame/Sternberg/experiment_files,0,0,0,no,mono,no,18,no,white,no,no,768,111,3.6.1,legacy,legacy,1 4 9 3,osweb,1.4.0,1,0,n,37,,0,left,rshift,,f11,right,right,left,571,62928,,2162,28198,24999,571,2,legacy,680,1280,24,720,24,0,0,1280,1632986447697,4,1024,2,48000,-16,experiment,1,odd,Win32,5,610670,389605,,607421,58,608448,530088,58,2230,103457,612687,609453,613270,58,612687,Sternberg_updated,78,63211,82,yes,1024
95,95,770,770,black,no,experiment,Mozilla,Netscape,"5.0 (Windows NT 10.0; Win64; x64) AppleWebKit/537.36 (KHTML, like Gecko) Chrome/94.0.4606.61 Safari/537.36",legacy,legacy,legacy,0,uniform,1,1,left,82,82,82,82,0,0,0,82,82,0,0,0,82,82,82,0,0,82,82,0,30-08-21,30-08-21,09:19:50,Thu Sep 30 2021 09:19:50 GMT+0200 (Central European Summer Time),The main experiment item,yes,0,0,/Users/ethan/Documents/GitHub/OpenSesame/Sternberg/experiment_files,0,0,0,no,mono,no,18,no,white,no,no,768,111,3.6.1,legacy,legacy,8 5 4 2 9 6,osweb,1.4.0,1,0,n,37,,0,left,rshift,,f11,right,right,left,693,62928,,2162,28198,24999,693,2,legacy,680,1280,24,720,24,0,0,1280,1632986447697,6,1024,2,48000,-16,experiment,1,odd,Win32,3,616520,389605,,613270,58,614299,530088,58,2230,103457,618537,615303,619236,58,618537,Sternberg_updated,79,63904,83,yes,1024
95,95,768,768,black,no,experiment,Mozilla,Netscape,"5.0 (Windows NT 10.0; Win64; x64) AppleWebKit/537.36 (KHTML, like Gecko) Chrome/94.0.4606.61 Safari/537.36",legacy,legacy,legacy,0,uniform,1,1,right,83,83,83,83,0,0,0,83,83,0,0,0,83,83,83,0,0,83,83,0,30-08-21,30-08-21,09:19:50,Thu Sep 30 2021 09:19:50 GMT+0200 (Central European Summer Time),The main experiment item,yes,0,0,/Users/ethan/Documents/GitHub/OpenSesame/Sternberg/experiment_files,0,0,0,no,mono,no,18,no,white,no,no,768,111,3.6.1,legacy,legacy,3 5 9 6 2 4,osweb,1.4.0,1,1,y,37,,0,right,rshift,,f11,right,right,right,615,62928,,2162,28198,24999,615,2,legacy,680,1280,24,720,24,0,0,1280,1632986447697,6,1024,2,48000,-16,experiment,1,odd,Win32,3,622486,389605,,619237,58,620264,530088,58,2230,103457,624503,621270,625119,58,624503,Sternberg_updated,80,64519,84,yes,1024
95,95,766,766,black,no,experiment,Mozilla,Netscape,"5.0 (Windows NT 10.0; Win64; x64) AppleWebKit/537.36 (KHTML, like Gecko) Chrome/94.0.4606.61 Safari/537.36",legacy,legacy,legacy,0,uniform,1,1,right,84,84,84,84,0,0,0,84,84,0,0,0,84,84,84,0,0,84,84,0,30-08-21,30-08-21,09:19:50,Thu Sep 30 2021 09:19:50 GMT+0200 (Central European Summer Time),The main experiment item,yes,0,0,/Users/ethan/Documents/GitHub/OpenSesame/Sternberg/experiment_files,0,0,0,no,mono,no,18,no,white,no,no,768,111,3.6.1,legacy,legacy,7 2 3,osweb,1.4.0,1,3,y,37,,0,right,rshift,,f11,right,right,right,584,62928,,2162,28198,24999,584,2,legacy,680,1280,24,720,24,0,0,1280,1632986447697,3,1024,2,48000,-16,experiment,1,odd,Win32,3,628370,389605,,625120,58,626149,530088,58,2230,103457,630387,627153,630986,58,630387,Sternberg_updated,81,65103,85,yes,1024
95,95,762,762,black,no,experiment,Mozilla,Netscape,"5.0 (Windows NT 10.0; Win64; x64) AppleWebKit/537.36 (KHTML, like Gecko) Chrome/94.0.4606.61 Safari/537.36",legacy,legacy,legacy,0,uniform,1,1,right,85,85,85,85,0,0,0,85,85,0,0,0,85,85,85,0,0,85,85,0,30-08-21,30-08-21,09:19:50,Thu Sep 30 2021 09:19:50 GMT+0200 (Central European Summer Time),The main experiment item,yes,0,0,/Users/ethan/Documents/GitHub/OpenSesame/Sternberg/experiment_files,0,0,0,no,mono,no,18,no,white,no,no,768,111,3.6.1,legacy,legacy,6 8 9 3 4 9,osweb,1.4.0,1,5,y,37,,0,right,rshift,,f11,right,right,right,467,62928,,2162,28198,24999,467,2,legacy,680,1280,24,720,24,0,0,1280,1632986447697,6,1024,2,48000,-16,experiment,1,odd,Win32,4,634236,389605,,630987,58,632014,530088,58,2230,103457,636253,633020,636736,58,636253,Sternberg_updated,82,65570,86,yes,1024
95,95,759,759,black,no,experiment,Mozilla,Netscape,"5.0 (Windows NT 10.0; Win64; x64) AppleWebKit/537.36 (KHTML, like Gecko) Chrome/94.0.4606.61 Safari/537.36",legacy,legacy,legacy,0,uniform,1,1,left,86,86,86,86,0,0,0,86,86,0,0,0,86,86,86,0,0,86,86,0,30-08-21,30-08-21,09:19:50,Thu Sep 30 2021 09:19:50 GMT+0200 (Central European Summer Time),The main experiment item,yes,0,0,/Users/ethan/Documents/GitHub/OpenSesame/Sternberg/experiment_files,0,0,0,no,mono,no,18,no,white,no,no,768,111,3.6.1,legacy,legacy,7 4 2 8 1 9,osweb,1.4.0,1,0,n,37,,0,left,rshift,,f11,right,right,left,486,62928,,2162,28198,24999,486,2,legacy,680,1280,24,720,24,0,0,1280,1632986447697,6,1024,2,48000,-16,experiment,1,odd,Win32,5,639986,389605,,636737,58,637765,530088,58,2230,103457,642003,638770,642503,58,642003,Sternberg_updated,83,66056,87,yes,1024
95,95,756,756,black,no,experiment,Mozilla,Netscape,"5.0 (Windows NT 10.0; Win64; x64) AppleWebKit/537.36 (KHTML, like Gecko) Chrome/94.0.4606.61 Safari/537.36",legacy,legacy,legacy,0,uniform,1,1,right,87,87,87,87,0,0,0,87,87,0,0,0,87,87,87,0,0,87,87,0,30-08-21,30-08-21,09:19:50,Thu Sep 30 2021 09:19:50 GMT+0200 (Central European Summer Time),The main experiment item,yes,0,0,/Users/ethan/Documents/GitHub/OpenSesame/Sternberg/experiment_files,0,0,0,no,mono,no,18,no,white,no,no,768,111,3.6.1,legacy,legacy,8 3,osweb,1.4.0,1,2,y,37,,0,right,rshift,,f11,right,right,right,457,62928,,2162,28198,24999,457,2,legacy,680,1280,24,720,24,0,0,1280,1632986447697,2,1024,2,48000,-16,experiment,1,odd,Win32,3,645753,389605,,642504,58,643532,530088,58,2230,103457,647770,644537,648236,58,647770,Sternberg_updated,84,66513,88,yes,1024
96,96,753,753,black,no,experiment,Mozilla,Netscape,"5.0 (Windows NT 10.0; Win64; x64) AppleWebKit/537.36 (KHTML, like Gecko) Chrome/94.0.4606.61 Safari/537.36",legacy,legacy,legacy,0,uniform,1,1,right,88,88,88,88,0,0,0,88,88,0,0,0,88,88,88,0,0,88,88,0,30-08-21,30-08-21,09:19:50,Thu Sep 30 2021 09:19:50 GMT+0200 (Central European Summer Time),The main experiment item,yes,0,0,/Users/ethan/Documents/GitHub/OpenSesame/Sternberg/experiment_files,0,0,0,no,mono,no,18,no,white,no,no,768,111,3.6.1,legacy,legacy,4 1 8 7 5,osweb,1.4.0,1,3,y,37,,0,right,rshift,,f11,right,right,right,520,62928,,2162,28198,24999,520,2,legacy,680,1280,24,720,24,0,0,1280,1632986447697,5,1024,2,48000,-16,experiment,1,odd,Win32,8,651486,389605,,648237,58,649263,530088,58,2230,103457,653503,650270,654036,58,653503,Sternberg_updated,85,67033,89,yes,1024
96,96,752,752,black,no,experiment,Mozilla,Netscape,"5.0 (Windows NT 10.0; Win64; x64) AppleWebKit/537.36 (KHTML, like Gecko) Chrome/94.0.4606.61 Safari/537.36",legacy,legacy,legacy,0,uniform,1,1,left,89,89,89,89,0,0,0,89,89,0,0,0,89,89,89,0,0,89,89,0,30-08-21,30-08-21,09:19:50,Thu Sep 30 2021 09:19:50 GMT+0200 (Central European Summer Time),The main experiment item,yes,0,0,/Users/ethan/Documents/GitHub/OpenSesame/Sternberg/experiment_files,0,0,0,no,mono,no,18,no,white,no,no,768,111,3.6.1,legacy,legacy,3 9 1,osweb,1.4.0,1,0,n,37,,0,left,rshift,,f11,right,right,left,648,62928,,2162,28198,24999,648,2,legacy,680,1280,24,720,24,0,0,1280,1632986447697,3,1024,2,48000,-16,experiment,1,odd,Win32,7,657286,389605,,654037,58,655064,530088,58,2230,103457,659303,656070,659953,58,659303,Sternberg_updated,86,67681,90,yes,1024
96,96,750,750,black,no,experiment,Mozilla,Netscape,"5.0 (Windows NT 10.0; Win64; x64) AppleWebKit/537.36 (KHTML, like Gecko) Chrome/94.0.4606.61 Safari/537.36",legacy,legacy,legacy,0,uniform,1,1,left,90,90,90,90,0,0,0,90,90,0,0,0,90,90,90,0,0,90,90,0,30-08-21,30-08-21,09:19:50,Thu Sep 30 2021 09:19:50 GMT+0200 (Central European Summer Time),The main experiment item,yes,0,0,/Users/ethan/Documents/GitHub/OpenSesame/Sternberg/experiment_files,0,0,0,no,mono,no,18,no,white,no,no,768,111,3.6.1,legacy,legacy,9 5 3 2 8 6,osweb,1.4.0,1,0,n,37,,0,left,rshift,,f11,right,right,left,540,62928,,2162,28198,24999,540,2,legacy,680,1280,24,720,24,0,0,1280,1632986447697,6,1024,2,48000,-16,experiment,1,odd,Win32,7,663203,389605,,659954,58,660981,530088,58,2230,103457,665220,661987,665770,58,665220,Sternberg_updated,87,68221,91,yes,1024
96,96,749,749,black,no,experiment,Mozilla,Netscape,"5.0 (Windows NT 10.0; Win64; x64) AppleWebKit/537.36 (KHTML, like Gecko) Chrome/94.0.4606.61 Safari/537.36",legacy,legacy,legacy,0,uniform,1,1,right,91,91,91,91,0,0,0,91,91,0,0,0,91,91,91,0,0,91,91,0,30-08-21,30-08-21,09:19:50,Thu Sep 30 2021 09:19:50 GMT+0200 (Central European Summer Time),The main experiment item,yes,0,0,/Users/ethan/Documents/GitHub/OpenSesame/Sternberg/experiment_files,0,0,0,no,mono,no,18,no,white,no,no,768,111,3.6.1,legacy,legacy,8 5 3 7 4 6,osweb,1.4.0,1,6,y,37,,0,right,rshift,,f11,right,right,right,686,62928,,2162,28198,24999,686,2,legacy,680,1280,24,720,24,0,0,1280,1632986447697,6,1024,2,48000,-16,experiment,1,odd,Win32,6,669036,389605,,665770,58,666803,530088,58,2230,103457,671053,667820,671753,58,671053,Sternberg_updated,88,68907,92,yes,1024
96,96,746,746,black,no,experiment,Mozilla,Netscape,"5.0 (Windows NT 10.0; Win64; x64) AppleWebKit/537.36 (KHTML, like Gecko) Chrome/94.0.4606.61 Safari/537.36",legacy,legacy,legacy,0,uniform,1,1,right,92,92,92,92,0,0,0,92,92,0,0,0,92,92,92,0,0,92,92,0,30-08-21,30-08-21,09:19:50,Thu Sep 30 2021 09:19:50 GMT+0200 (Central European Summer Time),The main experiment item,yes,0,0,/Users/ethan/Documents/GitHub/OpenSesame/Sternberg/experiment_files,0,0,0,no,mono,no,18,no,white,no,no,768,111,3.6.1,legacy,legacy,9 4 2,osweb,1.4.0,1,1,y,37,,0,right,rshift,,f11,right,right,right,498,62928,,2162,28198,24999,498,2,legacy,680,1280,24,720,24,0,0,1280,1632986447697,3,1024,2,48000,-16,experiment,1,odd,Win32,9,675003,389605,,671754,58,672783,530088,58,2230,103457,677020,673786,677519,58,677020,Sternberg_updated,89,69405,93,yes,1024
95,95,745,745,black,no,experiment,Mozilla,Netscape,"5.0 (Windows NT 10.0; Win64; x64) AppleWebKit/537.36 (KHTML, like Gecko) Chrome/94.0.4606.61 Safari/537.36",legacy,legacy,legacy,0,uniform,0,0,left,93,93,93,93,0,0,0,93,93,0,0,0,93,93,93,0,0,93,93,0,30-08-21,30-08-21,09:19:50,Thu Sep 30 2021 09:19:50 GMT+0200 (Central European Summer Time),The main experiment item,yes,0,0,/Users/ethan/Documents/GitHub/OpenSesame/Sternberg/experiment_files,0,0,0,no,mono,no,18,no,white,no,no,768,111,3.6.1,legacy,legacy,5 9 2 3,osweb,1.4.0,1,0,n,37,,0,right,rshift,,f11,right,right,right,607,62928,,2162,28198,24999,607,2,legacy,680,1280,24,720,24,0,0,1280,1632986447697,4,1024,2,48000,-16,experiment,1,odd,Win32,8,680770,389605,,677520,58,678547,530088,58,2230,103457,682786,679553,683403,58,682786,Sternberg_updated,89,70012,94,yes,1024
95,95,744,744,black,no,experiment,Mozilla,Netscape,"5.0 (Windows NT 10.0; Win64; x64) AppleWebKit/537.36 (KHTML, like Gecko) Chrome/94.0.4606.61 Safari/537.36",legacy,legacy,legacy,0,uniform,1,1,right,94,94,94,94,0,0,0,94,94,0,0,0,94,94,94,0,0,94,94,0,30-08-21,30-08-21,09:19:50,Thu Sep 30 2021 09:19:50 GMT+0200 (Central European Summer Time),The main experiment item,yes,0,0,/Users/ethan/Documents/GitHub/OpenSesame/Sternberg/experiment_files,0,0,0,no,mono,no,18,no,white,no,no,768,111,3.6.1,legacy,legacy,9 5 8 1,osweb,1.4.0,1,2,y,37,,0,right,rshift,,f11,right,right,right,637,62928,,2162,28198,24999,637,2,legacy,680,1280,24,720,24,0,0,1280,1632986447697,4,1024,2,48000,-16,experiment,1,odd,Win32,5,686653,389605,,677520,58,684432,683404,58,2230,103457,688670,685436,689319,58,688670,Sternberg_updated,90,70649,95,yes,1024
95,95,744,744,black,no,experiment,Mozilla,Netscape,"5.0 (Windows NT 10.0; Win64; x64) AppleWebKit/537.36 (KHTML, like Gecko) Chrome/94.0.4606.61 Safari/537.36",legacy,legacy,legacy,0,uniform,1,1,right,95,95,95,95,0,0,0,95,95,0,0,0,95,95,95,0,0,95,95,0,30-08-21,30-08-21,09:19:50,Thu Sep 30 2021 09:19:50 GMT+0200 (Central European Summer Time),The main experiment item,yes,0,0,/Users/ethan/Documents/GitHub/OpenSesame/Sternberg/experiment_files,0,0,0,no,mono,no,18,no,white,no,no,768,111,3.6.1,legacy,legacy,8 9 5 7 1 6,osweb,1.4.0,1,4,y,37,,0,right,rshift,,f11,right,right,right,815,62928,,2162,28198,24999,815,2,legacy,680,1280,24,720,24,0,0,1280,1632986447697,6,1024,2,48000,-16,experiment,1,odd,Win32,7,692570,389605,,689320,58,690348,683404,58,2230,103457,694586,691353,695403,58,694586,Sternberg_updated,91,71464,96,yes,1024
95,95,741,741,black,no,experiment,Mozilla,Netscape,"5.0 (Windows NT 10.0; Win64; x64) AppleWebKit/537.36 (KHTML, like Gecko) Chrome/94.0.4606.61 Safari/537.36",legacy,legacy,legacy,0,uniform,1,1,right,96,96,96,96,0,0,0,96,96,0,0,0,96,96,96,0,0,96,96,0,30-08-21,30-08-21,09:19:50,Thu Sep 30 2021 09:19:50 GMT+0200 (Central European Summer Time),The main experiment item,yes,0,0,/Users/ethan/Documents/GitHub/OpenSesame/Sternberg/experiment_files,0,0,0,no,mono,no,18,no,white,no,no,768,111,3.6.1,legacy,legacy,4,osweb,1.4.0,1,1,y,37,,0,right,rshift,,f11,right,right,right,452,62928,,2162,28198,24999,452,2,legacy,680,1280,24,720,24,0,0,1280,1632986447697,1,1024,2,48000,-16,experiment,1,odd,Win32,4,698653,389605,,695403,58,696432,683404,58,2230,103457,700670,697436,701136,58,700670,Sternberg_updated,92,71916,97,yes,1024
95,95,739,739,black,no,experiment,Mozilla,Netscape,"5.0 (Windows NT 10.0; Win64; x64) AppleWebKit/537.36 (KHTML, like Gecko) Chrome/94.0.4606.61 Safari/537.36",legacy,legacy,legacy,0,uniform,1,1,left,97,97,97,97,0,0,0,97,97,0,0,0,97,97,97,0,0,97,97,0,30-08-21,30-08-21,09:19:50,Thu Sep 30 2021 09:19:50 GMT+0200 (Central European Summer Time),The main experiment item,yes,0,0,/Users/ethan/Documents/GitHub/OpenSesame/Sternberg/experiment_files,0,0,0,no,mono,no,18,no,white,no,no,768,111,3.6.1,legacy,legacy,8 4 3 5,osweb,1.4.0,1,0,n,37,,0,left,rshift,right,f11,right,right,left,530,62928,74221,2162,28198,24999,530,2,legacy,680,1280,24,720,24,0,0,1280,1632986447697,4,1024,2,48000,-16,experiment,1,odd,Win32,6,778619,389605,702153,701137,58,776398,683404,58,2230,103457,780636,777403,781169,58,780636,Sternberg_updated,93,72446,98,yes,1024
95,95,739,739,black,no,experiment,Mozilla,Netscape,"5.0 (Windows NT 10.0; Win64; x64) AppleWebKit/537.36 (KHTML, like Gecko) Chrome/94.0.4606.61 Safari/537.36",legacy,legacy,legacy,0,uniform,1,1,right,98,98,98,98,0,0,0,98,98,0,0,0,98,98,98,0,0,98,98,0,30-08-21,30-08-21,09:19:50,Thu Sep 30 2021 09:19:50 GMT+0200 (Central European Summer Time),The main experiment item,yes,0,0,/Users/ethan/Documents/GitHub/OpenSesame/Sternberg/experiment_files,0,0,0,no,mono,no,18,no,white,no,no,768,111,3.6.1,legacy,legacy,3 4 9 6 2 9,osweb,1.4.0,1,5,y,37,,0,right,rshift,right,f11,right,right,right,764,62928,74221,2162,28198,24999,764,2,legacy,680,1280,24,720,24,0,0,1280,1632986447697,6,1024,2,48000,-16,experiment,1,odd,Win32,2,784419,389605,702153,781170,58,782196,683404,58,2230,103457,786436,783202,787202,58,786436,Sternberg_updated,94,73210,99,yes,1024
94,94,745,745,black,no,experiment,Mozilla,Netscape,"5.0 (Windows NT 10.0; Win64; x64) AppleWebKit/537.36 (KHTML, like Gecko) Chrome/94.0.4606.61 Safari/537.36",legacy,legacy,legacy,0,uniform,0,0,right,99,99,99,99,0,0,0,99,99,0,0,0,99,99,99,0,0,99,99,0,30-08-21,30-08-21,09:19:50,Thu Sep 30 2021 09:19:50 GMT+0200 (Central European Summer Time),The main experiment item,yes,0,0,/Users/ethan/Documents/GitHub/OpenSesame/Sternberg/experiment_files,0,0,0,no,mono,no,18,no,white,no,no,768,111,3.6.1,legacy,legacy,8 5 4 7 3 1,osweb,1.4.0,1,2,y,37,,0,left,rshift,right,f11,right,right,left,1269,62928,74221,2162,28198,24999,1269,2,legacy,680,1280,24,720,24,0,0,1280,1632986447697,6,1024,2,48000,-16,experiment,1,odd,Win32,5,790453,389605,702153,787203,58,788232,683404,58,2230,103457,792469,789236,793752,58,792469,Sternberg_updated,94,74479,100,yes,1024
94,94,745,745,black,no,experiment,Mozilla,Netscape,"5.0 (Windows NT 10.0; Win64; x64) AppleWebKit/537.36 (KHTML, like Gecko) Chrome/94.0.4606.61 Safari/537.36",legacy,legacy,legacy,0,uniform,1,1,right,100,100,100,100,0,0,0,100,100,0,0,0,100,100,100,0,0,100,100,0,30-08-21,30-08-21,09:19:50,Thu Sep 30 2021 09:19:50 GMT+0200 (Central European Summer Time),The main experiment item,yes,0,0,/Users/ethan/Documents/GitHub/OpenSesame/Sternberg/experiment_files,0,0,0,no,mono,no,18,no,white,no,no,768,111,3.6.1,legacy,legacy,8 1 6,osweb,1.4.0,1,3,y,37,,0,right,rshift,right,f11,right,right,right,808,62928,74221,2162,28198,24999,808,2,legacy,680,1280,24,720,24,0,0,1280,1632986447697,3,1024,2,48000,-16,experiment,1,odd,Win32,6,797002,389605,702153,787203,58,794780,793754,58,2230,103457,799019,795786,799835,58,799019,Sternberg_updated,95,75287,101,yes,1024
94,94,743,743,black,no,experiment,Mozilla,Netscape,"5.0 (Windows NT 10.0; Win64; x64) AppleWebKit/537.36 (KHTML, like Gecko) Chrome/94.0.4606.61 Safari/537.36",legacy,legacy,legacy,0,uniform,1,1,right,101,101,101,101,0,0,0,101,101,0,0,0,101,101,101,0,0,101,101,0,30-08-21,30-08-21,09:19:50,Thu Sep 30 2021 09:19:50 GMT+0200 (Central European Summer Time),The main experiment item,yes,0,0,/Users/ethan/Documents/GitHub/OpenSesame/Sternberg/experiment_files,0,0,0,no,mono,no,18,no,white,no,no,768,111,3.6.1,legacy,legacy,4 7 6 8 2 3,osweb,1.4.0,1,6,y,37,,0,right,rshift,right,f11,right,right,right,470,62928,74221,2162,28198,24999,470,2,legacy,680,1280,24,720,24,0,0,1280,1632986447697,6,1024,2,48000,-16,experiment,1,odd,Win32,3,803086,389605,702153,799836,58,800863,793754,58,2230,103457,805102,801869,805585,58,805102,Sternberg_updated,96,75757,102,yes,1024
94,94,746,746,black,no,experiment,Mozilla,Netscape,"5.0 (Windows NT 10.0; Win64; x64) AppleWebKit/537.36 (KHTML, like Gecko) Chrome/94.0.4606.61 Safari/537.36",legacy,legacy,legacy,0,uniform,1,1,left,102,102,102,102,0,0,0,102,102,0,0,0,102,102,102,0,0,102,102,0,30-08-21,30-08-21,09:19:50,Thu Sep 30 2021 09:19:50 GMT+0200 (Central European Summer Time),The main experiment item,yes,0,0,/Users/ethan/Documents/GitHub/OpenSesame/Sternberg/experiment_files,0,0,0,no,mono,no,18,no,white,no,no,768,111,3.6.1,legacy,legacy,2 8 9,osweb,1.4.0,1,0,n,37,,0,left,rshift,right,f11,right,right,left,1049,62928,74221,2162,28198,24999,1049,2,legacy,680,1280,24,720,24,0,0,1280,1632986447697,3,1024,2,48000,-16,experiment,1,odd,Win32,6,808836,389605,702153,805586,58,806614,793754,58,2230,103457,810853,807619,811903,58,810853,Sternberg_updated,97,76806,103,yes,1024
94,94,744,744,black,no,experiment,Mozilla,Netscape,"5.0 (Windows NT 10.0; Win64; x64) AppleWebKit/537.36 (KHTML, like Gecko) Chrome/94.0.4606.61 Safari/537.36",legacy,legacy,legacy,0,uniform,1,1,left,103,103,103,103,0,0,0,103,103,0,0,0,103,103,103,0,0,103,103,0,30-08-21,30-08-21,09:19:50,Thu Sep 30 2021 09:19:50 GMT+0200 (Central European Summer Time),The main experiment item,yes,0,0,/Users/ethan/Documents/GitHub/OpenSesame/Sternberg/experiment_files,0,0,0,no,mono,no,18,no,white,no,no,768,111,3.6.1,legacy,legacy,7 8 6 1,osweb,1.4.0,1,0,n,37,,0,left,rshift,right,f11,right,right,left,621,62928,74221,2162,28198,24999,621,2,legacy,680,1280,24,720,24,0,0,1280,1632986447697,4,1024,2,48000,-16,experiment,1,odd,Win32,3,815153,389605,702153,811904,58,812930,793754,58,2230,103457,817169,813936,817802,58,817169,Sternberg_updated,98,77427,104,yes,1024
94,94,744,744,black,no,experiment,Mozilla,Netscape,"5.0 (Windows NT 10.0; Win64; x64) AppleWebKit/537.36 (KHTML, like Gecko) Chrome/94.0.4606.61 Safari/537.36",legacy,legacy,legacy,0,uniform,1,1,left,104,104,104,104,0,0,0,104,104,0,0,0,104,104,104,0,0,104,104,0,30-08-21,30-08-21,09:19:50,Thu Sep 30 2021 09:19:50 GMT+0200 (Central European Summer Time),The main experiment item,yes,0,0,/Users/ethan/Documents/GitHub/OpenSesame/Sternberg/experiment_files,0,0,0,no,mono,no,18,no,white,no,no,768,111,3.6.1,legacy,legacy,7 6 4 8 1 2,osweb,1.4.0,1,0,n,37,,0,left,rshift,right,f11,right,right,left,682,62928,74221,2162,28198,24999,682,2,legacy,680,1280,24,720,24,0,0,1280,1632986447697,6,1024,2,48000,-16,experiment,1,odd,Win32,9,821052,389605,702153,817803,58,818829,793754,58,2230,103457,823069,819836,823752,58,823069,Sternberg_updated,99,78109,105,yes,1024
94,94,741,741,black,no,experiment,Mozilla,Netscape,"5.0 (Windows NT 10.0; Win64; x64) AppleWebKit/537.36 (KHTML, like Gecko) Chrome/94.0.4606.61 Safari/537.36",legacy,legacy,legacy,0,uniform,1,1,left,105,105,105,105,0,0,0,105,105,0,0,0,105,105,105,0,0,105,105,0,30-08-21,30-08-21,09:19:50,Thu Sep 30 2021 09:19:50 GMT+0200 (Central European Summer Time),The main experiment item,yes,0,0,/Users/ethan/Documents/GitHub/OpenSesame/Sternberg/experiment_files,0,0,0,no,mono,no,18,no,white,no,no,768,111,3.6.1,legacy,legacy,4 1,osweb,1.4.0,1,0,n,37,,0,left,rshift,right,f11,right,right,left,475,62928,74221,2162,28198,24999,475,2,legacy,680,1280,24,720,24,0,0,1280,1632986447697,2,1024,2,48000,-16,experiment,1,odd,Win32,6,827002,389605,702153,823753,58,824783,793754,58,2230,103457,829019,825786,829502,58,829019,Sternberg_updated,100,78584,106,yes,1024
94,94,740,740,black,no,experiment,Mozilla,Netscape,"5.0 (Windows NT 10.0; Win64; x64) AppleWebKit/537.36 (KHTML, like Gecko) Chrome/94.0.4606.61 Safari/537.36",legacy,legacy,legacy,0,uniform,1,1,left,106,106,106,106,0,0,0,106,106,0,0,0,106,106,106,0,0,106,106,0,30-08-21,30-08-21,09:19:50,Thu Sep 30 2021 09:19:50 GMT+0200 (Central European Summer Time),The main experiment item,yes,0,0,/Users/ethan/Documents/GitHub/OpenSesame/Sternberg/experiment_files,0,0,0,no,mono,no,18,no,white,no,no,768,111,3.6.1,legacy,legacy,6 3 1 7 9 8,osweb,1.4.0,1,0,n,37,,0,left,rshift,right,f11,right,right,left,579,62928,74221,2162,28198,24999,579,2,legacy,680,1280,24,720,24,0,0,1280,1632986447697,6,1024,2,48000,-16,experiment,1,odd,Win32,4,832752,389605,702153,829503,58,830530,793754,58,2230,103457,834769,831536,835352,58,834769,Sternberg_updated,101,79163,107,yes,1024
94,94,740,740,black,no,experiment,Mozilla,Netscape,"5.0 (Windows NT 10.0; Win64; x64) AppleWebKit/537.36 (KHTML, like Gecko) Chrome/94.0.4606.61 Safari/537.36",legacy,legacy,legacy,0,uniform,1,1,right,107,107,107,107,0,0,0,107,107,0,0,0,107,107,107,0,0,107,107,0,30-08-21,30-08-21,09:19:50,Thu Sep 30 2021 09:19:50 GMT+0200 (Central European Summer Time),The main experiment item,yes,0,0,/Users/ethan/Documents/GitHub/OpenSesame/Sternberg/experiment_files,0,0,0,no,mono,no,18,no,white,no,no,768,111,3.6.1,legacy,legacy,4 6 2 5 1,osweb,1.4.0,1,5,y,37,,0,right,rshift,right,f11,right,right,right,785,62928,74221,2162,28198,24999,785,2,legacy,680,1280,24,720,24,0,0,1280,1632986447697,5,1024,2,48000,-16,experiment,1,odd,Win32,1,838602,389605,702153,835353,58,836381,793754,58,2230,103457,840619,837387,841419,58,840619,Sternberg_updated,102,79948,108,yes,1024
94,94,739,739,black,no,experiment,Mozilla,Netscape,"5.0 (Windows NT 10.0; Win64; x64) AppleWebKit/537.36 (KHTML, like Gecko) Chrome/94.0.4606.61 Safari/537.36",legacy,legacy,legacy,0,uniform,1,1,left,108,108,108,108,0,0,0,108,108,0,0,0,108,108,108,0,0,108,108,0,30-08-21,30-08-21,09:19:50,Thu Sep 30 2021 09:19:50 GMT+0200 (Central European Summer Time),The main experiment item,yes,0,0,/Users/ethan/Documents/GitHub/OpenSesame/Sternberg/experiment_files,0,0,0,no,mono,no,18,no,white,no,no,768,111,3.6.1,legacy,legacy,4 2 7 6 1 3,osweb,1.4.0,1,0,n,37,,0,left,rshift,right,f11,right,right,left,603,62928,74221,2162,28198,24999,603,2,legacy,680,1280,24,720,24,0,0,1280,1632986447697,6,1024,2,48000,-16,experiment,1,odd,Win32,8,844669,389605,702153,841420,58,842447,793754,58,2230,103457,846686,843452,847302,58,846686,Sternberg_updated,103,80551,109,yes,1024
95,95,738,738,black,no,experiment,Mozilla,Netscape,"5.0 (Windows NT 10.0; Win64; x64) AppleWebKit/537.36 (KHTML, like Gecko) Chrome/94.0.4606.61 Safari/537.36",legacy,legacy,legacy,0,uniform,1,1,right,109,109,109,109,0,0,0,109,109,0,0,0,109,109,109,0,0,109,109,0,30-08-21,30-08-21,09:19:50,Thu Sep 30 2021 09:19:50 GMT+0200 (Central European Summer Time),The main experiment item,yes,0,0,/Users/ethan/Documents/GitHub/OpenSesame/Sternberg/experiment_files,0,0,0,no,mono,no,18,no,white,no,no,768,111,3.6.1,legacy,legacy,6 2,osweb,1.4.0,1,1,y,37,,0,right,rshift,right,f11,right,right,right,640,62928,74221,2162,28198,24999,640,2,legacy,680,1280,24,720,24,0,0,1280,1632986447697,2,1024,2,48000,-16,experiment,1,odd,Win32,6,850552,389605,702153,847303,58,848330,793754,58,2230,103457,852569,849336,853219,58,852569,Sternberg_updated,104,81191,110,yes,1024
95,95,739,739,black,no,experiment,Mozilla,Netscape,"5.0 (Windows NT 10.0; Win64; x64) AppleWebKit/537.36 (KHTML, like Gecko) Chrome/94.0.4606.61 Safari/537.36",legacy,legacy,legacy,0,uniform,1,1,left,110,110,110,110,0,0,0,110,110,0,0,0,110,110,110,0,0,110,110,0,30-08-21,30-08-21,09:19:50,Thu Sep 30 2021 09:19:50 GMT+0200 (Central European Summer Time),The main experiment item,yes,0,0,/Users/ethan/Documents/GitHub/OpenSesame/Sternberg/experiment_files,0,0,0,no,mono,no,18,no,white,no,no,768,111,3.6.1,legacy,legacy,5 3 2 6 9 8,osweb,1.4.0,1,0,n,37,,0,left,rshift,right,f11,right,right,left,787,62928,74221,2162,28198,24999,787,2,legacy,680,1280,24,720,24,0,0,1280,1632986447697,6,1024,2,48000,-16,experiment,1,odd,Win32,4,856469,389605,702153,853219,58,854250,793754,58,2230,103457,858486,855252,859285,58,858486,Sternberg_updated,105,81978,111,yes,1024
95,95,739,739,black,no,experiment,Mozilla,Netscape,"5.0 (Windows NT 10.0; Win64; x64) AppleWebKit/537.36 (KHTML, like Gecko) Chrome/94.0.4606.61 Safari/537.36",legacy,legacy,legacy,0,uniform,1,1,left,111,111,111,111,0,0,0,111,111,0,0,0,111,111,111,0,0,111,111,0,30-08-21,30-08-21,09:19:50,Thu Sep 30 2021 09:19:50 GMT+0200 (Central European Summer Time),The main experiment item,yes,0,0,/Users/ethan/Documents/GitHub/OpenSesame/Sternberg/experiment_files,0,0,0,no,mono,no,18,no,white,no,no,768,111,3.6.1,legacy,legacy,6 2 9 3 8 4,osweb,1.4.0,1,0,n,37,,0,left,rshift,right,f11,right,right,left,742,62928,74221,2162,28198,24999,742,2,legacy,680,1280,24,720,24,0,0,1280,1632986447697,6,1024,2,48000,-16,experiment,1,odd,Win32,1,862535,389605,702153,859286,58,860312,793754,58,2230,103457,864552,861319,865302,58,864552,Sternberg_updated,106,82720,112,yes,1024
95,95,737,737,black,no,experiment,Mozilla,Netscape,"5.0 (Windows NT 10.0; Win64; x64) AppleWebKit/537.36 (KHTML, like Gecko) Chrome/94.0.4606.61 Safari/537.36",legacy,legacy,legacy,0,uniform,1,1,right,112,112,112,112,0,0,0,112,112,0,0,0,112,112,112,0,0,112,112,0,30-08-21,30-08-21,09:19:50,Thu Sep 30 2021 09:19:50 GMT+0200 (Central European Summer Time),The main experiment item,yes,0,0,/Users/ethan/Documents/GitHub/OpenSesame/Sternberg/experiment_files,0,0,0,no,mono,no,18,no,white,no,no,768,111,3.6.1,legacy,legacy,9 1 6 7 8,osweb,1.4.0,1,1,y,37,,0,right,rshift,right,f11,right,right,right,548,62928,74221,2162,28198,24999,548,2,legacy,680,1280,24,720,24,0,0,1280,1632986447697,5,1024,2,48000,-16,experiment,1,odd,Win32,9,868552,389605,702153,865303,58,866330,793754,58,2230,103457,870569,867336,871118,58,870569,Sternberg_updated,107,83268,113,yes,1024
95,95,736,736,black,no,experiment,Mozilla,Netscape,"5.0 (Windows NT 10.0; Win64; x64) AppleWebKit/537.36 (KHTML, like Gecko) Chrome/94.0.4606.61 Safari/537.36",legacy,legacy,legacy,0,uniform,1,1,left,113,113,113,113,0,0,0,113,113,0,0,0,113,113,113,0,0,113,113,0,30-08-21,30-08-21,09:19:50,Thu Sep 30 2021 09:19:50 GMT+0200 (Central European Summer Time),The main experiment item,yes,0,0,/Users/ethan/Documents/GitHub/OpenSesame/Sternberg/experiment_files,0,0,0,no,mono,no,18,no,white,no,no,768,111,3.6.1,legacy,legacy,6 8,osweb,1.4.0,1,0,n,37,,0,left,rshift,right,f11,right,right,left,647,62928,74221,2162,28198,24999,647,2,legacy,680,1280,24,720,24,0,0,1280,1632986447697,2,1024,2,48000,-16,experiment,1,odd,Win32,9,874369,389605,702153,871119,58,872146,793754,58,2230,103457,876386,873152,877035,58,876386,Sternberg_updated,108,83915,114,yes,1024
95,95,735,735,black,no,experiment,Mozilla,Netscape,"5.0 (Windows NT 10.0; Win64; x64) AppleWebKit/537.36 (KHTML, like Gecko) Chrome/94.0.4606.61 Safari/537.36",legacy,legacy,legacy,0,uniform,1,1,left,114,114,114,114,0,0,0,114,114,0,0,0,114,114,114,0,0,114,114,0,30-08-21,30-08-21,09:19:50,Thu Sep 30 2021 09:19:50 GMT+0200 (Central European Summer Time),The main experiment item,yes,0,0,/Users/ethan/Documents/GitHub/OpenSesame/Sternberg/experiment_files,0,0,0,no,mono,no,18,no,white,no,no,768,111,3.6.1,legacy,legacy,2 3 8 5 6 7,osweb,1.4.0,1,0,n,37,,0,left,rshift,right,f11,right,right,left,619,62928,74221,2162,28198,24999,619,2,legacy,680,1280,24,720,24,0,0,1280,1632986447697,6,1024,2,48000,-16,experiment,1,odd,Win32,1,880285,389605,702153,877036,58,878063,793754,58,2230,103457,882302,879069,882935,58,882302,Sternberg_updated,109,84534,115,yes,1024
95,95,734,734,black,no,experiment,Mozilla,Netscape,"5.0 (Windows NT 10.0; Win64; x64) AppleWebKit/537.36 (KHTML, like Gecko) Chrome/94.0.4606.61 Safari/537.36",legacy,legacy,legacy,0,uniform,1,1,left,115,115,115,115,0,0,0,115,115,0,0,0,115,115,115,0,0,115,115,0,30-08-21,30-08-21,09:19:50,Thu Sep 30 2021 09:19:50 GMT+0200 (Central European Summer Time),The main experiment item,yes,0,0,/Users/ethan/Documents/GitHub/OpenSesame/Sternberg/experiment_files,0,0,0,no,mono,no,18,no,white,no,no,768,111,3.6.1,legacy,legacy,1 7 5 2 9,osweb,1.4.0,1,0,n,37,,0,left,rshift,right,f11,right,right,left,617,62928,74221,2162,28198,24999,617,2,legacy,680,1280,24,720,24,0,0,1280,1632986447697,5,1024,2,48000,-16,experiment,1,odd,Win32,3,886185,389605,702153,882937,58,883963,793754,58,2230,103457,888202,884969,888835,58,888202,Sternberg_updated,110,85151,116,yes,1024
95,95,732,732,black,no,experiment,Mozilla,Netscape,"5.0 (Windows NT 10.0; Win64; x64) AppleWebKit/537.36 (KHTML, like Gecko) Chrome/94.0.4606.61 Safari/537.36",legacy,legacy,legacy,0,uniform,1,1,left,116,116,116,116,0,0,0,116,116,0,0,0,116,116,116,0,0,116,116,0,30-08-21,30-08-21,09:19:50,Thu Sep 30 2021 09:19:50 GMT+0200 (Central European Summer Time),The main experiment item,yes,0,0,/Users/ethan/Documents/GitHub/OpenSesame/Sternberg/experiment_files,0,0,0,no,mono,no,18,no,white,no,no,768,111,3.6.1,legacy,legacy,1 6 4,osweb,1.4.0,1,0,n,37,,0,left,rshift,right,f11,right,right,left,504,62928,74221,2162,28198,24999,504,2,legacy,680,1280,24,720,24,0,0,1280,1632986447697,3,1024,2,48000,-16,experiment,1,odd,Win32,7,892086,389605,702153,888836,58,889866,793754,58,2230,103457,894106,890869,894618,58,894106,Sternberg_updated,111,85655,117,yes,1024
95,95,733,733,black,no,experiment,Mozilla,Netscape,"5.0 (Windows NT 10.0; Win64; x64) AppleWebKit/537.36 (KHTML, like Gecko) Chrome/94.0.4606.61 Safari/537.36",legacy,legacy,legacy,0,uniform,1,1,right,117,117,117,117,0,0,0,117,117,0,0,0,117,117,117,0,0,117,117,0,30-08-21,30-08-21,09:19:50,Thu Sep 30 2021 09:19:50 GMT+0200 (Central European Summer Time),The main experiment item,yes,0,0,/Users/ethan/Documents/GitHub/OpenSesame/Sternberg/experiment_files,0,0,0,no,mono,no,18,no,white,no,no,768,111,3.6.1,legacy,legacy,6 1 2,osweb,1.4.0,1,3,y,37,,0,right,rshift,right,f11,right,right,right,798,62928,74221,2162,28198,24999,798,2,legacy,680,1280,24,720,24,0,0,1280,1632986447697,3,1024,2,48000,-16,experiment,1,odd,Win32,2,897869,389605,702153,894619,58,895650,793754,58,2230,103457,899885,896652,900685,58,899885,Sternberg_updated,112,86453,118,yes,1024
95,95,732,732,black,no,experiment,Mozilla,Netscape,"5.0 (Windows NT 10.0; Win64; x64) AppleWebKit/537.36 (KHTML, like Gecko) Chrome/94.0.4606.61 Safari/537.36",legacy,legacy,legacy,0,uniform,1,1,left,118,118,118,118,0,0,0,118,118,0,0,0,118,118,118,0,0,118,118,0,30-08-21,30-08-21,09:19:50,Thu Sep 30 2021 09:19:50 GMT+0200 (Central European Summer Time),The main experiment item,yes,0,0,/Users/ethan/Documents/GitHub/OpenSesame/Sternberg/experiment_files,0,0,0,no,mono,no,18,no,white,no,no,768,111,3.6.1,legacy,legacy,7 1 5 6 3,osweb,1.4.0,1,0,n,37,,0,left,rshift,right,f11,right,right,left,598,62928,74221,2162,28198,24999,598,2,legacy,680,1280,24,720,24,0,0,1280,1632986447697,5,1024,2,48000,-16,experiment,1,odd,Win32,8,903935,389605,702153,900686,58,901715,793754,58,2230,103457,905952,902719,906552,58,905952,Sternberg_updated,113,87051,119,yes,1024
