acc,accuracy,average_response_time,avg_rt,background,bidi,block,browser_codename,browser_name,browser_version,canvas_backend,clock_backend,color_backend,compensation,coordinates,correct,correct_keyboard_response,correct_response,count_ISI,count_break1,count_break_2,count_correct_feedback,count_credits,count_experiment,count_experimentLoop,count_fixation,count_incorrect_feedback,count_instructions1a,count_instructions1b,count_instructions2,count_keyboard_response,count_memory_set,count_new_logger,count_osweb,count_practiceLoop,count_practiceSequence,count_probe,count_thankYou,date_startdate,date_startdateUTC,date_starttime,datetime,description,disable_garbage_collection,experiment_debug,experiment_parameters,experiment_path,experiment_pilot,experiment_taskname,experiment_taskversion,font_bold,font_family,font_italic,font_size,font_underline,foreground,form_clicks,fullscreen,height,jatosStudyResultId,jatosVersion,keyboard_backend,mouse_backend,numberSet,opensesame_codename,opensesame_version,penwidth,posInSet,present,queryParams_batchId,queryParams_generalMultiple,repeat_cycle,response,response_break1,response_break_2,response_instructions1a,response_instructions1b,response_instructions2,response_keyboard_response,response_time,response_time_break1,response_time_break_2,response_time_instructions1a,response_time_instructions1b,response_time_instructions2,response_time_keyboard_response,round_decimals,sampler_backend,screen_availableHeight,screen_availableWidth,screen_colorDepth,screen_height,screen_pixelDepth,screen_screenX,screen_screenY,screen_width,sessionid,setSize,sound_buf_size,sound_channels,sound_freq,sound_sample_size,start,subject_nr,subject_parity,system_os,target,time_ISI,time_break1,time_break_2,time_correct_feedback,time_experimentLoop,time_fixation,time_incorrect_feedback,time_instructions1a,time_instructions1b,time_instructions2,time_keyboard_response,time_memory_set,time_new_logger,time_practiceLoop,time_probe,title,total_correct,total_response_time,total_responses,uniform_coordinates,width
0,0,909,909,black,no,practice,Mozilla,Netscape,"5.0 (Macintosh; Intel Mac OS X 10_15_7) AppleWebKit/605.1.15 (KHTML, like Gecko) Version/14.1.1 Safari/605.1.15",legacy,legacy,legacy,0,uniform,0,0,right,0,0,0,0,0,0,0,0,0,0,0,0,0,0,0,0,0,0,0,0,29-08-21,29-08-21,11:45:01,Wed Sep 29 2021 11:45:01 GMT+0200 (CEST),The main experiment item,yes,0,0,/Users/ethan/Documents/GitHub/OpenSesame/Sternberg/experiment_files,0,0,0,no,mono,no,18,no,white,no,no,768,42,3.6.1,legacy,legacy,4 3 1 7 9 8,osweb,1.4.0,1,1,y,36,,0,left,,,space,right,,left,909,,,24778,14821,,909,2,legacy,972,1680,24,1050,24,0,26,1680,1632908780825,6,1024,2,48000,-16,experiment,0,even,MacIntel,4,41930,,,,51,39702,,51,24842,,43948,40713,44863,51,43947,Sternberg_updated,0,909,1,yes,1024
50,50,913,913,black,no,practice,Mozilla,Netscape,"5.0 (Macintosh; Intel Mac OS X 10_15_7) AppleWebKit/605.1.15 (KHTML, like Gecko) Version/14.1.1 Safari/605.1.15",legacy,legacy,legacy,0,uniform,1,1,left,1,1,1,1,0,0,0,1,1,0,0,0,1,1,1,0,0,1,1,0,29-08-21,29-08-21,11:45:01,Wed Sep 29 2021 11:45:01 GMT+0200 (CEST),The main experiment item,yes,0,0,/Users/ethan/Documents/GitHub/OpenSesame/Sternberg/experiment_files,0,0,0,no,mono,no,18,no,white,no,no,768,42,3.6.1,legacy,legacy,5 7 8 4 1 2,osweb,1.4.0,1,0,n,36,,0,left,,,space,right,,left,917,,,24778,14821,,917,2,legacy,972,1680,24,1050,24,0,26,1680,1632908780825,6,1024,2,48000,-16,experiment,0,even,MacIntel,6,48129,,,,51,45898,44868,51,24842,,50149,46913,51068,51,50148,Sternberg_updated,1,1826,2,yes,1024
67,67,1054,1054,black,no,practice,Mozilla,Netscape,"5.0 (Macintosh; Intel Mac OS X 10_15_7) AppleWebKit/605.1.15 (KHTML, like Gecko) Version/14.1.1 Safari/605.1.15",legacy,legacy,legacy,0,uniform,1,1,left,2,2,2,2,0,0,0,2,2,0,0,0,2,2,2,0,0,2,2,0,29-08-21,29-08-21,11:45:01,Wed Sep 29 2021 11:45:01 GMT+0200 (CEST),The main experiment item,yes,0,0,/Users/ethan/Documents/GitHub/OpenSesame/Sternberg/experiment_files,0,0,0,no,mono,no,18,no,white,no,no,768,42,3.6.1,legacy,legacy,3 1 9 4,osweb,1.4.0,1,0,n,36,,0,left,,,space,right,,left,1335,,,24778,14821,,1335,2,legacy,972,1680,24,1050,24,0,26,1680,1632908780825,4,1024,2,48000,-16,experiment,0,even,MacIntel,6,54324,,,51071,51,52095,44868,51,24842,,56340,53111,57686,51,56340,Sternberg_updated,2,3161,3,yes,1024
75,75,952,952,black,no,practice,Mozilla,Netscape,"5.0 (Macintosh; Intel Mac OS X 10_15_7) AppleWebKit/605.1.15 (KHTML, like Gecko) Version/14.1.1 Safari/605.1.15",legacy,legacy,legacy,0,uniform,1,1,left,3,3,3,3,0,0,0,3,3,0,0,0,3,3,3,0,0,3,3,0,29-08-21,29-08-21,11:45:01,Wed Sep 29 2021 11:45:01 GMT+0200 (CEST),The main experiment item,yes,0,0,/Users/ethan/Documents/GitHub/OpenSesame/Sternberg/experiment_files,0,0,0,no,mono,no,18,no,white,no,no,768,42,3.6.1,legacy,legacy,2 1,osweb,1.4.0,1,0,n,36,,0,left,,,space,right,,left,647,,,24778,14821,,647,2,legacy,972,1680,24,1050,24,0,26,1680,1632908780825,2,1024,2,48000,-16,experiment,0,even,MacIntel,5,60937,,,57689,51,58718,44868,51,24842,,62950,59726,63598,51,62950,Sternberg_updated,3,3808,4,yes,1024
80,80,943,943,black,no,practice,Mozilla,Netscape,"5.0 (Macintosh; Intel Mac OS X 10_15_7) AppleWebKit/605.1.15 (KHTML, like Gecko) Version/14.1.1 Safari/605.1.15",legacy,legacy,legacy,0,uniform,1,1,right,4,4,4,4,0,0,0,4,4,0,0,0,4,4,4,0,0,4,4,0,29-08-21,29-08-21,11:45:01,Wed Sep 29 2021 11:45:01 GMT+0200 (CEST),The main experiment item,yes,0,0,/Users/ethan/Documents/GitHub/OpenSesame/Sternberg/experiment_files,0,0,0,no,mono,no,18,no,white,no,no,768,42,3.6.1,legacy,legacy,6,osweb,1.4.0,1,1,y,36,,0,right,,,space,right,,right,907,,,24778,14821,,907,2,legacy,972,1680,24,1050,24,0,26,1680,1632908780825,1,1024,2,48000,-16,experiment,0,even,MacIntel,6,66849,,,63602,51,64627,44868,51,24842,,68857,65634,69771,51,68857,Sternberg_updated,4,4715,5,yes,1024
83,83,915,915,black,no,practice,Mozilla,Netscape,"5.0 (Macintosh; Intel Mac OS X 10_15_7) AppleWebKit/605.1.15 (KHTML, like Gecko) Version/14.1.1 Safari/605.1.15",legacy,legacy,legacy,0,uniform,1,1,right,5,5,5,5,0,0,0,5,5,0,0,0,5,5,5,0,0,5,5,0,29-08-21,29-08-21,11:45:01,Wed Sep 29 2021 11:45:01 GMT+0200 (CEST),The main experiment item,yes,0,0,/Users/ethan/Documents/GitHub/OpenSesame/Sternberg/experiment_files,0,0,0,no,mono,no,18,no,white,no,no,768,42,3.6.1,legacy,legacy,1 5 2 9,osweb,1.4.0,1,2,y,36,,0,right,,,space,right,,right,775,,,24778,14821,,775,2,legacy,972,1680,24,1050,24,0,26,1680,1632908780825,4,1024,2,48000,-16,experiment,0,even,MacIntel,5,73012,,,69773,51,70798,44868,51,24842,,75028,71807,75807,51,75028,Sternberg_updated,5,5490,6,yes,1024
86,86,875,875,black,no,practice,Mozilla,Netscape,"5.0 (Macintosh; Intel Mac OS X 10_15_7) AppleWebKit/605.1.15 (KHTML, like Gecko) Version/14.1.1 Safari/605.1.15",legacy,legacy,legacy,0,uniform,1,1,left,6,6,6,6,0,0,0,6,6,0,0,0,6,6,6,0,0,6,6,0,29-08-21,29-08-21,11:45:01,Wed Sep 29 2021 11:45:01 GMT+0200 (CEST),The main experiment item,yes,0,0,/Users/ethan/Documents/GitHub/OpenSesame/Sternberg/experiment_files,0,0,0,no,mono,no,18,no,white,no,no,768,42,3.6.1,legacy,legacy,9 6 7 4 5,osweb,1.4.0,1,0,n,36,,0,left,,,space,right,,left,638,,,24778,14821,,638,2,legacy,972,1680,24,1050,24,0,26,1680,1632908780825,5,1024,2,48000,-16,experiment,0,even,MacIntel,3,79054,,,75810,51,76836,44868,51,24842,,81059,77845,81705,51,81059,Sternberg_updated,6,6128,7,yes,1024
88,88,892,892,black,no,practice,Mozilla,Netscape,"5.0 (Macintosh; Intel Mac OS X 10_15_7) AppleWebKit/605.1.15 (KHTML, like Gecko) Version/14.1.1 Safari/605.1.15",legacy,legacy,legacy,0,uniform,1,1,right,7,7,7,7,0,0,0,7,7,0,0,0,7,7,7,0,0,7,7,0,29-08-21,29-08-21,11:45:01,Wed Sep 29 2021 11:45:01 GMT+0200 (CEST),The main experiment item,yes,0,0,/Users/ethan/Documents/GitHub/OpenSesame/Sternberg/experiment_files,0,0,0,no,mono,no,18,no,white,no,no,768,42,3.6.1,legacy,legacy,1 7 9 8 5,osweb,1.4.0,1,4,y,36,,0,right,,,space,right,,right,1008,,,24778,14821,,1008,2,legacy,972,1680,24,1050,24,0,26,1680,1632908780825,5,1024,2,48000,-16,experiment,0,even,MacIntel,8,84955,,,81707,51,82732,44868,51,24842,,86973,83750,87993,51,86973,Sternberg_updated,7,7136,8,yes,1024
89,89,856,856,black,no,practice,Mozilla,Netscape,"5.0 (Macintosh; Intel Mac OS X 10_15_7) AppleWebKit/605.1.15 (KHTML, like Gecko) Version/14.1.1 Safari/605.1.15",legacy,legacy,legacy,0,uniform,1,1,left,8,8,8,8,0,0,0,8,8,0,0,0,8,8,8,0,0,8,8,0,29-08-21,29-08-21,11:45:01,Wed Sep 29 2021 11:45:01 GMT+0200 (CEST),The main experiment item,yes,0,0,/Users/ethan/Documents/GitHub/OpenSesame/Sternberg/experiment_files,0,0,0,no,mono,no,18,no,white,no,no,768,42,3.6.1,legacy,legacy,5,osweb,1.4.0,1,0,n,36,,0,left,,,space,right,,left,569,,,24778,14821,,569,2,legacy,972,1680,24,1050,24,0,26,1680,1632908780825,1,1024,2,48000,-16,experiment,0,even,MacIntel,3,91231,,,87995,51,89019,44868,51,24842,,93251,90028,93831,51,93250,Sternberg_updated,8,7705,9,yes,1024
90,90,869,869,black,no,practice,Mozilla,Netscape,"5.0 (Macintosh; Intel Mac OS X 10_15_7) AppleWebKit/605.1.15 (KHTML, like Gecko) Version/14.1.1 Safari/605.1.15",legacy,legacy,legacy,0,uniform,1,1,left,9,9,9,9,0,0,0,9,9,0,0,0,9,9,9,0,0,9,9,0,29-08-21,29-08-21,11:45:01,Wed Sep 29 2021 11:45:01 GMT+0200 (CEST),The main experiment item,yes,0,0,/Users/ethan/Documents/GitHub/OpenSesame/Sternberg/experiment_files,0,0,0,no,mono,no,18,no,white,no,no,768,42,3.6.1,legacy,legacy,4 1 5,osweb,1.4.0,1,0,n,36,,0,left,,,space,right,,left,985,,,24778,14821,,985,2,legacy,972,1680,24,1050,24,0,26,1680,1632908780825,3,1024,2,48000,-16,experiment,0,even,MacIntel,2,97069,,,93833,51,94857,44868,51,24842,,99080,95866,100067,51,99080,Sternberg_updated,9,8690,10,yes,1024
91,91,874,874,black,no,practice,Mozilla,Netscape,"5.0 (Macintosh; Intel Mac OS X 10_15_7) AppleWebKit/605.1.15 (KHTML, like Gecko) Version/14.1.1 Safari/605.1.15",legacy,legacy,legacy,0,uniform,1,1,right,10,10,10,10,0,0,0,10,10,0,0,0,10,10,10,0,0,10,10,0,29-08-21,29-08-21,11:45:01,Wed Sep 29 2021 11:45:01 GMT+0200 (CEST),The main experiment item,yes,0,0,/Users/ethan/Documents/GitHub/OpenSesame/Sternberg/experiment_files,0,0,0,no,mono,no,18,no,white,no,no,768,42,3.6.1,legacy,legacy,4 8,osweb,1.4.0,1,1,y,36,,0,right,,,space,right,,right,922,,,24778,14821,,922,2,legacy,972,1680,24,1050,24,0,26,1680,1632908780825,2,1024,2,48000,-16,experiment,0,even,MacIntel,4,103321,,,100069,51,101099,44868,51,24842,,105337,102107,106270,51,105337,Sternberg_updated,10,9612,11,yes,1024
92,92,866,866,black,no,practice,Mozilla,Netscape,"5.0 (Macintosh; Intel Mac OS X 10_15_7) AppleWebKit/605.1.15 (KHTML, like Gecko) Version/14.1.1 Safari/605.1.15",legacy,legacy,legacy,0,uniform,1,1,right,11,11,11,11,0,0,0,11,11,0,0,0,11,11,11,0,0,11,11,0,29-08-21,29-08-21,11:45:01,Wed Sep 29 2021 11:45:01 GMT+0200 (CEST),The main experiment item,yes,0,0,/Users/ethan/Documents/GitHub/OpenSesame/Sternberg/experiment_files,0,0,0,no,mono,no,18,no,white,no,no,768,42,3.6.1,legacy,legacy,2 9 4,osweb,1.4.0,1,3,y,36,,0,right,,,space,right,,right,784,,,24778,14821,,784,2,legacy,972,1680,24,1050,24,0,26,1680,1632908780825,3,1024,2,48000,-16,experiment,0,even,MacIntel,4,109540,,,106272,51,107302,44868,51,24842,,111549,108321,112343,51,111549,Sternberg_updated,11,10396,12,yes,1024
92,92,877,877,black,no,experiment,Mozilla,Netscape,"5.0 (Macintosh; Intel Mac OS X 10_15_7) AppleWebKit/605.1.15 (KHTML, like Gecko) Version/14.1.1 Safari/605.1.15",legacy,legacy,legacy,0,uniform,1,1,right,12,12,12,12,0,0,0,12,12,0,0,0,12,12,12,0,0,12,12,0,29-08-21,29-08-21,11:45:01,Wed Sep 29 2021 11:45:01 GMT+0200 (CEST),The main experiment item,yes,0,0,/Users/ethan/Documents/GitHub/OpenSesame/Sternberg/experiment_files,0,0,0,no,mono,no,18,no,white,no,no,768,42,3.6.1,legacy,legacy,8 9 5 6 7,osweb,1.4.0,1,1,y,36,,0,right,,,space,right,right,right,1006,,,24778,14821,13410,1006,2,legacy,972,1680,24,1050,24,0,26,1680,1632908780825,5,1024,2,48000,-16,experiment,0,even,MacIntel,8,129028,,,112346,51,126808,44868,51,24842,113372,131047,127815,132066,51,131047,Sternberg_updated,12,11402,13,yes,1024
93,93,920,920,black,no,experiment,Mozilla,Netscape,"5.0 (Macintosh; Intel Mac OS X 10_15_7) AppleWebKit/605.1.15 (KHTML, like Gecko) Version/14.1.1 Safari/605.1.15",legacy,legacy,legacy,0,uniform,1,1,left,13,13,13,13,0,0,0,13,13,0,0,0,13,13,13,0,0,13,13,0,29-08-21,29-08-21,11:45:01,Wed Sep 29 2021 11:45:01 GMT+0200 (CEST),The main experiment item,yes,0,0,/Users/ethan/Documents/GitHub/OpenSesame/Sternberg/experiment_files,0,0,0,no,mono,no,18,no,white,no,no,768,42,3.6.1,legacy,legacy,7 6 4 8 1 2,osweb,1.4.0,1,0,n,36,,0,left,,,space,right,right,left,1473,,,24778,14821,13410,1473,2,legacy,972,1680,24,1050,24,0,26,1680,1632908780825,6,1024,2,48000,-16,experiment,0,even,MacIntel,9,135313,,,132068,51,133091,44868,51,24842,113372,137323,134108,138804,51,137323,Sternberg_updated,13,12875,14,yes,1024
93,93,920,920,black,no,experiment,Mozilla,Netscape,"5.0 (Macintosh; Intel Mac OS X 10_15_7) AppleWebKit/605.1.15 (KHTML, like Gecko) Version/14.1.1 Safari/605.1.15",legacy,legacy,legacy,0,uniform,1,1,left,14,14,14,14,0,0,0,14,14,0,0,0,14,14,14,0,0,14,14,0,29-08-21,29-08-21,11:45:01,Wed Sep 29 2021 11:45:01 GMT+0200 (CEST),The main experiment item,yes,0,0,/Users/ethan/Documents/GitHub/OpenSesame/Sternberg/experiment_files,0,0,0,no,mono,no,18,no,white,no,no,768,42,3.6.1,legacy,legacy,6 7 5 9,osweb,1.4.0,1,0,n,36,,0,left,,,space,right,right,left,918,,,24778,14821,13410,918,2,legacy,972,1680,24,1050,24,0,26,1680,1632908780825,4,1024,2,48000,-16,experiment,0,even,MacIntel,2,142048,,,138806,51,139829,44868,51,24842,113372,144067,140844,145000,51,144067,Sternberg_updated,14,13793,15,yes,1024
94,94,911,911,black,no,experiment,Mozilla,Netscape,"5.0 (Macintosh; Intel Mac OS X 10_15_7) AppleWebKit/605.1.15 (KHTML, like Gecko) Version/14.1.1 Safari/605.1.15",legacy,legacy,legacy,0,uniform,1,1,right,15,15,15,15,0,0,0,15,15,0,0,0,15,15,15,0,0,15,15,0,29-08-21,29-08-21,11:45:01,Wed Sep 29 2021 11:45:01 GMT+0200 (CEST),The main experiment item,yes,0,0,/Users/ethan/Documents/GitHub/OpenSesame/Sternberg/experiment_files,0,0,0,no,mono,no,18,no,white,no,no,768,42,3.6.1,legacy,legacy,8,osweb,1.4.0,1,1,y,36,,0,right,,,space,right,right,right,782,,,24778,14821,13410,782,2,legacy,972,1680,24,1050,24,0,26,1680,1632908780825,1,1024,2,48000,-16,experiment,0,even,MacIntel,8,148250,,,145002,51,146030,44868,51,24842,113372,150268,147036,151058,51,150268,Sternberg_updated,15,14575,16,yes,1024
94,94,889,889,black,no,experiment,Mozilla,Netscape,"5.0 (Macintosh; Intel Mac OS X 10_15_7) AppleWebKit/605.1.15 (KHTML, like Gecko) Version/14.1.1 Safari/605.1.15",legacy,legacy,legacy,0,uniform,1,1,left,16,16,16,16,0,0,0,16,16,0,0,0,16,16,16,0,0,16,16,0,29-08-21,29-08-21,11:45:01,Wed Sep 29 2021 11:45:01 GMT+0200 (CEST),The main experiment item,yes,0,0,/Users/ethan/Documents/GitHub/OpenSesame/Sternberg/experiment_files,0,0,0,no,mono,no,18,no,white,no,no,768,42,3.6.1,legacy,legacy,7 9,osweb,1.4.0,1,0,n,36,,0,left,,,space,right,right,left,537,,,24778,14821,13410,537,2,legacy,972,1680,24,1050,24,0,26,1680,1632908780825,2,1024,2,48000,-16,experiment,0,even,MacIntel,1,154306,,,151061,51,152084,44868,51,24842,113372,156325,153101,156864,51,156325,Sternberg_updated,16,15112,17,yes,1024
94,94,879,879,black,no,experiment,Mozilla,Netscape,"5.0 (Macintosh; Intel Mac OS X 10_15_7) AppleWebKit/605.1.15 (KHTML, like Gecko) Version/14.1.1 Safari/605.1.15",legacy,legacy,legacy,0,uniform,1,1,left,17,17,17,17,0,0,0,17,17,0,0,0,17,17,17,0,0,17,17,0,29-08-21,29-08-21,11:45:01,Wed Sep 29 2021 11:45:01 GMT+0200 (CEST),The main experiment item,yes,0,0,/Users/ethan/Documents/GitHub/OpenSesame/Sternberg/experiment_files,0,0,0,no,mono,no,18,no,white,no,no,768,42,3.6.1,legacy,legacy,6 8,osweb,1.4.0,1,0,n,36,,0,left,,,space,right,right,left,712,,,24778,14821,13410,712,2,legacy,972,1680,24,1050,24,0,26,1680,1632908780825,2,1024,2,48000,-16,experiment,0,even,MacIntel,9,160112,,,156867,51,157887,44868,51,24842,113372,162130,158899,162845,51,162130,Sternberg_updated,17,15824,18,yes,1024
95,95,917,917,black,no,experiment,Mozilla,Netscape,"5.0 (Macintosh; Intel Mac OS X 10_15_7) AppleWebKit/605.1.15 (KHTML, like Gecko) Version/14.1.1 Safari/605.1.15",legacy,legacy,legacy,0,uniform,1,1,right,18,18,18,18,0,0,0,18,18,0,0,0,18,18,18,0,0,18,18,0,29-08-21,29-08-21,11:45:01,Wed Sep 29 2021 11:45:01 GMT+0200 (CEST),The main experiment item,yes,0,0,/Users/ethan/Documents/GitHub/OpenSesame/Sternberg/experiment_files,0,0,0,no,mono,no,18,no,white,no,no,768,42,3.6.1,legacy,legacy,8 7 3,osweb,1.4.0,1,1,y,36,,0,right,,,space,right,right,right,1605,,,24778,14821,13410,1605,2,legacy,972,1680,24,1050,24,0,26,1680,1632908780825,3,1024,2,48000,-16,experiment,0,even,MacIntel,8,166103,,,162848,51,163871,44868,51,24842,113372,168120,164889,169731,51,168120,Sternberg_updated,18,17429,19,yes,1024
95,95,931,931,black,no,experiment,Mozilla,Netscape,"5.0 (Macintosh; Intel Mac OS X 10_15_7) AppleWebKit/605.1.15 (KHTML, like Gecko) Version/14.1.1 Safari/605.1.15",legacy,legacy,legacy,0,uniform,1,1,right,19,19,19,19,0,0,0,19,19,0,0,0,19,19,19,0,0,19,19,0,29-08-21,29-08-21,11:45:01,Wed Sep 29 2021 11:45:01 GMT+0200 (CEST),The main experiment item,yes,0,0,/Users/ethan/Documents/GitHub/OpenSesame/Sternberg/experiment_files,0,0,0,no,mono,no,18,no,white,no,no,768,42,3.6.1,legacy,legacy,1 4 9 3 2 5,osweb,1.4.0,1,3,y,36,,0,right,,,space,right,right,right,1187,,,24778,14821,13410,1187,2,legacy,972,1680,24,1050,24,0,26,1680,1632908780825,6,1024,2,48000,-16,experiment,0,even,MacIntel,9,172983,,,169733,51,170757,44868,51,24842,113372,175001,171776,176189,51,175001,Sternberg_updated,19,18616,20,yes,1024
95,95,942,942,black,no,experiment,Mozilla,Netscape,"5.0 (Macintosh; Intel Mac OS X 10_15_7) AppleWebKit/605.1.15 (KHTML, like Gecko) Version/14.1.1 Safari/605.1.15",legacy,legacy,legacy,0,uniform,1,1,right,20,20,20,20,0,0,0,20,20,0,0,0,20,20,20,0,0,20,20,0,29-08-21,29-08-21,11:45:01,Wed Sep 29 2021 11:45:01 GMT+0200 (CEST),The main experiment item,yes,0,0,/Users/ethan/Documents/GitHub/OpenSesame/Sternberg/experiment_files,0,0,0,no,mono,no,18,no,white,no,no,768,42,3.6.1,legacy,legacy,5 2 6,osweb,1.4.0,1,2,y,36,,0,right,,,space,right,right,right,1165,,,24778,14821,13410,1165,2,legacy,972,1680,24,1050,24,0,26,1680,1632908780825,3,1024,2,48000,-16,experiment,0,even,MacIntel,2,179440,,,176193,51,177212,44868,51,24842,113372,181451,178231,182622,51,181451,Sternberg_updated,20,19781,21,yes,1024
95,95,946,946,black,no,experiment,Mozilla,Netscape,"5.0 (Macintosh; Intel Mac OS X 10_15_7) AppleWebKit/605.1.15 (KHTML, like Gecko) Version/14.1.1 Safari/605.1.15",legacy,legacy,legacy,0,uniform,1,1,right,21,21,21,21,0,0,0,21,21,0,0,0,21,21,21,0,0,21,21,0,29-08-21,29-08-21,11:45:01,Wed Sep 29 2021 11:45:01 GMT+0200 (CEST),The main experiment item,yes,0,0,/Users/ethan/Documents/GitHub/OpenSesame/Sternberg/experiment_files,0,0,0,no,mono,no,18,no,white,no,no,768,42,3.6.1,legacy,legacy,3 2 1 4 7,osweb,1.4.0,1,2,y,36,,0,right,,,space,right,right,right,1041,,,24778,14821,13410,1041,2,legacy,972,1680,24,1050,24,0,26,1680,1632908780825,5,1024,2,48000,-16,experiment,0,even,MacIntel,2,185866,,,182628,51,183656,44868,51,24842,113372,187880,184660,188933,51,187880,Sternberg_updated,21,20822,22,yes,1024
96,96,928,928,black,no,experiment,Mozilla,Netscape,"5.0 (Macintosh; Intel Mac OS X 10_15_7) AppleWebKit/605.1.15 (KHTML, like Gecko) Version/14.1.1 Safari/605.1.15",legacy,legacy,legacy,0,uniform,1,1,left,22,22,22,22,0,0,0,22,22,0,0,0,22,22,22,0,0,22,22,0,29-08-21,29-08-21,11:45:01,Wed Sep 29 2021 11:45:01 GMT+0200 (CEST),The main experiment item,yes,0,0,/Users/ethan/Documents/GitHub/OpenSesame/Sternberg/experiment_files,0,0,0,no,mono,no,18,no,white,no,no,768,42,3.6.1,legacy,legacy,6 8 4,osweb,1.4.0,1,0,n,36,,0,left,,,space,right,right,left,519,,,24778,14821,13410,519,2,legacy,972,1680,24,1050,24,0,26,1680,1632908780825,3,1024,2,48000,-16,experiment,0,even,MacIntel,1,192199,,,188937,51,189967,44868,51,24842,113372,194214,190981,194744,51,194214,Sternberg_updated,22,21341,23,yes,1024
96,96,932,932,black,no,experiment,Mozilla,Netscape,"5.0 (Macintosh; Intel Mac OS X 10_15_7) AppleWebKit/605.1.15 (KHTML, like Gecko) Version/14.1.1 Safari/605.1.15",legacy,legacy,legacy,0,uniform,1,1,left,23,23,23,23,0,0,0,23,23,0,0,0,23,23,23,0,0,23,23,0,29-08-21,29-08-21,11:45:01,Wed Sep 29 2021 11:45:01 GMT+0200 (CEST),The main experiment item,yes,0,0,/Users/ethan/Documents/GitHub/OpenSesame/Sternberg/experiment_files,0,0,0,no,mono,no,18,no,white,no,no,768,42,3.6.1,legacy,legacy,8 4 3 9,osweb,1.4.0,1,0,n,36,,0,left,,,space,right,right,left,1024,,,24778,14821,13410,1024,2,legacy,972,1680,24,1050,24,0,26,1680,1632908780825,4,1024,2,48000,-16,experiment,0,even,MacIntel,5,197994,,,194746,51,195769,44868,51,24842,113372,200012,196788,201052,51,200012,Sternberg_updated,23,22365,24,yes,1024
96,96,973,973,black,no,experiment,Mozilla,Netscape,"5.0 (Macintosh; Intel Mac OS X 10_15_7) AppleWebKit/605.1.15 (KHTML, like Gecko) Version/14.1.1 Safari/605.1.15",legacy,legacy,legacy,0,uniform,1,1,left,24,24,24,24,0,0,0,24,24,0,0,0,24,24,24,0,0,24,24,0,29-08-21,29-08-21,11:45:01,Wed Sep 29 2021 11:45:01 GMT+0200 (CEST),The main experiment item,yes,0,0,/Users/ethan/Documents/GitHub/OpenSesame/Sternberg/experiment_files,0,0,0,no,mono,no,18,no,white,no,no,768,42,3.6.1,legacy,legacy,1 7 5 2 9,osweb,1.4.0,1,0,n,36,,0,left,,,space,right,right,left,1964,,,24778,14821,13410,1964,2,legacy,972,1680,24,1050,24,0,26,1680,1632908780825,5,1024,2,48000,-16,experiment,0,even,MacIntel,3,204308,,,201054,51,202083,44868,51,24842,113372,206326,203094,208297,51,206326,Sternberg_updated,24,24329,25,yes,1024
96,96,972,972,black,no,experiment,Mozilla,Netscape,"5.0 (Macintosh; Intel Mac OS X 10_15_7) AppleWebKit/605.1.15 (KHTML, like Gecko) Version/14.1.1 Safari/605.1.15",legacy,legacy,legacy,0,uniform,1,1,left,25,25,25,25,0,0,0,25,25,0,0,0,25,25,25,0,0,25,25,0,29-08-21,29-08-21,11:45:01,Wed Sep 29 2021 11:45:01 GMT+0200 (CEST),The main experiment item,yes,0,0,/Users/ethan/Documents/GitHub/OpenSesame/Sternberg/experiment_files,0,0,0,no,mono,no,18,no,white,no,no,768,42,3.6.1,legacy,legacy,1,osweb,1.4.0,1,0,n,36,,0,left,,,space,right,right,left,944,,,24778,14821,13410,944,2,legacy,972,1680,24,1050,24,0,26,1680,1632908780825,1,1024,2,48000,-16,experiment,0,even,MacIntel,7,211547,,,208299,51,209323,44868,51,24842,113372,213557,210336,214512,51,213557,Sternberg_updated,25,25273,26,yes,1024
96,96,968,968,black,no,experiment,Mozilla,Netscape,"5.0 (Macintosh; Intel Mac OS X 10_15_7) AppleWebKit/605.1.15 (KHTML, like Gecko) Version/14.1.1 Safari/605.1.15",legacy,legacy,legacy,0,uniform,1,1,left,26,26,26,26,0,0,0,26,26,0,0,0,26,26,26,0,0,26,26,0,29-08-21,29-08-21,11:45:01,Wed Sep 29 2021 11:45:01 GMT+0200 (CEST),The main experiment item,yes,0,0,/Users/ethan/Documents/GitHub/OpenSesame/Sternberg/experiment_files,0,0,0,no,mono,no,18,no,white,no,no,768,42,3.6.1,legacy,legacy,4 8 1 2,osweb,1.4.0,1,0,n,36,,0,left,,,space,right,right,left,860,,,24778,14821,13410,860,2,legacy,972,1680,24,1050,24,0,26,1680,1632908780825,4,1024,2,48000,-16,experiment,0,even,MacIntel,7,217771,,,214514,51,215540,44868,51,24842,113372,219787,216557,220659,51,219787,Sternberg_updated,26,26133,27,yes,1024
96,96,963,963,black,no,experiment,Mozilla,Netscape,"5.0 (Macintosh; Intel Mac OS X 10_15_7) AppleWebKit/605.1.15 (KHTML, like Gecko) Version/14.1.1 Safari/605.1.15",legacy,legacy,legacy,0,uniform,1,1,left,27,27,27,27,0,0,0,27,27,0,0,0,27,27,27,0,0,27,27,0,29-08-21,29-08-21,11:45:01,Wed Sep 29 2021 11:45:01 GMT+0200 (CEST),The main experiment item,yes,0,0,/Users/ethan/Documents/GitHub/OpenSesame/Sternberg/experiment_files,0,0,0,no,mono,no,18,no,white,no,no,768,42,3.6.1,legacy,legacy,5 3 2 6 9 8,osweb,1.4.0,1,0,n,36,,0,left,,,space,right,right,left,844,,,24778,14821,13410,844,2,legacy,972,1680,24,1050,24,0,26,1680,1632908780825,6,1024,2,48000,-16,experiment,0,even,MacIntel,4,223912,,,220661,51,221688,44868,51,24842,113372,225923,222701,226771,51,225923,Sternberg_updated,27,26977,28,yes,1024
97,97,951,951,black,no,experiment,Mozilla,Netscape,"5.0 (Macintosh; Intel Mac OS X 10_15_7) AppleWebKit/605.1.15 (KHTML, like Gecko) Version/14.1.1 Safari/605.1.15",legacy,legacy,legacy,0,uniform,1,1,right,28,28,28,28,0,0,0,28,28,0,0,0,28,28,28,0,0,28,28,0,29-08-21,29-08-21,11:45:01,Wed Sep 29 2021 11:45:01 GMT+0200 (CEST),The main experiment item,yes,0,0,/Users/ethan/Documents/GitHub/OpenSesame/Sternberg/experiment_files,0,0,0,no,mono,no,18,no,white,no,no,768,42,3.6.1,legacy,legacy,7 8 4 6 9 5,osweb,1.4.0,1,4,y,36,,0,right,,,space,right,right,right,596,,,24778,14821,13410,596,2,legacy,972,1680,24,1050,24,0,26,1680,1632908780825,6,1024,2,48000,-16,experiment,0,even,MacIntel,6,230033,,,226774,51,227796,44868,51,24842,113372,232053,228816,232650,51,232053,Sternberg_updated,28,27573,29,yes,1024
97,97,957,957,black,no,experiment,Mozilla,Netscape,"5.0 (Macintosh; Intel Mac OS X 10_15_7) AppleWebKit/605.1.15 (KHTML, like Gecko) Version/14.1.1 Safari/605.1.15",legacy,legacy,legacy,0,uniform,1,1,right,29,29,29,29,0,0,0,29,29,0,0,0,29,29,29,0,0,29,29,0,29-08-21,29-08-21,11:45:01,Wed Sep 29 2021 11:45:01 GMT+0200 (CEST),The main experiment item,yes,0,0,/Users/ethan/Documents/GitHub/OpenSesame/Sternberg/experiment_files,0,0,0,no,mono,no,18,no,white,no,no,768,42,3.6.1,legacy,legacy,3 5 7 1,osweb,1.4.0,1,3,y,36,,0,right,,,space,right,right,right,1127,,,24778,14821,13410,1127,2,legacy,972,1680,24,1050,24,0,26,1680,1632908780825,4,1024,2,48000,-16,experiment,0,even,MacIntel,7,235922,,,232653,51,233690,44868,51,24842,113372,237943,234704,239074,51,237943,Sternberg_updated,29,28700,30,yes,1024
97,97,956,956,black,no,experiment,Mozilla,Netscape,"5.0 (Macintosh; Intel Mac OS X 10_15_7) AppleWebKit/605.1.15 (KHTML, like Gecko) Version/14.1.1 Safari/605.1.15",legacy,legacy,legacy,0,uniform,1,1,left,30,30,30,30,0,0,0,30,30,0,0,0,30,30,30,0,0,30,30,0,29-08-21,29-08-21,11:45:01,Wed Sep 29 2021 11:45:01 GMT+0200 (CEST),The main experiment item,yes,0,0,/Users/ethan/Documents/GitHub/OpenSesame/Sternberg/experiment_files,0,0,0,no,mono,no,18,no,white,no,no,768,42,3.6.1,legacy,legacy,1 6 4,osweb,1.4.0,1,0,n,36,,0,left,,,space,right,right,left,949,,,24778,14821,13410,949,2,legacy,972,1680,24,1050,24,0,26,1680,1632908780825,3,1024,2,48000,-16,experiment,0,even,MacIntel,7,242322,,,239076,51,240106,44868,51,24842,113372,244338,241118,245292,51,244338,Sternberg_updated,30,29649,31,yes,1024
94,94,987,987,black,no,experiment,Mozilla,Netscape,"5.0 (Macintosh; Intel Mac OS X 10_15_7) AppleWebKit/605.1.15 (KHTML, like Gecko) Version/14.1.1 Safari/605.1.15",legacy,legacy,legacy,0,uniform,0,0,right,31,31,31,31,0,0,0,31,31,0,0,0,31,31,31,0,0,31,31,0,29-08-21,29-08-21,11:45:01,Wed Sep 29 2021 11:45:01 GMT+0200 (CEST),The main experiment item,yes,0,0,/Users/ethan/Documents/GitHub/OpenSesame/Sternberg/experiment_files,0,0,0,no,mono,no,18,no,white,no,no,768,42,3.6.1,legacy,legacy,2 6 1 7 4,osweb,1.4.0,1,2,y,36,,0,left,,,space,right,right,left,1926,,,24778,14821,13410,1926,2,legacy,972,1680,24,1050,24,0,26,1680,1632908780825,5,1024,2,48000,-16,experiment,0,even,MacIntel,6,248533,,,245294,51,246323,44868,51,24842,113372,250543,247330,252472,51,250543,Sternberg_updated,30,31575,32,yes,1024
94,94,982,982,black,no,experiment,Mozilla,Netscape,"5.0 (Macintosh; Intel Mac OS X 10_15_7) AppleWebKit/605.1.15 (KHTML, like Gecko) Version/14.1.1 Safari/605.1.15",legacy,legacy,legacy,0,uniform,1,1,left,32,32,32,32,0,0,0,32,32,0,0,0,32,32,32,0,0,32,32,0,29-08-21,29-08-21,11:45:01,Wed Sep 29 2021 11:45:01 GMT+0200 (CEST),The main experiment item,yes,0,0,/Users/ethan/Documents/GitHub/OpenSesame/Sternberg/experiment_files,0,0,0,no,mono,no,18,no,white,no,no,768,42,3.6.1,legacy,legacy,3 9 1,osweb,1.4.0,1,0,n,36,,0,left,,,space,right,right,left,832,,,24778,14821,13410,832,2,legacy,972,1680,24,1050,24,0,26,1680,1632908780825,3,1024,2,48000,-16,experiment,0,even,MacIntel,7,255705,,,245294,51,253496,252475,51,24842,113372,257722,254500,258560,51,257722,Sternberg_updated,31,32407,33,yes,1024
94,94,994,994,black,no,experiment,Mozilla,Netscape,"5.0 (Macintosh; Intel Mac OS X 10_15_7) AppleWebKit/605.1.15 (KHTML, like Gecko) Version/14.1.1 Safari/605.1.15",legacy,legacy,legacy,0,uniform,1,1,left,33,33,33,33,0,0,0,33,33,0,0,0,33,33,33,0,0,33,33,0,29-08-21,29-08-21,11:45:01,Wed Sep 29 2021 11:45:01 GMT+0200 (CEST),The main experiment item,yes,0,0,/Users/ethan/Documents/GitHub/OpenSesame/Sternberg/experiment_files,0,0,0,no,mono,no,18,no,white,no,no,768,42,3.6.1,legacy,legacy,9,osweb,1.4.0,1,0,n,36,,0,left,,,space,right,right,left,1399,,,24778,14821,13410,1399,2,legacy,972,1680,24,1050,24,0,26,1680,1632908780825,1,1024,2,48000,-16,experiment,0,even,MacIntel,6,261810,,,258562,51,259584,252475,51,24842,113372,263822,260597,265237,51,263822,Sternberg_updated,32,33806,34,yes,1024
94,94,1013,1013,black,no,experiment,Mozilla,Netscape,"5.0 (Macintosh; Intel Mac OS X 10_15_7) AppleWebKit/605.1.15 (KHTML, like Gecko) Version/14.1.1 Safari/605.1.15",legacy,legacy,legacy,0,uniform,1,1,left,34,34,34,34,0,0,0,34,34,0,0,0,34,34,34,0,0,34,34,0,29-08-21,29-08-21,11:45:01,Wed Sep 29 2021 11:45:01 GMT+0200 (CEST),The main experiment item,yes,0,0,/Users/ethan/Documents/GitHub/OpenSesame/Sternberg/experiment_files,0,0,0,no,mono,no,18,no,white,no,no,768,42,3.6.1,legacy,legacy,9 7 4 5 8,osweb,1.4.0,1,0,n,36,,0,left,,,space,right,right,left,1633,,,24778,14821,13410,1633,2,legacy,972,1680,24,1050,24,0,26,1680,1632908780825,5,1024,2,48000,-16,experiment,0,even,MacIntel,6,268473,,,265239,51,266262,252475,51,24842,113372,270492,267267,272132,51,270492,Sternberg_updated,33,35439,35,yes,1024
94,94,1012,1012,black,no,experiment,Mozilla,Netscape,"5.0 (Macintosh; Intel Mac OS X 10_15_7) AppleWebKit/605.1.15 (KHTML, like Gecko) Version/14.1.1 Safari/605.1.15",legacy,legacy,legacy,0,uniform,1,1,left,35,35,35,35,0,0,0,35,35,0,0,0,35,35,35,0,0,35,35,0,29-08-21,29-08-21,11:45:01,Wed Sep 29 2021 11:45:01 GMT+0200 (CEST),The main experiment item,yes,0,0,/Users/ethan/Documents/GitHub/OpenSesame/Sternberg/experiment_files,0,0,0,no,mono,no,18,no,white,no,no,768,42,3.6.1,legacy,legacy,2 6 4 3 9,osweb,1.4.0,1,0,n,36,,0,left,,,space,right,right,left,983,,,24778,14821,13410,983,2,legacy,972,1680,24,1050,24,0,26,1680,1632908780825,5,1024,2,48000,-16,experiment,0,even,MacIntel,1,275395,,,272135,51,273165,252475,51,24842,113372,277399,274183,278387,51,277399,Sternberg_updated,34,36422,36,yes,1024
95,95,1012,1012,black,no,experiment,Mozilla,Netscape,"5.0 (Macintosh; Intel Mac OS X 10_15_7) AppleWebKit/605.1.15 (KHTML, like Gecko) Version/14.1.1 Safari/605.1.15",legacy,legacy,legacy,0,uniform,1,1,left,36,36,36,36,0,0,0,36,36,0,0,0,36,36,36,0,0,36,36,0,29-08-21,29-08-21,11:45:01,Wed Sep 29 2021 11:45:01 GMT+0200 (CEST),The main experiment item,yes,0,0,/Users/ethan/Documents/GitHub/OpenSesame/Sternberg/experiment_files,0,0,0,no,mono,no,18,no,white,no,no,768,42,3.6.1,legacy,legacy,5 7 3,osweb,1.4.0,1,0,n,36,,0,left,,,space,right,right,left,1026,,,24778,14821,13410,1026,2,legacy,972,1680,24,1050,24,0,26,1680,1632908780825,3,1024,2,48000,-16,experiment,0,even,MacIntel,9,281647,,,278390,51,279418,252475,51,24842,113372,283664,280430,284690,51,283664,Sternberg_updated,35,37448,37,yes,1024
95,95,1005,1005,black,no,experiment,Mozilla,Netscape,"5.0 (Macintosh; Intel Mac OS X 10_15_7) AppleWebKit/605.1.15 (KHTML, like Gecko) Version/14.1.1 Safari/605.1.15",legacy,legacy,legacy,0,uniform,1,1,right,37,37,37,37,0,0,0,37,37,0,0,0,37,37,37,0,0,37,37,0,29-08-21,29-08-21,11:45:01,Wed Sep 29 2021 11:45:01 GMT+0200 (CEST),The main experiment item,yes,0,0,/Users/ethan/Documents/GitHub/OpenSesame/Sternberg/experiment_files,0,0,0,no,mono,no,18,no,white,no,no,768,42,3.6.1,legacy,legacy,7,osweb,1.4.0,1,1,y,36,,0,right,,,space,right,right,right,755,,,24778,14821,13410,755,2,legacy,972,1680,24,1050,24,0,26,1680,1632908780825,1,1024,2,48000,-16,experiment,0,even,MacIntel,7,287931,,,284694,51,285721,252475,51,24842,113372,289947,286728,290710,51,289947,Sternberg_updated,36,38203,38,yes,1024
95,95,992,992,black,no,experiment,Mozilla,Netscape,"5.0 (Macintosh; Intel Mac OS X 10_15_7) AppleWebKit/605.1.15 (KHTML, like Gecko) Version/14.1.1 Safari/605.1.15",legacy,legacy,legacy,0,uniform,1,1,left,38,38,38,38,0,0,0,38,38,0,0,0,38,38,38,0,0,38,38,0,29-08-21,29-08-21,11:45:01,Wed Sep 29 2021 11:45:01 GMT+0200 (CEST),The main experiment item,yes,0,0,/Users/ethan/Documents/GitHub/OpenSesame/Sternberg/experiment_files,0,0,0,no,mono,no,18,no,white,no,no,768,42,3.6.1,legacy,legacy,8 9,osweb,1.4.0,1,0,n,36,,0,left,,,space,right,right,left,486,,,24778,14821,13410,486,2,legacy,972,1680,24,1050,24,0,26,1680,1632908780825,2,1024,2,48000,-16,experiment,0,even,MacIntel,5,293947,,,290712,51,291730,252475,51,24842,113372,295967,292735,296469,51,295967,Sternberg_updated,37,38689,39,yes,1024
95,95,1011,1011,black,no,experiment,Mozilla,Netscape,"5.0 (Macintosh; Intel Mac OS X 10_15_7) AppleWebKit/605.1.15 (KHTML, like Gecko) Version/14.1.1 Safari/605.1.15",legacy,legacy,legacy,0,uniform,1,1,right,39,39,39,39,0,0,0,39,39,0,0,0,39,39,39,0,0,39,39,0,29-08-21,29-08-21,11:45:01,Wed Sep 29 2021 11:45:01 GMT+0200 (CEST),The main experiment item,yes,0,0,/Users/ethan/Documents/GitHub/OpenSesame/Sternberg/experiment_files,0,0,0,no,mono,no,18,no,white,no,no,768,42,3.6.1,legacy,legacy,7 2 3,osweb,1.4.0,1,3,y,36,,0,right,,,space,right,right,right,1749,,,24778,14821,13410,1749,2,legacy,972,1680,24,1050,24,0,26,1680,1632908780825,3,1024,2,48000,-16,experiment,0,even,MacIntel,3,299716,,,296470,51,297498,252475,51,24842,113372,301723,298510,303487,51,301723,Sternberg_updated,38,40438,40,yes,1024
95,95,1010,1010,black,no,experiment,Mozilla,Netscape,"5.0 (Macintosh; Intel Mac OS X 10_15_7) AppleWebKit/605.1.15 (KHTML, like Gecko) Version/14.1.1 Safari/605.1.15",legacy,legacy,legacy,0,uniform,1,1,right,40,40,40,40,0,0,0,40,40,0,0,0,40,40,40,0,0,40,40,0,29-08-21,29-08-21,11:45:01,Wed Sep 29 2021 11:45:01 GMT+0200 (CEST),The main experiment item,yes,0,0,/Users/ethan/Documents/GitHub/OpenSesame/Sternberg/experiment_files,0,0,0,no,mono,no,18,no,white,no,no,768,42,3.6.1,legacy,legacy,6 2,osweb,1.4.0,1,1,y,36,,0,right,,,space,right,right,right,965,,,24778,14821,13410,965,2,legacy,972,1680,24,1050,24,0,26,1680,1632908780825,2,1024,2,48000,-16,experiment,0,even,MacIntel,6,306737,,,303489,51,304516,252475,51,24842,113372,308751,305522,309724,51,308751,Sternberg_updated,39,41403,41,yes,1024
95,95,1006,1006,black,no,experiment,Mozilla,Netscape,"5.0 (Macintosh; Intel Mac OS X 10_15_7) AppleWebKit/605.1.15 (KHTML, like Gecko) Version/14.1.1 Safari/605.1.15",legacy,legacy,legacy,0,uniform,1,1,left,41,41,41,41,0,0,0,41,41,0,0,0,41,41,41,0,0,41,41,0,29-08-21,29-08-21,11:45:01,Wed Sep 29 2021 11:45:01 GMT+0200 (CEST),The main experiment item,yes,0,0,/Users/ethan/Documents/GitHub/OpenSesame/Sternberg/experiment_files,0,0,0,no,mono,no,18,no,white,no,no,768,42,3.6.1,legacy,legacy,1 4 9 3,osweb,1.4.0,1,0,n,36,,0,left,,,space,right,right,left,868,,,24778,14821,13410,868,2,legacy,972,1680,24,1050,24,0,26,1680,1632908780825,4,1024,2,48000,-16,experiment,0,even,MacIntel,5,312959,,,309727,51,310746,252475,51,24842,113372,314978,311751,315858,51,314978,Sternberg_updated,40,42271,42,yes,1024
95,95,1006,1006,black,no,experiment,Mozilla,Netscape,"5.0 (Macintosh; Intel Mac OS X 10_15_7) AppleWebKit/605.1.15 (KHTML, like Gecko) Version/14.1.1 Safari/605.1.15",legacy,legacy,legacy,0,uniform,1,1,right,42,42,42,42,0,0,0,42,42,0,0,0,42,42,42,0,0,42,42,0,29-08-21,29-08-21,11:45:01,Wed Sep 29 2021 11:45:01 GMT+0200 (CEST),The main experiment item,yes,0,0,/Users/ethan/Documents/GitHub/OpenSesame/Sternberg/experiment_files,0,0,0,no,mono,no,18,no,white,no,no,768,42,3.6.1,legacy,legacy,4 6 5 8,osweb,1.4.0,1,1,y,36,,0,right,,,space,right,right,right,978,,,24778,14821,13410,978,2,legacy,972,1680,24,1050,24,0,26,1680,1632908780825,4,1024,2,48000,-16,experiment,0,even,MacIntel,4,319098,,,315860,51,316882,252475,51,24842,113372,321104,317887,322085,51,321104,Sternberg_updated,41,43249,43,yes,1024
95,95,1012,1012,black,no,experiment,Mozilla,Netscape,"5.0 (Macintosh; Intel Mac OS X 10_15_7) AppleWebKit/605.1.15 (KHTML, like Gecko) Version/14.1.1 Safari/605.1.15",legacy,legacy,legacy,0,uniform,1,1,right,43,43,43,43,0,0,0,43,43,0,0,0,43,43,43,0,0,43,43,0,29-08-21,29-08-21,11:45:01,Wed Sep 29 2021 11:45:01 GMT+0200 (CEST),The main experiment item,yes,0,0,/Users/ethan/Documents/GitHub/OpenSesame/Sternberg/experiment_files,0,0,0,no,mono,no,18,no,white,no,no,768,42,3.6.1,legacy,legacy,8 9 5 7 1 6,osweb,1.4.0,1,4,y,36,,0,right,,,space,right,right,right,1300,,,24778,14821,13410,1300,2,legacy,972,1680,24,1050,24,0,26,1680,1632908780825,6,1024,2,48000,-16,experiment,0,even,MacIntel,7,325336,,,322087,51,323115,252475,51,24842,113372,327347,324122,328653,51,327347,Sternberg_updated,42,44549,44,yes,1024
96,96,1010,1010,black,no,experiment,Mozilla,Netscape,"5.0 (Macintosh; Intel Mac OS X 10_15_7) AppleWebKit/605.1.15 (KHTML, like Gecko) Version/14.1.1 Safari/605.1.15",legacy,legacy,legacy,0,uniform,1,1,left,44,44,44,44,0,0,0,44,44,0,0,0,44,44,44,0,0,44,44,0,29-08-21,29-08-21,11:45:01,Wed Sep 29 2021 11:45:01 GMT+0200 (CEST),The main experiment item,yes,0,0,/Users/ethan/Documents/GitHub/OpenSesame/Sternberg/experiment_files,0,0,0,no,mono,no,18,no,white,no,no,768,42,3.6.1,legacy,legacy,4 2 7 6 1 3,osweb,1.4.0,1,0,n,36,,0,left,,,space,right,right,left,882,,,24778,14821,13410,882,2,legacy,972,1680,24,1050,24,0,26,1680,1632908780825,6,1024,2,48000,-16,experiment,0,even,MacIntel,8,331911,,,328659,51,329686,252475,51,24842,113372,333941,330701,334826,51,333941,Sternberg_updated,43,45431,45,yes,1024
96,96,1013,1013,black,no,experiment,Mozilla,Netscape,"5.0 (Macintosh; Intel Mac OS X 10_15_7) AppleWebKit/605.1.15 (KHTML, like Gecko) Version/14.1.1 Safari/605.1.15",legacy,legacy,legacy,0,uniform,1,1,right,45,45,45,45,0,0,0,45,45,0,0,0,45,45,45,0,0,45,45,0,29-08-21,29-08-21,11:45:01,Wed Sep 29 2021 11:45:01 GMT+0200 (CEST),The main experiment item,yes,0,0,/Users/ethan/Documents/GitHub/OpenSesame/Sternberg/experiment_files,0,0,0,no,mono,no,18,no,white,no,no,768,42,3.6.1,legacy,legacy,3 9 6 2,osweb,1.4.0,1,4,y,36,,0,right,,,space,right,right,right,1171,,,24778,14821,13410,1171,2,legacy,972,1680,24,1050,24,0,26,1680,1632908780825,4,1024,2,48000,-16,experiment,0,even,MacIntel,2,338073,,,334829,51,335855,252475,51,24842,113372,340092,336862,341264,51,340092,Sternberg_updated,44,46602,46,yes,1024
96,96,1005,1005,black,no,experiment,Mozilla,Netscape,"5.0 (Macintosh; Intel Mac OS X 10_15_7) AppleWebKit/605.1.15 (KHTML, like Gecko) Version/14.1.1 Safari/605.1.15",legacy,legacy,legacy,0,uniform,1,1,left,46,46,46,46,0,0,0,46,46,0,0,0,46,46,46,0,0,46,46,0,29-08-21,29-08-21,11:45:01,Wed Sep 29 2021 11:45:01 GMT+0200 (CEST),The main experiment item,yes,0,0,/Users/ethan/Documents/GitHub/OpenSesame/Sternberg/experiment_files,0,0,0,no,mono,no,18,no,white,no,no,768,42,3.6.1,legacy,legacy,3 4 2,osweb,1.4.0,1,0,n,36,,0,left,,,space,right,right,left,656,,,24778,14821,13410,656,2,legacy,972,1680,24,1050,24,0,26,1680,1632908780825,3,1024,2,48000,-16,experiment,0,even,MacIntel,5,344496,,,341268,51,342285,252475,51,24842,113372,346514,343290,347177,51,346514,Sternberg_updated,45,47258,47,yes,1024
94,94,1002,1002,black,no,experiment,Mozilla,Netscape,"5.0 (Macintosh; Intel Mac OS X 10_15_7) AppleWebKit/605.1.15 (KHTML, like Gecko) Version/14.1.1 Safari/605.1.15",legacy,legacy,legacy,0,uniform,0,0,right,47,47,47,47,0,0,0,47,47,0,0,0,47,47,47,0,0,47,47,0,29-08-21,29-08-21,11:45:01,Wed Sep 29 2021 11:45:01 GMT+0200 (CEST),The main experiment item,yes,0,0,/Users/ethan/Documents/GitHub/OpenSesame/Sternberg/experiment_files,0,0,0,no,mono,no,18,no,white,no,no,768,42,3.6.1,legacy,legacy,7 8 6 3 1,osweb,1.4.0,1,5,y,36,,0,left,,,space,right,right,left,853,,,24778,14821,13410,853,2,legacy,972,1680,24,1050,24,0,26,1680,1632908780825,5,1024,2,48000,-16,experiment,0,even,MacIntel,1,350415,,,347179,51,348198,252475,51,24842,113372,352427,349204,353291,51,352427,Sternberg_updated,45,48111,48,yes,1024
94,94,1003,1003,black,no,experiment,Mozilla,Netscape,"5.0 (Macintosh; Intel Mac OS X 10_15_7) AppleWebKit/605.1.15 (KHTML, like Gecko) Version/14.1.1 Safari/605.1.15",legacy,legacy,legacy,0,uniform,1,1,left,48,48,48,48,0,0,0,48,48,0,0,0,48,48,48,0,0,48,48,0,29-08-21,29-08-21,11:45:01,Wed Sep 29 2021 11:45:01 GMT+0200 (CEST),The main experiment item,yes,0,0,/Users/ethan/Documents/GitHub/OpenSesame/Sternberg/experiment_files,0,0,0,no,mono,no,18,no,white,no,no,768,42,3.6.1,legacy,legacy,7 9 1 6,osweb,1.4.0,1,0,n,36,,0,left,,,space,right,right,left,1050,,,24778,14821,13410,1050,2,legacy,972,1680,24,1050,24,0,26,1680,1632908780825,4,1024,2,48000,-16,experiment,0,even,MacIntel,4,356532,,,347179,51,354313,353293,51,24842,113372,358543,355328,359600,51,358543,Sternberg_updated,46,49161,49,yes,1024
94,94,1001,1001,black,no,experiment,Mozilla,Netscape,"5.0 (Macintosh; Intel Mac OS X 10_15_7) AppleWebKit/605.1.15 (KHTML, like Gecko) Version/14.1.1 Safari/605.1.15",legacy,legacy,legacy,0,uniform,1,1,right,49,49,49,49,0,0,0,49,49,0,0,0,49,49,49,0,0,49,49,0,29-08-21,29-08-21,11:45:01,Wed Sep 29 2021 11:45:01 GMT+0200 (CEST),The main experiment item,yes,0,0,/Users/ethan/Documents/GitHub/OpenSesame/Sternberg/experiment_files,0,0,0,no,mono,no,18,no,white,no,no,768,42,3.6.1,legacy,legacy,8 5 1 3 9,osweb,1.4.0,1,4,y,36,,0,right,,,space,right,right,right,869,,,24778,14821,13410,869,2,legacy,972,1680,24,1050,24,0,26,1680,1632908780825,5,1024,2,48000,-16,experiment,0,even,MacIntel,3,362835,,,359602,51,360625,353293,51,24842,113372,364847,361630,365727,51,364847,Sternberg_updated,47,50030,50,yes,1024
94,94,994,994,black,no,experiment,Mozilla,Netscape,"5.0 (Macintosh; Intel Mac OS X 10_15_7) AppleWebKit/605.1.15 (KHTML, like Gecko) Version/14.1.1 Safari/605.1.15",legacy,legacy,legacy,0,uniform,1,1,left,50,50,50,50,0,0,0,50,50,0,0,0,50,50,50,0,0,50,50,0,29-08-21,29-08-21,11:45:01,Wed Sep 29 2021 11:45:01 GMT+0200 (CEST),The main experiment item,yes,0,0,/Users/ethan/Documents/GitHub/OpenSesame/Sternberg/experiment_files,0,0,0,no,mono,no,18,no,white,no,no,768,42,3.6.1,legacy,legacy,7 1,osweb,1.4.0,1,0,n,36,,0,left,,,space,right,right,left,689,,,24778,14821,13410,689,2,legacy,972,1680,24,1050,24,0,26,1680,1632908780825,2,1024,2,48000,-16,experiment,0,even,MacIntel,8,368971,,,365729,51,366759,353293,51,24842,113372,370979,367765,371677,51,370979,Sternberg_updated,48,50719,51,yes,1024
94,94,993,993,black,no,experiment,Mozilla,Netscape,"5.0 (Macintosh; Intel Mac OS X 10_15_7) AppleWebKit/605.1.15 (KHTML, like Gecko) Version/14.1.1 Safari/605.1.15",legacy,legacy,legacy,0,uniform,1,1,right,51,51,51,51,0,0,0,51,51,0,0,0,51,51,51,0,0,51,51,0,29-08-21,29-08-21,11:45:01,Wed Sep 29 2021 11:45:01 GMT+0200 (CEST),The main experiment item,yes,0,0,/Users/ethan/Documents/GitHub/OpenSesame/Sternberg/experiment_files,0,0,0,no,mono,no,18,no,white,no,no,768,42,3.6.1,legacy,legacy,2 3 7 4,osweb,1.4.0,1,1,y,36,,0,right,,,space,right,right,right,939,,,24778,14821,13410,939,2,legacy,972,1680,24,1050,24,0,26,1680,1632908780825,4,1024,2,48000,-16,experiment,0,even,MacIntel,2,374908,,,371679,51,372700,353293,51,24842,113372,376919,373705,377867,51,376919,Sternberg_updated,49,51658,52,yes,1024
94,94,988,988,black,no,experiment,Mozilla,Netscape,"5.0 (Macintosh; Intel Mac OS X 10_15_7) AppleWebKit/605.1.15 (KHTML, like Gecko) Version/14.1.1 Safari/605.1.15",legacy,legacy,legacy,0,uniform,1,1,right,52,52,52,52,0,0,0,52,52,0,0,0,52,52,52,0,0,52,52,0,29-08-21,29-08-21,11:45:01,Wed Sep 29 2021 11:45:01 GMT+0200 (CEST),The main experiment item,yes,0,0,/Users/ethan/Documents/GitHub/OpenSesame/Sternberg/experiment_files,0,0,0,no,mono,no,18,no,white,no,no,768,42,3.6.1,legacy,legacy,6 7 8 5,osweb,1.4.0,1,3,y,36,,0,right,,,space,right,right,right,724,,,24778,14821,13410,724,2,legacy,972,1680,24,1050,24,0,26,1680,1632908780825,4,1024,2,48000,-16,experiment,0,even,MacIntel,8,381123,,,377883,51,378901,353293,51,24842,113372,383140,379913,383868,51,383140,Sternberg_updated,50,52382,53,yes,1024
94,94,985,985,black,no,experiment,Mozilla,Netscape,"5.0 (Macintosh; Intel Mac OS X 10_15_7) AppleWebKit/605.1.15 (KHTML, like Gecko) Version/14.1.1 Safari/605.1.15",legacy,legacy,legacy,0,uniform,1,1,right,53,53,53,53,0,0,0,53,53,0,0,0,53,53,53,0,0,53,53,0,29-08-21,29-08-21,11:45:01,Wed Sep 29 2021 11:45:01 GMT+0200 (CEST),The main experiment item,yes,0,0,/Users/ethan/Documents/GitHub/OpenSesame/Sternberg/experiment_files,0,0,0,no,mono,no,18,no,white,no,no,768,42,3.6.1,legacy,legacy,9 3 8 2 1 4,osweb,1.4.0,1,3,y,36,,0,right,,,space,right,right,right,782,,,24778,14821,13410,782,2,legacy,972,1680,24,1050,24,0,26,1680,1632908780825,6,1024,2,48000,-16,experiment,0,even,MacIntel,8,387119,,,383870,51,384899,353293,51,24842,113372,389136,385903,389932,51,389136,Sternberg_updated,51,53164,54,yes,1024
95,95,986,986,black,no,experiment,Mozilla,Netscape,"5.0 (Macintosh; Intel Mac OS X 10_15_7) AppleWebKit/605.1.15 (KHTML, like Gecko) Version/14.1.1 Safari/605.1.15",legacy,legacy,legacy,0,uniform,1,1,left,54,54,54,54,0,0,0,54,54,0,0,0,54,54,54,0,0,54,54,0,29-08-21,29-08-21,11:45:01,Wed Sep 29 2021 11:45:01 GMT+0200 (CEST),The main experiment item,yes,0,0,/Users/ethan/Documents/GitHub/OpenSesame/Sternberg/experiment_files,0,0,0,no,mono,no,18,no,white,no,no,768,42,3.6.1,legacy,legacy,2 7 5,osweb,1.4.0,1,0,n,36,,0,left,,,space,right,right,left,1043,,,24778,14821,13410,1043,2,legacy,972,1680,24,1050,24,0,26,1680,1632908780825,3,1024,2,48000,-16,experiment,0,even,MacIntel,8,393183,,,389934,51,390962,353293,51,24842,113372,395195,391971,396243,51,395195,Sternberg_updated,52,54207,55,yes,1024
95,95,982,982,black,no,experiment,Mozilla,Netscape,"5.0 (Macintosh; Intel Mac OS X 10_15_7) AppleWebKit/605.1.15 (KHTML, like Gecko) Version/14.1.1 Safari/605.1.15",legacy,legacy,legacy,0,uniform,1,1,right,55,55,55,55,0,0,0,55,55,0,0,0,55,55,55,0,0,55,55,0,29-08-21,29-08-21,11:45:01,Wed Sep 29 2021 11:45:01 GMT+0200 (CEST),The main experiment item,yes,0,0,/Users/ethan/Documents/GitHub/OpenSesame/Sternberg/experiment_files,0,0,0,no,mono,no,18,no,white,no,no,768,42,3.6.1,legacy,legacy,9 6 2 4 1,osweb,1.4.0,1,4,y,36,,0,right,right,,space,right,right,right,812,20103,,24778,14821,13410,812,2,legacy,972,1680,24,1050,24,0,26,1680,1632908780825,5,1024,2,48000,-16,experiment,0,even,MacIntel,4,419616,397265,,396245,51,417390,353293,51,24842,113372,421627,418399,422441,51,421627,Sternberg_updated,53,55019,56,yes,1024
95,95,977,977,black,no,experiment,Mozilla,Netscape,"5.0 (Macintosh; Intel Mac OS X 10_15_7) AppleWebKit/605.1.15 (KHTML, like Gecko) Version/14.1.1 Safari/605.1.15",legacy,legacy,legacy,0,uniform,1,1,right,56,56,56,56,0,0,0,56,56,0,0,0,56,56,56,0,0,56,56,0,29-08-21,29-08-21,11:45:01,Wed Sep 29 2021 11:45:01 GMT+0200 (CEST),The main experiment item,yes,0,0,/Users/ethan/Documents/GitHub/OpenSesame/Sternberg/experiment_files,0,0,0,no,mono,no,18,no,white,no,no,768,42,3.6.1,legacy,legacy,8 3,osweb,1.4.0,1,2,y,36,,0,right,right,,space,right,right,right,662,20103,,24778,14821,13410,662,2,legacy,972,1680,24,1050,24,0,26,1680,1632908780825,2,1024,2,48000,-16,experiment,0,even,MacIntel,3,425680,397265,,422443,51,423460,353293,51,24842,113372,427684,424471,428351,51,427684,Sternberg_updated,54,55681,57,yes,1024
95,95,980,980,black,no,experiment,Mozilla,Netscape,"5.0 (Macintosh; Intel Mac OS X 10_15_7) AppleWebKit/605.1.15 (KHTML, like Gecko) Version/14.1.1 Safari/605.1.15",legacy,legacy,legacy,0,uniform,1,1,left,57,57,57,57,0,0,0,57,57,0,0,0,57,57,57,0,0,57,57,0,29-08-21,29-08-21,11:45:01,Wed Sep 29 2021 11:45:01 GMT+0200 (CEST),The main experiment item,yes,0,0,/Users/ethan/Documents/GitHub/OpenSesame/Sternberg/experiment_files,0,0,0,no,mono,no,18,no,white,no,no,768,42,3.6.1,legacy,legacy,6 9 4 5 2,osweb,1.4.0,1,0,n,36,,0,left,right,,space,right,right,left,1183,20103,,24778,14821,13410,1183,2,legacy,972,1680,24,1050,24,0,26,1680,1632908780825,5,1024,2,48000,-16,experiment,0,even,MacIntel,1,431592,397265,,428353,51,429370,353293,51,24842,113372,433606,430382,434800,51,433606,Sternberg_updated,55,56864,58,yes,1024
95,95,981,981,black,no,experiment,Mozilla,Netscape,"5.0 (Macintosh; Intel Mac OS X 10_15_7) AppleWebKit/605.1.15 (KHTML, like Gecko) Version/14.1.1 Safari/605.1.15",legacy,legacy,legacy,0,uniform,1,1,left,58,58,58,58,0,0,0,58,58,0,0,0,58,58,58,0,0,58,58,0,29-08-21,29-08-21,11:45:01,Wed Sep 29 2021 11:45:01 GMT+0200 (CEST),The main experiment item,yes,0,0,/Users/ethan/Documents/GitHub/OpenSesame/Sternberg/experiment_files,0,0,0,no,mono,no,18,no,white,no,no,768,42,3.6.1,legacy,legacy,2 8 6 3 1,osweb,1.4.0,1,0,n,36,,0,left,right,,space,right,right,left,1032,20103,,24778,14821,13410,1032,2,legacy,972,1680,24,1050,24,0,26,1680,1632908780825,5,1024,2,48000,-16,experiment,0,even,MacIntel,7,438050,397265,,434802,51,435831,353293,51,24842,113372,440065,436838,441110,51,440065,Sternberg_updated,56,57896,59,yes,1024
95,95,983,983,black,no,experiment,Mozilla,Netscape,"5.0 (Macintosh; Intel Mac OS X 10_15_7) AppleWebKit/605.1.15 (KHTML, like Gecko) Version/14.1.1 Safari/605.1.15",legacy,legacy,legacy,0,uniform,1,1,right,59,59,59,59,0,0,0,59,59,0,0,0,59,59,59,0,0,59,59,0,29-08-21,29-08-21,11:45:01,Wed Sep 29 2021 11:45:01 GMT+0200 (CEST),The main experiment item,yes,0,0,/Users/ethan/Documents/GitHub/OpenSesame/Sternberg/experiment_files,0,0,0,no,mono,no,18,no,white,no,no,768,42,3.6.1,legacy,legacy,8 5 4 7 3 1,osweb,1.4.0,1,2,y,36,,0,right,right,,space,right,right,right,1085,20103,,24778,14821,13410,1085,2,legacy,972,1680,24,1050,24,0,26,1680,1632908780825,6,1024,2,48000,-16,experiment,0,even,MacIntel,5,444355,397265,,441112,51,442131,353293,51,24842,113372,446375,443150,447474,51,446375,Sternberg_updated,57,58981,60,yes,1024
95,95,982,982,black,no,experiment,Mozilla,Netscape,"5.0 (Macintosh; Intel Mac OS X 10_15_7) AppleWebKit/605.1.15 (KHTML, like Gecko) Version/14.1.1 Safari/605.1.15",legacy,legacy,legacy,0,uniform,1,1,left,60,60,60,60,0,0,0,60,60,0,0,0,60,60,60,0,0,60,60,0,29-08-21,29-08-21,11:45:01,Wed Sep 29 2021 11:45:01 GMT+0200 (CEST),The main experiment item,yes,0,0,/Users/ethan/Documents/GitHub/OpenSesame/Sternberg/experiment_files,0,0,0,no,mono,no,18,no,white,no,no,768,42,3.6.1,legacy,legacy,4 2 6 9,osweb,1.4.0,1,0,n,36,,0,left,right,,space,right,right,left,918,20103,,24778,14821,13410,918,2,legacy,972,1680,24,1050,24,0,26,1680,1632908780825,4,1024,2,48000,-16,experiment,0,even,MacIntel,7,450724,397265,,447475,51,448496,353293,51,24842,113372,452738,449506,453661,51,452738,Sternberg_updated,58,59899,61,yes,1024
95,95,986,986,black,no,experiment,Mozilla,Netscape,"5.0 (Macintosh; Intel Mac OS X 10_15_7) AppleWebKit/605.1.15 (KHTML, like Gecko) Version/14.1.1 Safari/605.1.15",legacy,legacy,legacy,0,uniform,1,1,right,61,61,61,61,0,0,0,61,61,0,0,0,61,61,61,0,0,61,61,0,29-08-21,29-08-21,11:45:01,Wed Sep 29 2021 11:45:01 GMT+0200 (CEST),The main experiment item,yes,0,0,/Users/ethan/Documents/GitHub/OpenSesame/Sternberg/experiment_files,0,0,0,no,mono,no,18,no,white,no,no,768,42,3.6.1,legacy,legacy,6 9 7 4 5 1,osweb,1.4.0,1,2,y,36,,0,right,right,,space,right,right,right,1217,20103,,24778,14821,13410,1217,2,legacy,972,1680,24,1050,24,0,26,1680,1632908780825,6,1024,2,48000,-16,experiment,0,even,MacIntel,9,456907,397265,,453667,51,454686,353293,51,24842,113372,458917,455705,460146,51,458917,Sternberg_updated,59,61116,62,yes,1024
95,95,984,984,black,no,experiment,Mozilla,Netscape,"5.0 (Macintosh; Intel Mac OS X 10_15_7) AppleWebKit/605.1.15 (KHTML, like Gecko) Version/14.1.1 Safari/605.1.15",legacy,legacy,legacy,0,uniform,1,1,left,62,62,62,62,0,0,0,62,62,0,0,0,62,62,62,0,0,62,62,0,29-08-21,29-08-21,11:45:01,Wed Sep 29 2021 11:45:01 GMT+0200 (CEST),The main experiment item,yes,0,0,/Users/ethan/Documents/GitHub/OpenSesame/Sternberg/experiment_files,0,0,0,no,mono,no,18,no,white,no,no,768,42,3.6.1,legacy,legacy,7 8 6 1,osweb,1.4.0,1,0,n,36,,0,left,right,,space,right,right,left,863,20103,,24778,14821,13410,863,2,legacy,972,1680,24,1050,24,0,26,1680,1632908780825,4,1024,2,48000,-16,experiment,0,even,MacIntel,3,463402,397265,,460148,51,461178,353293,51,24842,113372,465408,462190,466282,51,465408,Sternberg_updated,60,61979,63,yes,1024
95,95,986,986,black,no,experiment,Mozilla,Netscape,"5.0 (Macintosh; Intel Mac OS X 10_15_7) AppleWebKit/605.1.15 (KHTML, like Gecko) Version/14.1.1 Safari/605.1.15",legacy,legacy,legacy,0,uniform,1,1,left,63,63,63,63,0,0,0,63,63,0,0,0,63,63,63,0,0,63,63,0,29-08-21,29-08-21,11:45:01,Wed Sep 29 2021 11:45:01 GMT+0200 (CEST),The main experiment item,yes,0,0,/Users/ethan/Documents/GitHub/OpenSesame/Sternberg/experiment_files,0,0,0,no,mono,no,18,no,white,no,no,768,42,3.6.1,legacy,legacy,2 3 8 5 6 7,osweb,1.4.0,1,0,n,36,,0,left,right,,space,right,right,left,1109,20103,,24778,14821,13410,1109,2,legacy,972,1680,24,1050,24,0,26,1680,1632908780825,6,1024,2,48000,-16,experiment,0,even,MacIntel,1,469520,397265,,466284,51,467303,353293,51,24842,113372,471539,468317,472653,51,471539,Sternberg_updated,61,63088,64,yes,1024
95,95,985,985,black,no,experiment,Mozilla,Netscape,"5.0 (Macintosh; Intel Mac OS X 10_15_7) AppleWebKit/605.1.15 (KHTML, like Gecko) Version/14.1.1 Safari/605.1.15",legacy,legacy,legacy,0,uniform,1,1,left,64,64,64,64,0,0,0,64,64,0,0,0,64,64,64,0,0,64,64,0,29-08-21,29-08-21,11:45:01,Wed Sep 29 2021 11:45:01 GMT+0200 (CEST),The main experiment item,yes,0,0,/Users/ethan/Documents/GitHub/OpenSesame/Sternberg/experiment_files,0,0,0,no,mono,no,18,no,white,no,no,768,42,3.6.1,legacy,legacy,3 9 8 1 6 4,osweb,1.4.0,1,0,n,36,,0,left,right,,space,right,right,left,936,20103,,24778,14821,13410,936,2,legacy,972,1680,24,1050,24,0,26,1680,1632908780825,6,1024,2,48000,-16,experiment,0,even,MacIntel,7,475915,397265,,472655,51,473684,353293,51,24842,113372,477927,474704,478873,51,477927,Sternberg_updated,62,64024,65,yes,1024
95,95,988,988,black,no,experiment,Mozilla,Netscape,"5.0 (Macintosh; Intel Mac OS X 10_15_7) AppleWebKit/605.1.15 (KHTML, like Gecko) Version/14.1.1 Safari/605.1.15",legacy,legacy,legacy,0,uniform,1,1,right,65,65,65,65,0,0,0,65,65,0,0,0,65,65,65,0,0,65,65,0,29-08-21,29-08-21,11:45:01,Wed Sep 29 2021 11:45:01 GMT+0200 (CEST),The main experiment item,yes,0,0,/Users/ethan/Documents/GitHub/OpenSesame/Sternberg/experiment_files,0,0,0,no,mono,no,18,no,white,no,no,768,42,3.6.1,legacy,legacy,2 5 4 8 7,osweb,1.4.0,1,3,y,36,,0,right,right,,space,right,right,right,1190,20103,,24778,14821,13410,1190,2,legacy,972,1680,24,1050,24,0,26,1680,1632908780825,5,1024,2,48000,-16,experiment,0,even,MacIntel,4,482127,397265,,478875,51,479899,353293,51,24842,113372,484142,480918,485347,51,484142,Sternberg_updated,63,65214,66,yes,1024
96,96,990,990,black,no,experiment,Mozilla,Netscape,"5.0 (Macintosh; Intel Mac OS X 10_15_7) AppleWebKit/605.1.15 (KHTML, like Gecko) Version/14.1.1 Safari/605.1.15",legacy,legacy,legacy,0,uniform,1,1,left,66,66,66,66,0,0,0,66,66,0,0,0,66,66,66,0,0,66,66,0,29-08-21,29-08-21,11:45:01,Wed Sep 29 2021 11:45:01 GMT+0200 (CEST),The main experiment item,yes,0,0,/Users/ethan/Documents/GitHub/OpenSesame/Sternberg/experiment_files,0,0,0,no,mono,no,18,no,white,no,no,768,42,3.6.1,legacy,legacy,1 7 5 2,osweb,1.4.0,1,0,n,36,,0,left,right,,space,right,right,left,1109,20103,,24778,14821,13410,1109,2,legacy,972,1680,24,1050,24,0,26,1680,1632908780825,4,1024,2,48000,-16,experiment,0,even,MacIntel,3,488602,397265,,485349,51,486377,353293,51,24842,113372,490619,487390,491738,51,490619,Sternberg_updated,64,66323,67,yes,1024
96,96,986,986,black,no,experiment,Mozilla,Netscape,"5.0 (Macintosh; Intel Mac OS X 10_15_7) AppleWebKit/605.1.15 (KHTML, like Gecko) Version/14.1.1 Safari/605.1.15",legacy,legacy,legacy,0,uniform,1,1,right,67,67,67,67,0,0,0,67,67,0,0,0,67,67,67,0,0,67,67,0,29-08-21,29-08-21,11:45:01,Wed Sep 29 2021 11:45:01 GMT+0200 (CEST),The main experiment item,yes,0,0,/Users/ethan/Documents/GitHub/OpenSesame/Sternberg/experiment_files,0,0,0,no,mono,no,18,no,white,no,no,768,42,3.6.1,legacy,legacy,4,osweb,1.4.0,1,1,y,36,,0,right,right,,space,right,right,right,749,20103,,24778,14821,13410,749,2,legacy,972,1680,24,1050,24,0,26,1680,1632908780825,1,1024,2,48000,-16,experiment,0,even,MacIntel,4,494986,397265,,491740,51,492768,353293,51,24842,113372,496998,493777,497760,51,496998,Sternberg_updated,65,67072,68,yes,1024
96,96,988,988,black,no,experiment,Mozilla,Netscape,"5.0 (Macintosh; Intel Mac OS X 10_15_7) AppleWebKit/605.1.15 (KHTML, like Gecko) Version/14.1.1 Safari/605.1.15",legacy,legacy,legacy,0,uniform,1,1,right,68,68,68,68,0,0,0,68,68,0,0,0,68,68,68,0,0,68,68,0,29-08-21,29-08-21,11:45:01,Wed Sep 29 2021 11:45:01 GMT+0200 (CEST),The main experiment item,yes,0,0,/Users/ethan/Documents/GitHub/OpenSesame/Sternberg/experiment_files,0,0,0,no,mono,no,18,no,white,no,no,768,42,3.6.1,legacy,legacy,4 1 5,osweb,1.4.0,1,2,y,36,,0,right,right,,space,right,right,right,1103,20103,,24778,14821,13410,1103,2,legacy,972,1680,24,1050,24,0,26,1680,1632908780825,3,1024,2,48000,-16,experiment,0,even,MacIntel,1,501015,397265,,497762,51,498791,353293,51,24842,113372,503024,499808,504130,51,503024,Sternberg_updated,66,68175,69,yes,1024
96,96,984,984,black,no,experiment,Mozilla,Netscape,"5.0 (Macintosh; Intel Mac OS X 10_15_7) AppleWebKit/605.1.15 (KHTML, like Gecko) Version/14.1.1 Safari/605.1.15",legacy,legacy,legacy,0,uniform,1,1,right,69,69,69,69,0,0,0,69,69,0,0,0,69,69,69,0,0,69,69,0,29-08-21,29-08-21,11:45:01,Wed Sep 29 2021 11:45:01 GMT+0200 (CEST),The main experiment item,yes,0,0,/Users/ethan/Documents/GitHub/OpenSesame/Sternberg/experiment_files,0,0,0,no,mono,no,18,no,white,no,no,768,42,3.6.1,legacy,legacy,7 6,osweb,1.4.0,1,2,y,36,,0,right,right,,space,right,right,right,705,20103,,24778,14821,13410,705,2,legacy,972,1680,24,1050,24,0,26,1680,1632908780825,2,1024,2,48000,-16,experiment,0,even,MacIntel,6,507398,397265,,504133,51,505160,353293,51,24842,113372,509411,506180,510133,51,509411,Sternberg_updated,67,68880,70,yes,1024
96,96,980,980,black,no,experiment,Mozilla,Netscape,"5.0 (Macintosh; Intel Mac OS X 10_15_7) AppleWebKit/605.1.15 (KHTML, like Gecko) Version/14.1.1 Safari/605.1.15",legacy,legacy,legacy,0,uniform,1,1,right,70,70,70,70,0,0,0,70,70,0,0,0,70,70,70,0,0,70,70,0,29-08-21,29-08-21,11:45:01,Wed Sep 29 2021 11:45:01 GMT+0200 (CEST),The main experiment item,yes,0,0,/Users/ethan/Documents/GitHub/OpenSesame/Sternberg/experiment_files,0,0,0,no,mono,no,18,no,white,no,no,768,42,3.6.1,legacy,legacy,2 8 5 1,osweb,1.4.0,1,4,y,36,,0,right,right,,space,right,right,right,700,20103,,24778,14821,13410,700,2,legacy,972,1680,24,1050,24,0,26,1680,1632908780825,4,1024,2,48000,-16,experiment,0,even,MacIntel,1,513390,397265,,510135,51,511163,353293,51,24842,113372,515397,512171,516109,51,515397,Sternberg_updated,68,69580,71,yes,1024
96,96,977,977,black,no,experiment,Mozilla,Netscape,"5.0 (Macintosh; Intel Mac OS X 10_15_7) AppleWebKit/605.1.15 (KHTML, like Gecko) Version/14.1.1 Safari/605.1.15",legacy,legacy,legacy,0,uniform,1,1,right,71,71,71,71,0,0,0,71,71,0,0,0,71,71,71,0,0,71,71,0,29-08-21,29-08-21,11:45:01,Wed Sep 29 2021 11:45:01 GMT+0200 (CEST),The main experiment item,yes,0,0,/Users/ethan/Documents/GitHub/OpenSesame/Sternberg/experiment_files,0,0,0,no,mono,no,18,no,white,no,no,768,42,3.6.1,legacy,legacy,4 6 2 5 1,osweb,1.4.0,1,5,y,36,,0,right,right,,space,right,right,right,759,20103,,24778,14821,13410,759,2,legacy,972,1680,24,1050,24,0,26,1680,1632908780825,5,1024,2,48000,-16,experiment,0,even,MacIntel,1,519371,397265,,516111,51,517139,353293,51,24842,113372,521380,518158,522142,51,521380,Sternberg_updated,69,70339,72,yes,1024
96,96,974,974,black,no,experiment,Mozilla,Netscape,"5.0 (Macintosh; Intel Mac OS X 10_15_7) AppleWebKit/605.1.15 (KHTML, like Gecko) Version/14.1.1 Safari/605.1.15",legacy,legacy,legacy,0,uniform,1,1,left,72,72,72,72,0,0,0,72,72,0,0,0,72,72,72,0,0,72,72,0,29-08-21,29-08-21,11:45:01,Wed Sep 29 2021 11:45:01 GMT+0200 (CEST),The main experiment item,yes,0,0,/Users/ethan/Documents/GitHub/OpenSesame/Sternberg/experiment_files,0,0,0,no,mono,no,18,no,white,no,no,768,42,3.6.1,legacy,legacy,1 6 4 3 9 7,osweb,1.4.0,1,0,n,36,,0,left,right,,space,right,right,left,768,20103,,24778,14821,13410,768,2,legacy,972,1680,24,1050,24,0,26,1680,1632908780825,6,1024,2,48000,-16,experiment,0,even,MacIntel,8,525400,397265,,522144,51,523172,353293,51,24842,113372,527416,524185,528195,51,527416,Sternberg_updated,70,71107,73,yes,1024
96,96,980,980,black,no,experiment,Mozilla,Netscape,"5.0 (Macintosh; Intel Mac OS X 10_15_7) AppleWebKit/605.1.15 (KHTML, like Gecko) Version/14.1.1 Safari/605.1.15",legacy,legacy,legacy,0,uniform,1,1,right,73,73,73,73,0,0,0,73,73,0,0,0,73,73,73,0,0,73,73,0,29-08-21,29-08-21,11:45:01,Wed Sep 29 2021 11:45:01 GMT+0200 (CEST),The main experiment item,yes,0,0,/Users/ethan/Documents/GitHub/OpenSesame/Sternberg/experiment_files,0,0,0,no,mono,no,18,no,white,no,no,768,42,3.6.1,legacy,legacy,9 4 2,osweb,1.4.0,1,1,y,36,,0,right,right,,space,right,right,right,1444,20103,,24778,14821,13410,1444,2,legacy,972,1680,24,1050,24,0,26,1680,1632908780825,3,1024,2,48000,-16,experiment,0,even,MacIntel,9,531438,397265,,528197,51,529216,353293,51,24842,113372,533449,530224,534904,51,533449,Sternberg_updated,71,72551,74,yes,1024
96,96,976,976,black,no,experiment,Mozilla,Netscape,"5.0 (Macintosh; Intel Mac OS X 10_15_7) AppleWebKit/605.1.15 (KHTML, like Gecko) Version/14.1.1 Safari/605.1.15",legacy,legacy,legacy,0,uniform,1,1,left,74,74,74,74,0,0,0,74,74,0,0,0,74,74,74,0,0,74,74,0,29-08-21,29-08-21,11:45:01,Wed Sep 29 2021 11:45:01 GMT+0200 (CEST),The main experiment item,yes,0,0,/Users/ethan/Documents/GitHub/OpenSesame/Sternberg/experiment_files,0,0,0,no,mono,no,18,no,white,no,no,768,42,3.6.1,legacy,legacy,2 5 1 4,osweb,1.4.0,1,0,n,36,,0,left,right,,space,right,right,left,660,20103,,24778,14821,13410,660,2,legacy,972,1680,24,1050,24,0,26,1680,1632908780825,4,1024,2,48000,-16,experiment,0,even,MacIntel,6,538155,397265,,534907,51,535935,353293,51,24842,113372,540175,536942,540836,51,540175,Sternberg_updated,72,73211,75,yes,1024
96,96,975,975,black,no,experiment,Mozilla,Netscape,"5.0 (Macintosh; Intel Mac OS X 10_15_7) AppleWebKit/605.1.15 (KHTML, like Gecko) Version/14.1.1 Safari/605.1.15",legacy,legacy,legacy,0,uniform,1,1,right,75,75,75,75,0,0,0,75,75,0,0,0,75,75,75,0,0,75,75,0,29-08-21,29-08-21,11:45:01,Wed Sep 29 2021 11:45:01 GMT+0200 (CEST),The main experiment item,yes,0,0,/Users/ethan/Documents/GitHub/OpenSesame/Sternberg/experiment_files,0,0,0,no,mono,no,18,no,white,no,no,768,42,3.6.1,legacy,legacy,9 8 4,osweb,1.4.0,1,1,y,36,,0,right,right,,space,right,right,right,852,20103,,24778,14821,13410,852,2,legacy,972,1680,24,1050,24,0,26,1680,1632908780825,3,1024,2,48000,-16,experiment,0,even,MacIntel,9,544077,397265,,540839,51,541860,353293,51,24842,113372,546095,542865,546954,51,546095,Sternberg_updated,73,74063,76,yes,1024
96,96,970,970,black,no,experiment,Mozilla,Netscape,"5.0 (Macintosh; Intel Mac OS X 10_15_7) AppleWebKit/605.1.15 (KHTML, like Gecko) Version/14.1.1 Safari/605.1.15",legacy,legacy,legacy,0,uniform,1,1,left,76,76,76,76,0,0,0,76,76,0,0,0,76,76,76,0,0,76,76,0,29-08-21,29-08-21,11:45:01,Wed Sep 29 2021 11:45:01 GMT+0200 (CEST),The main experiment item,yes,0,0,/Users/ethan/Documents/GitHub/OpenSesame/Sternberg/experiment_files,0,0,0,no,mono,no,18,no,white,no,no,768,42,3.6.1,legacy,legacy,6 9 5,osweb,1.4.0,1,0,n,36,,0,left,right,,space,right,right,left,636,20103,,24778,14821,13410,636,2,legacy,972,1680,24,1050,24,0,26,1680,1632908780825,3,1024,2,48000,-16,experiment,0,even,MacIntel,8,550220,397265,,546967,51,548001,353293,51,24842,113372,552235,549006,552882,51,552235,Sternberg_updated,74,74699,77,yes,1024
96,96,972,972,black,no,experiment,Mozilla,Netscape,"5.0 (Macintosh; Intel Mac OS X 10_15_7) AppleWebKit/605.1.15 (KHTML, like Gecko) Version/14.1.1 Safari/605.1.15",legacy,legacy,legacy,0,uniform,1,1,left,77,77,77,77,0,0,0,77,77,0,0,0,77,77,77,0,0,77,77,0,29-08-21,29-08-21,11:45:01,Wed Sep 29 2021 11:45:01 GMT+0200 (CEST),The main experiment item,yes,0,0,/Users/ethan/Documents/GitHub/OpenSesame/Sternberg/experiment_files,0,0,0,no,mono,no,18,no,white,no,no,768,42,3.6.1,legacy,legacy,7 1 5 6 3,osweb,1.4.0,1,0,n,36,,0,left,right,,space,right,right,left,1140,20103,,24778,14821,13410,1140,2,legacy,972,1680,24,1050,24,0,26,1680,1632908780825,5,1024,2,48000,-16,experiment,0,even,MacIntel,8,556143,397265,,552897,51,553913,353293,51,24842,113372,558157,554929,559307,51,558157,Sternberg_updated,75,75839,78,yes,1024
96,96,973,973,black,no,experiment,Mozilla,Netscape,"5.0 (Macintosh; Intel Mac OS X 10_15_7) AppleWebKit/605.1.15 (KHTML, like Gecko) Version/14.1.1 Safari/605.1.15",legacy,legacy,legacy,0,uniform,1,1,left,78,78,78,78,0,0,0,78,78,0,0,0,78,78,78,0,0,78,78,0,29-08-21,29-08-21,11:45:01,Wed Sep 29 2021 11:45:01 GMT+0200 (CEST),The main experiment item,yes,0,0,/Users/ethan/Documents/GitHub/OpenSesame/Sternberg/experiment_files,0,0,0,no,mono,no,18,no,white,no,no,768,42,3.6.1,legacy,legacy,8 5 4 2 9 6,osweb,1.4.0,1,0,n,36,,0,left,right,,space,right,right,left,1061,20103,,24778,14821,13410,1061,2,legacy,972,1680,24,1050,24,0,26,1680,1632908780825,6,1024,2,48000,-16,experiment,0,even,MacIntel,3,562559,397265,,559312,51,560340,353293,51,24842,113372,564576,561346,565639,51,564576,Sternberg_updated,76,76900,79,yes,1024
96,96,972,972,black,no,experiment,Mozilla,Netscape,"5.0 (Macintosh; Intel Mac OS X 10_15_7) AppleWebKit/605.1.15 (KHTML, like Gecko) Version/14.1.1 Safari/605.1.15",legacy,legacy,legacy,0,uniform,1,1,right,79,79,79,79,0,0,0,79,79,0,0,0,79,79,79,0,0,79,79,0,29-08-21,29-08-21,11:45:01,Wed Sep 29 2021 11:45:01 GMT+0200 (CEST),The main experiment item,yes,0,0,/Users/ethan/Documents/GitHub/OpenSesame/Sternberg/experiment_files,0,0,0,no,mono,no,18,no,white,no,no,768,42,3.6.1,legacy,legacy,2 3,osweb,1.4.0,1,1,y,36,,0,right,right,,space,right,right,right,833,20103,,24778,14821,13410,833,2,legacy,972,1680,24,1050,24,0,26,1680,1632908780825,2,1024,2,48000,-16,experiment,0,even,MacIntel,2,568882,397265,,565642,51,566658,353293,51,24842,113372,570891,567670,571729,51,570891,Sternberg_updated,77,77733,80,yes,1024
96,96,971,971,black,no,experiment,Mozilla,Netscape,"5.0 (Macintosh; Intel Mac OS X 10_15_7) AppleWebKit/605.1.15 (KHTML, like Gecko) Version/14.1.1 Safari/605.1.15",legacy,legacy,legacy,0,uniform,1,1,right,80,80,80,80,0,0,0,80,80,0,0,0,80,80,80,0,0,80,80,0,29-08-21,29-08-21,11:45:01,Wed Sep 29 2021 11:45:01 GMT+0200 (CEST),The main experiment item,yes,0,0,/Users/ethan/Documents/GitHub/OpenSesame/Sternberg/experiment_files,0,0,0,no,mono,no,18,no,white,no,no,768,42,3.6.1,legacy,legacy,7 1 3,osweb,1.4.0,1,2,y,36,,0,right,right,,space,right,right,right,912,20103,,24778,14821,13410,912,2,legacy,972,1680,24,1050,24,0,26,1680,1632908780825,3,1024,2,48000,-16,experiment,0,even,MacIntel,1,574995,397265,,571731,51,572760,353293,51,24842,113372,577003,573780,577915,51,577003,Sternberg_updated,78,78645,81,yes,1024
96,96,966,966,black,no,experiment,Mozilla,Netscape,"5.0 (Macintosh; Intel Mac OS X 10_15_7) AppleWebKit/605.1.15 (KHTML, like Gecko) Version/14.1.1 Safari/605.1.15",legacy,legacy,legacy,0,uniform,1,1,left,81,81,81,81,0,0,0,81,81,0,0,0,81,81,81,0,0,81,81,0,29-08-21,29-08-21,11:45:01,Wed Sep 29 2021 11:45:01 GMT+0200 (CEST),The main experiment item,yes,0,0,/Users/ethan/Documents/GitHub/OpenSesame/Sternberg/experiment_files,0,0,0,no,mono,no,18,no,white,no,no,768,42,3.6.1,legacy,legacy,5,osweb,1.4.0,1,0,n,36,,0,left,right,,space,right,right,left,604,20103,,24778,14821,13410,604,2,legacy,972,1680,24,1050,24,0,26,1680,1632908780825,1,1024,2,48000,-16,experiment,0,even,MacIntel,8,581164,397265,,577922,51,578948,353293,51,24842,113372,583179,579959,583790,51,583179,Sternberg_updated,79,79249,82,yes,1024
96,96,972,972,black,no,experiment,Mozilla,Netscape,"5.0 (Macintosh; Intel Mac OS X 10_15_7) AppleWebKit/605.1.15 (KHTML, like Gecko) Version/14.1.1 Safari/605.1.15",legacy,legacy,legacy,0,uniform,1,1,right,82,82,82,82,0,0,0,82,82,0,0,0,82,82,82,0,0,82,82,0,29-08-21,29-08-21,11:45:01,Wed Sep 29 2021 11:45:01 GMT+0200 (CEST),The main experiment item,yes,0,0,/Users/ethan/Documents/GitHub/OpenSesame/Sternberg/experiment_files,0,0,0,no,mono,no,18,no,white,no,no,768,42,3.6.1,legacy,legacy,3 4 9 6 2 9,osweb,1.4.0,1,5,y,36,,0,right,right,,space,right,right,right,1436,20103,,24778,14821,13410,1436,2,legacy,972,1680,24,1050,24,0,26,1680,1632908780825,6,1024,2,48000,-16,experiment,0,even,MacIntel,2,587044,397265,,583793,51,584821,353293,51,24842,113372,589050,585841,590498,51,589050,Sternberg_updated,80,80685,83,yes,1024
96,96,970,970,black,no,experiment,Mozilla,Netscape,"5.0 (Macintosh; Intel Mac OS X 10_15_7) AppleWebKit/605.1.15 (KHTML, like Gecko) Version/14.1.1 Safari/605.1.15",legacy,legacy,legacy,0,uniform,1,1,left,83,83,83,83,0,0,0,83,83,0,0,0,83,83,83,0,0,83,83,0,29-08-21,29-08-21,11:45:01,Wed Sep 29 2021 11:45:01 GMT+0200 (CEST),The main experiment item,yes,0,0,/Users/ethan/Documents/GitHub/OpenSesame/Sternberg/experiment_files,0,0,0,no,mono,no,18,no,white,no,no,768,42,3.6.1,legacy,legacy,5 9 2 3,osweb,1.4.0,1,0,n,36,,0,left,right,,space,right,right,left,824,20103,,24778,14821,13410,824,2,legacy,972,1680,24,1050,24,0,26,1680,1632908780825,4,1024,2,48000,-16,experiment,0,even,MacIntel,8,593751,397265,,590500,51,591526,353293,51,24842,113372,595767,592537,596605,51,595767,Sternberg_updated,81,81509,84,yes,1024
96,96,973,973,black,no,experiment,Mozilla,Netscape,"5.0 (Macintosh; Intel Mac OS X 10_15_7) AppleWebKit/605.1.15 (KHTML, like Gecko) Version/14.1.1 Safari/605.1.15",legacy,legacy,legacy,0,uniform,1,1,right,84,84,84,84,0,0,0,84,84,0,0,0,84,84,84,0,0,84,84,0,29-08-21,29-08-21,11:45:01,Wed Sep 29 2021 11:45:01 GMT+0200 (CEST),The main experiment item,yes,0,0,/Users/ethan/Documents/GitHub/OpenSesame/Sternberg/experiment_files,0,0,0,no,mono,no,18,no,white,no,no,768,42,3.6.1,legacy,legacy,5 7 8 2 3 8,osweb,1.4.0,1,5,y,36,,0,right,right,,space,right,right,right,1218,20103,,24778,14821,13410,1218,2,legacy,972,1680,24,1050,24,0,26,1680,1632908780825,6,1024,2,48000,-16,experiment,0,even,MacIntel,3,599844,397265,,596606,51,597625,353293,51,24842,113372,601851,598630,603072,51,601851,Sternberg_updated,82,82727,85,yes,1024
97,97,972,972,black,no,experiment,Mozilla,Netscape,"5.0 (Macintosh; Intel Mac OS X 10_15_7) AppleWebKit/605.1.15 (KHTML, like Gecko) Version/14.1.1 Safari/605.1.15",legacy,legacy,legacy,0,uniform,1,1,left,85,85,85,85,0,0,0,85,85,0,0,0,85,85,85,0,0,85,85,0,29-08-21,29-08-21,11:45:01,Wed Sep 29 2021 11:45:01 GMT+0200 (CEST),The main experiment item,yes,0,0,/Users/ethan/Documents/GitHub/OpenSesame/Sternberg/experiment_files,0,0,0,no,mono,no,18,no,white,no,no,768,42,3.6.1,legacy,legacy,6 2 9 3 8 4,osweb,1.4.0,1,0,n,36,,0,left,right,,space,right,right,left,887,20103,,24778,14821,13410,887,2,legacy,972,1680,24,1050,24,0,26,1680,1632908780825,6,1024,2,48000,-16,experiment,0,even,MacIntel,1,606330,397265,,603078,51,604106,353293,51,24842,113372,608339,605118,609234,51,608339,Sternberg_updated,83,83614,86,yes,1024
97,97,972,972,black,no,experiment,Mozilla,Netscape,"5.0 (Macintosh; Intel Mac OS X 10_15_7) AppleWebKit/605.1.15 (KHTML, like Gecko) Version/14.1.1 Safari/605.1.15",legacy,legacy,legacy,0,uniform,1,1,left,86,86,86,86,0,0,0,86,86,0,0,0,86,86,86,0,0,86,86,0,29-08-21,29-08-21,11:45:01,Wed Sep 29 2021 11:45:01 GMT+0200 (CEST),The main experiment item,yes,0,0,/Users/ethan/Documents/GitHub/OpenSesame/Sternberg/experiment_files,0,0,0,no,mono,no,18,no,white,no,no,768,42,3.6.1,legacy,legacy,6 3 1 7 9 8,osweb,1.4.0,1,0,n,36,,0,left,right,,space,right,right,left,985,20103,,24778,14821,13410,985,2,legacy,972,1680,24,1050,24,0,26,1680,1632908780825,6,1024,2,48000,-16,experiment,0,even,MacIntel,4,612502,397265,,609236,51,610263,353293,51,24842,113372,614520,611284,615518,51,614520,Sternberg_updated,84,84599,87,yes,1024
97,97,971,971,black,no,experiment,Mozilla,Netscape,"5.0 (Macintosh; Intel Mac OS X 10_15_7) AppleWebKit/605.1.15 (KHTML, like Gecko) Version/14.1.1 Safari/605.1.15",legacy,legacy,legacy,0,uniform,1,1,left,87,87,87,87,0,0,0,87,87,0,0,0,87,87,87,0,0,87,87,0,29-08-21,29-08-21,11:45:01,Wed Sep 29 2021 11:45:01 GMT+0200 (CEST),The main experiment item,yes,0,0,/Users/ethan/Documents/GitHub/OpenSesame/Sternberg/experiment_files,0,0,0,no,mono,no,18,no,white,no,no,768,42,3.6.1,legacy,legacy,2 8 7 9 5 3,osweb,1.4.0,1,0,n,36,,0,left,right,,space,right,right,left,877,20103,,24778,14821,13410,877,2,legacy,972,1680,24,1050,24,0,26,1680,1632908780825,6,1024,2,48000,-16,experiment,0,even,MacIntel,6,618772,397265,,615520,51,616549,353293,51,24842,113372,620785,617559,621674,51,620785,Sternberg_updated,85,85476,88,yes,1024
97,97,977,977,black,no,experiment,Mozilla,Netscape,"5.0 (Macintosh; Intel Mac OS X 10_15_7) AppleWebKit/605.1.15 (KHTML, like Gecko) Version/14.1.1 Safari/605.1.15",legacy,legacy,legacy,0,uniform,1,1,right,88,88,88,88,0,0,0,88,88,0,0,0,88,88,88,0,0,88,88,0,29-08-21,29-08-21,11:45:01,Wed Sep 29 2021 11:45:01 GMT+0200 (CEST),The main experiment item,yes,0,0,/Users/ethan/Documents/GitHub/OpenSesame/Sternberg/experiment_files,0,0,0,no,mono,no,18,no,white,no,no,768,42,3.6.1,legacy,legacy,3 5 4 7,osweb,1.4.0,1,1,y,36,,0,right,right,,space,right,right,right,1513,20103,,24778,14821,13410,1513,2,legacy,972,1680,24,1050,24,0,26,1680,1632908780825,4,1024,2,48000,-16,experiment,0,even,MacIntel,3,624927,397265,,621675,51,622702,353293,51,24842,113372,626937,623714,628451,51,626937,Sternberg_updated,86,86989,89,yes,1024
97,97,976,976,black,no,experiment,Mozilla,Netscape,"5.0 (Macintosh; Intel Mac OS X 10_15_7) AppleWebKit/605.1.15 (KHTML, like Gecko) Version/14.1.1 Safari/605.1.15",legacy,legacy,legacy,0,uniform,1,1,left,89,89,89,89,0,0,0,89,89,0,0,0,89,89,89,0,0,89,89,0,29-08-21,29-08-21,11:45:01,Wed Sep 29 2021 11:45:01 GMT+0200 (CEST),The main experiment item,yes,0,0,/Users/ethan/Documents/GitHub/OpenSesame/Sternberg/experiment_files,0,0,0,no,mono,no,18,no,white,no,no,768,42,3.6.1,legacy,legacy,1 4 3 6 5,osweb,1.4.0,1,0,n,36,,0,left,right,,space,right,right,left,830,20103,,24778,14821,13410,830,2,legacy,972,1680,24,1050,24,0,26,1680,1632908780825,5,1024,2,48000,-16,experiment,0,even,MacIntel,8,631711,397265,,628454,51,629489,353293,51,24842,113372,633725,630496,634567,51,633725,Sternberg_updated,87,87819,90,yes,1024
97,97,974,974,black,no,experiment,Mozilla,Netscape,"5.0 (Macintosh; Intel Mac OS X 10_15_7) AppleWebKit/605.1.15 (KHTML, like Gecko) Version/14.1.1 Safari/605.1.15",legacy,legacy,legacy,0,uniform,1,1,left,90,90,90,90,0,0,0,90,90,0,0,0,90,90,90,0,0,90,90,0,29-08-21,29-08-21,11:45:01,Wed Sep 29 2021 11:45:01 GMT+0200 (CEST),The main experiment item,yes,0,0,/Users/ethan/Documents/GitHub/OpenSesame/Sternberg/experiment_files,0,0,0,no,mono,no,18,no,white,no,no,768,42,3.6.1,legacy,legacy,7 3 2 8,osweb,1.4.0,1,0,n,36,,0,left,right,,space,right,right,left,841,20103,,24778,14821,13410,841,2,legacy,972,1680,24,1050,24,0,26,1680,1632908780825,4,1024,2,48000,-16,experiment,0,even,MacIntel,4,637824,397265,,634570,51,635598,353293,51,24842,113372,639840,636610,640685,51,639840,Sternberg_updated,88,88660,91,yes,1024
97,97,973,973,black,no,experiment,Mozilla,Netscape,"5.0 (Macintosh; Intel Mac OS X 10_15_7) AppleWebKit/605.1.15 (KHTML, like Gecko) Version/14.1.1 Safari/605.1.15",legacy,legacy,legacy,0,uniform,1,1,left,91,91,91,91,0,0,0,91,91,0,0,0,91,91,91,0,0,91,91,0,29-08-21,29-08-21,11:45:01,Wed Sep 29 2021 11:45:01 GMT+0200 (CEST),The main experiment item,yes,0,0,/Users/ethan/Documents/GitHub/OpenSesame/Sternberg/experiment_files,0,0,0,no,mono,no,18,no,white,no,no,768,42,3.6.1,legacy,legacy,4 1,osweb,1.4.0,1,0,n,36,,0,left,right,,space,right,right,left,829,20103,,24778,14821,13410,829,2,legacy,972,1680,24,1050,24,0,26,1680,1632908780825,2,1024,2,48000,-16,experiment,0,even,MacIntel,6,643940,397265,,640687,51,641714,353293,51,24842,113372,645949,642728,646779,51,645949,Sternberg_updated,89,89489,92,yes,1024
97,97,969,969,black,no,experiment,Mozilla,Netscape,"5.0 (Macintosh; Intel Mac OS X 10_15_7) AppleWebKit/605.1.15 (KHTML, like Gecko) Version/14.1.1 Safari/605.1.15",legacy,legacy,legacy,0,uniform,1,1,left,92,92,92,92,0,0,0,92,92,0,0,0,92,92,92,0,0,92,92,0,29-08-21,29-08-21,11:45:01,Wed Sep 29 2021 11:45:01 GMT+0200 (CEST),The main experiment item,yes,0,0,/Users/ethan/Documents/GitHub/OpenSesame/Sternberg/experiment_files,0,0,0,no,mono,no,18,no,white,no,no,768,42,3.6.1,legacy,legacy,5 2,osweb,1.4.0,1,0,n,36,,0,left,right,,space,right,right,left,666,20103,,24778,14821,13410,666,2,legacy,972,1680,24,1050,24,0,26,1680,1632908780825,2,1024,2,48000,-16,experiment,0,even,MacIntel,7,650024,397265,,646782,51,647803,353293,51,24842,113372,652043,648819,652709,51,652043,Sternberg_updated,90,90155,93,yes,1024
97,97,969,969,black,no,experiment,Mozilla,Netscape,"5.0 (Macintosh; Intel Mac OS X 10_15_7) AppleWebKit/605.1.15 (KHTML, like Gecko) Version/14.1.1 Safari/605.1.15",legacy,legacy,legacy,0,uniform,1,1,right,93,93,93,93,0,0,0,93,93,0,0,0,93,93,93,0,0,93,93,0,29-08-21,29-08-21,11:45:01,Wed Sep 29 2021 11:45:01 GMT+0200 (CEST),The main experiment item,yes,0,0,/Users/ethan/Documents/GitHub/OpenSesame/Sternberg/experiment_files,0,0,0,no,mono,no,18,no,white,no,no,768,42,3.6.1,legacy,legacy,3 9 7 6 4,osweb,1.4.0,1,3,y,36,,0,right,right,,space,right,right,right,934,20103,,24778,14821,13410,934,2,legacy,972,1680,24,1050,24,0,26,1680,1632908780825,5,1024,2,48000,-16,experiment,0,even,MacIntel,7,655951,397265,,652713,51,653732,353293,51,24842,113372,657967,654737,658913,51,657967,Sternberg_updated,91,91089,94,yes,1024
97,97,965,965,black,no,experiment,Mozilla,Netscape,"5.0 (Macintosh; Intel Mac OS X 10_15_7) AppleWebKit/605.1.15 (KHTML, like Gecko) Version/14.1.1 Safari/605.1.15",legacy,legacy,legacy,0,uniform,1,1,left,94,94,94,94,0,0,0,94,94,0,0,0,94,94,94,0,0,94,94,0,29-08-21,29-08-21,11:45:01,Wed Sep 29 2021 11:45:01 GMT+0200 (CEST),The main experiment item,yes,0,0,/Users/ethan/Documents/GitHub/OpenSesame/Sternberg/experiment_files,0,0,0,no,mono,no,18,no,white,no,no,768,42,3.6.1,legacy,legacy,7 1 8 4 9 3,osweb,1.4.0,1,0,n,36,,0,left,right,,space,right,right,left,590,20103,,24778,14821,13410,590,2,legacy,972,1680,24,1050,24,0,26,1680,1632908780825,6,1024,2,48000,-16,experiment,0,even,MacIntel,6,662172,397265,,658927,51,659948,353293,51,24842,113372,664187,660953,664784,51,664187,Sternberg_updated,92,91679,95,yes,1024
97,97,965,965,black,no,experiment,Mozilla,Netscape,"5.0 (Macintosh; Intel Mac OS X 10_15_7) AppleWebKit/605.1.15 (KHTML, like Gecko) Version/14.1.1 Safari/605.1.15",legacy,legacy,legacy,0,uniform,1,1,right,95,95,95,95,0,0,0,95,95,0,0,0,95,95,95,0,0,95,95,0,29-08-21,29-08-21,11:45:01,Wed Sep 29 2021 11:45:01 GMT+0200 (CEST),The main experiment item,yes,0,0,/Users/ethan/Documents/GitHub/OpenSesame/Sternberg/experiment_files,0,0,0,no,mono,no,18,no,white,no,no,768,42,3.6.1,legacy,legacy,2 4 6 9,osweb,1.4.0,1,3,y,36,,0,right,right,,space,right,right,right,956,20103,,24778,14821,13410,956,2,legacy,972,1680,24,1050,24,0,26,1680,1632908780825,4,1024,2,48000,-16,experiment,0,even,MacIntel,6,668033,397265,,664786,51,665808,353293,51,24842,113372,670053,666829,671026,51,670053,Sternberg_updated,93,92635,96,yes,1024
97,97,961,961,black,no,experiment,Mozilla,Netscape,"5.0 (Macintosh; Intel Mac OS X 10_15_7) AppleWebKit/605.1.15 (KHTML, like Gecko) Version/14.1.1 Safari/605.1.15",legacy,legacy,legacy,0,uniform,1,1,left,96,96,96,96,0,0,0,96,96,0,0,0,96,96,96,0,0,96,96,0,29-08-21,29-08-21,11:45:01,Wed Sep 29 2021 11:45:01 GMT+0200 (CEST),The main experiment item,yes,0,0,/Users/ethan/Documents/GitHub/OpenSesame/Sternberg/experiment_files,0,0,0,no,mono,no,18,no,white,no,no,768,42,3.6.1,legacy,legacy,9 5 3 2 8 6,osweb,1.4.0,1,0,n,36,,0,left,right,,space,right,right,left,602,20103,,24778,14821,13410,602,2,legacy,972,1680,24,1050,24,0,26,1680,1632908780825,6,1024,2,48000,-16,experiment,0,even,MacIntel,7,674293,397265,,671028,51,672066,353293,51,24842,113372,676299,673080,676911,51,676299,Sternberg_updated,94,93237,97,yes,1024
97,97,957,957,black,no,experiment,Mozilla,Netscape,"5.0 (Macintosh; Intel Mac OS X 10_15_7) AppleWebKit/605.1.15 (KHTML, like Gecko) Version/14.1.1 Safari/605.1.15",legacy,legacy,legacy,0,uniform,1,1,left,97,97,97,97,0,0,0,97,97,0,0,0,97,97,97,0,0,97,97,0,29-08-21,29-08-21,11:45:01,Wed Sep 29 2021 11:45:01 GMT+0200 (CEST),The main experiment item,yes,0,0,/Users/ethan/Documents/GitHub/OpenSesame/Sternberg/experiment_files,0,0,0,no,mono,no,18,no,white,no,no,768,42,3.6.1,legacy,legacy,6 9 4 5 3 2,osweb,1.4.0,1,0,n,36,,0,left,right,right,space,right,right,left,557,20103,38701,24778,14821,13410,557,2,legacy,972,1680,24,1050,24,0,26,1680,1632908780825,6,1024,2,48000,-16,experiment,0,even,MacIntel,8,718888,397265,677935,676927,51,716668,353293,51,24842,113372,720896,717684,721467,51,720896,Sternberg_updated,95,93794,98,yes,1024
97,97,956,956,black,no,experiment,Mozilla,Netscape,"5.0 (Macintosh; Intel Mac OS X 10_15_7) AppleWebKit/605.1.15 (KHTML, like Gecko) Version/14.1.1 Safari/605.1.15",legacy,legacy,legacy,0,uniform,1,1,right,98,98,98,98,0,0,0,98,98,0,0,0,98,98,98,0,0,98,98,0,29-08-21,29-08-21,11:45:01,Wed Sep 29 2021 11:45:01 GMT+0200 (CEST),The main experiment item,yes,0,0,/Users/ethan/Documents/GitHub/OpenSesame/Sternberg/experiment_files,0,0,0,no,mono,no,18,no,white,no,no,768,42,3.6.1,legacy,legacy,9 1 6 7 8,osweb,1.4.0,1,1,y,36,,0,right,right,right,space,right,right,right,891,20103,38701,24778,14821,13410,891,2,legacy,972,1680,24,1050,24,0,26,1680,1632908780825,5,1024,2,48000,-16,experiment,0,even,MacIntel,9,724716,397265,677935,721470,51,722489,353293,51,24842,113372,726732,723501,727636,51,726732,Sternberg_updated,96,94685,99,yes,1024
97,97,953,953,black,no,experiment,Mozilla,Netscape,"5.0 (Macintosh; Intel Mac OS X 10_15_7) AppleWebKit/605.1.15 (KHTML, like Gecko) Version/14.1.1 Safari/605.1.15",legacy,legacy,legacy,0,uniform,1,1,right,99,99,99,99,0,0,0,99,99,0,0,0,99,99,99,0,0,99,99,0,29-08-21,29-08-21,11:45:01,Wed Sep 29 2021 11:45:01 GMT+0200 (CEST),The main experiment item,yes,0,0,/Users/ethan/Documents/GitHub/OpenSesame/Sternberg/experiment_files,0,0,0,no,mono,no,18,no,white,no,no,768,42,3.6.1,legacy,legacy,4 1 8 7 5,osweb,1.4.0,1,3,y,36,,0,right,right,right,space,right,right,right,657,20103,38701,24778,14821,13410,657,2,legacy,972,1680,24,1050,24,0,26,1680,1632908780825,5,1024,2,48000,-16,experiment,0,even,MacIntel,8,730893,397265,677935,727638,51,728665,353293,51,24842,113372,732909,729680,733572,51,732909,Sternberg_updated,97,95342,100,yes,1024
97,97,950,950,black,no,experiment,Mozilla,Netscape,"5.0 (Macintosh; Intel Mac OS X 10_15_7) AppleWebKit/605.1.15 (KHTML, like Gecko) Version/14.1.1 Safari/605.1.15",legacy,legacy,legacy,0,uniform,1,1,left,100,100,100,100,0,0,0,100,100,0,0,0,100,100,100,0,0,100,100,0,29-08-21,29-08-21,11:45:01,Wed Sep 29 2021 11:45:01 GMT+0200 (CEST),The main experiment item,yes,0,0,/Users/ethan/Documents/GitHub/OpenSesame/Sternberg/experiment_files,0,0,0,no,mono,no,18,no,white,no,no,768,42,3.6.1,legacy,legacy,3 4 9 6 7 8,osweb,1.4.0,1,0,n,36,,0,left,right,right,space,right,right,left,576,20103,38701,24778,14821,13410,576,2,legacy,972,1680,24,1050,24,0,26,1680,1632908780825,6,1024,2,48000,-16,experiment,0,even,MacIntel,2,736820,397265,677935,733575,51,734602,353293,51,24842,113372,738829,735607,739418,51,738829,Sternberg_updated,98,95918,101,yes,1024
96,96,947,947,black,no,experiment,Mozilla,Netscape,"5.0 (Macintosh; Intel Mac OS X 10_15_7) AppleWebKit/605.1.15 (KHTML, like Gecko) Version/14.1.1 Safari/605.1.15",legacy,legacy,legacy,0,uniform,0,0,left,101,101,101,101,0,0,0,101,101,0,0,0,101,101,101,0,0,101,101,0,29-08-21,29-08-21,11:45:01,Wed Sep 29 2021 11:45:01 GMT+0200 (CEST),The main experiment item,yes,0,0,/Users/ethan/Documents/GitHub/OpenSesame/Sternberg/experiment_files,0,0,0,no,mono,no,18,no,white,no,no,768,42,3.6.1,legacy,legacy,7 4 2 8 1 9,osweb,1.4.0,1,0,n,36,,0,right,right,right,space,right,right,right,637,20103,38701,24778,14821,13410,637,2,legacy,972,1680,24,1050,24,0,26,1680,1632908780825,6,1024,2,48000,-16,experiment,0,even,MacIntel,5,742687,397265,677935,739424,51,740449,353293,51,24842,113372,744694,741469,745338,51,744694,Sternberg_updated,98,96555,102,yes,1024
96,96,950,950,black,no,experiment,Mozilla,Netscape,"5.0 (Macintosh; Intel Mac OS X 10_15_7) AppleWebKit/605.1.15 (KHTML, like Gecko) Version/14.1.1 Safari/605.1.15",legacy,legacy,legacy,0,uniform,1,1,right,102,102,102,102,0,0,0,102,102,0,0,0,102,102,102,0,0,102,102,0,29-08-21,29-08-21,11:45:01,Wed Sep 29 2021 11:45:01 GMT+0200 (CEST),The main experiment item,yes,0,0,/Users/ethan/Documents/GitHub/OpenSesame/Sternberg/experiment_files,0,0,0,no,mono,no,18,no,white,no,no,768,42,3.6.1,legacy,legacy,9 1 7 2,osweb,1.4.0,1,2,y,36,,0,right,right,right,space,right,right,right,1284,20103,38701,24778,14821,13410,1284,2,legacy,972,1680,24,1050,24,0,26,1680,1632908780825,4,1024,2,48000,-16,experiment,0,even,MacIntel,1,748595,397265,677935,739424,51,746368,745340,51,24842,113372,750606,747380,751894,51,750606,Sternberg_updated,99,97839,103,yes,1024
96,96,954,954,black,no,experiment,Mozilla,Netscape,"5.0 (Macintosh; Intel Mac OS X 10_15_7) AppleWebKit/605.1.15 (KHTML, like Gecko) Version/14.1.1 Safari/605.1.15",legacy,legacy,legacy,0,uniform,1,1,right,103,103,103,103,0,0,0,103,103,0,0,0,103,103,103,0,0,103,103,0,29-08-21,29-08-21,11:45:01,Wed Sep 29 2021 11:45:01 GMT+0200 (CEST),The main experiment item,yes,0,0,/Users/ethan/Documents/GitHub/OpenSesame/Sternberg/experiment_files,0,0,0,no,mono,no,18,no,white,no,no,768,42,3.6.1,legacy,legacy,4 7 6 8 2 3,osweb,1.4.0,1,6,y,36,,0,right,right,right,space,right,right,right,1419,20103,38701,24778,14821,13410,1419,2,legacy,972,1680,24,1050,24,0,26,1680,1632908780825,6,1024,2,48000,-16,experiment,0,even,MacIntel,3,755143,397265,677935,751896,51,752917,745340,51,24842,113372,757160,753934,758583,51,757160,Sternberg_updated,100,99258,104,yes,1024
96,96,957,957,black,no,experiment,Mozilla,Netscape,"5.0 (Macintosh; Intel Mac OS X 10_15_7) AppleWebKit/605.1.15 (KHTML, like Gecko) Version/14.1.1 Safari/605.1.15",legacy,legacy,legacy,0,uniform,1,1,right,104,104,104,104,0,0,0,104,104,0,0,0,104,104,104,0,0,104,104,0,29-08-21,29-08-21,11:45:01,Wed Sep 29 2021 11:45:01 GMT+0200 (CEST),The main experiment item,yes,0,0,/Users/ethan/Documents/GitHub/OpenSesame/Sternberg/experiment_files,0,0,0,no,mono,no,18,no,white,no,no,768,42,3.6.1,legacy,legacy,6 8 9 3 4 9,osweb,1.4.0,1,5,y,36,,0,right,right,right,space,right,right,right,1228,20103,38701,24778,14821,13410,1228,2,legacy,972,1680,24,1050,24,0,26,1680,1632908780825,6,1024,2,48000,-16,experiment,0,even,MacIntel,4,761839,397265,677935,758585,51,759612,745340,51,24842,113372,763846,760621,765086,51,763846,Sternberg_updated,101,100486,105,yes,1024
95,95,960,960,black,no,experiment,Mozilla,Netscape,"5.0 (Macintosh; Intel Mac OS X 10_15_7) AppleWebKit/605.1.15 (KHTML, like Gecko) Version/14.1.1 Safari/605.1.15",legacy,legacy,legacy,0,uniform,0,0,left,105,105,105,105,0,0,0,105,105,0,0,0,105,105,105,0,0,105,105,0,29-08-21,29-08-21,11:45:01,Wed Sep 29 2021 11:45:01 GMT+0200 (CEST),The main experiment item,yes,0,0,/Users/ethan/Documents/GitHub/OpenSesame/Sternberg/experiment_files,0,0,0,no,mono,no,18,no,white,no,no,768,42,3.6.1,legacy,legacy,8 5 7 3 6,osweb,1.4.0,1,0,n,36,,0,right,right,right,space,right,right,right,1292,20103,38701,24778,14821,13410,1292,2,legacy,972,1680,24,1050,24,0,26,1680,1632908780825,5,1024,2,48000,-16,experiment,0,even,MacIntel,9,768339,397265,677935,765088,51,766121,745340,51,24842,113372,770353,767134,771648,51,770353,Sternberg_updated,101,101778,106,yes,1024
95,95,960,960,black,no,experiment,Mozilla,Netscape,"5.0 (Macintosh; Intel Mac OS X 10_15_7) AppleWebKit/605.1.15 (KHTML, like Gecko) Version/14.1.1 Safari/605.1.15",legacy,legacy,legacy,0,uniform,1,1,right,106,106,106,106,0,0,0,106,106,0,0,0,106,106,106,0,0,106,106,0,29-08-21,29-08-21,11:45:01,Wed Sep 29 2021 11:45:01 GMT+0200 (CEST),The main experiment item,yes,0,0,/Users/ethan/Documents/GitHub/OpenSesame/Sternberg/experiment_files,0,0,0,no,mono,no,18,no,white,no,no,768,42,3.6.1,legacy,legacy,3 5 9 6 2 4,osweb,1.4.0,1,1,y,36,,0,right,right,right,space,right,right,right,983,20103,38701,24778,14821,13410,983,2,legacy,972,1680,24,1050,24,0,26,1680,1632908780825,6,1024,2,48000,-16,experiment,0,even,MacIntel,3,774911,397265,677935,765088,51,772680,771650,51,24842,113372,776919,773699,777917,51,776919,Sternberg_updated,102,102761,107,yes,1024
95,95,966,966,black,no,experiment,Mozilla,Netscape,"5.0 (Macintosh; Intel Mac OS X 10_15_7) AppleWebKit/605.1.15 (KHTML, like Gecko) Version/14.1.1 Safari/605.1.15",legacy,legacy,legacy,0,uniform,1,1,left,107,107,107,107,0,0,0,107,107,0,0,0,107,107,107,0,0,107,107,0,29-08-21,29-08-21,11:45:01,Wed Sep 29 2021 11:45:01 GMT+0200 (CEST),The main experiment item,yes,0,0,/Users/ethan/Documents/GitHub/OpenSesame/Sternberg/experiment_files,0,0,0,no,mono,no,18,no,white,no,no,768,42,3.6.1,legacy,legacy,9 8 2 7 4,osweb,1.4.0,1,0,n,36,,0,left,right,right,space,right,right,left,1577,20103,38701,24778,14821,13410,1577,2,legacy,972,1680,24,1050,24,0,26,1680,1632908780825,5,1024,2,48000,-16,experiment,0,even,MacIntel,5,781180,397265,677935,777925,51,778953,771650,51,24842,113372,783198,779968,784779,51,783198,Sternberg_updated,103,104338,108,yes,1024
95,95,973,973,black,no,experiment,Mozilla,Netscape,"5.0 (Macintosh; Intel Mac OS X 10_15_7) AppleWebKit/605.1.15 (KHTML, like Gecko) Version/14.1.1 Safari/605.1.15",legacy,legacy,legacy,0,uniform,1,1,right,108,108,108,108,0,0,0,108,108,0,0,0,108,108,108,0,0,108,108,0,29-08-21,29-08-21,11:45:01,Wed Sep 29 2021 11:45:01 GMT+0200 (CEST),The main experiment item,yes,0,0,/Users/ethan/Documents/GitHub/OpenSesame/Sternberg/experiment_files,0,0,0,no,mono,no,18,no,white,no,no,768,42,3.6.1,legacy,legacy,9 3 1 2 5,osweb,1.4.0,1,4,y,36,,0,right,right,right,space,right,right,right,1743,20103,38701,24778,14821,13410,1743,2,legacy,972,1680,24,1050,24,0,26,1680,1632908780825,5,1024,2,48000,-16,experiment,0,even,MacIntel,2,788030,397265,677935,784781,51,785812,771650,51,24842,113372,790048,786826,791803,51,790048,Sternberg_updated,104,106081,109,yes,1024
95,95,975,975,black,no,experiment,Mozilla,Netscape,"5.0 (Macintosh; Intel Mac OS X 10_15_7) AppleWebKit/605.1.15 (KHTML, like Gecko) Version/14.1.1 Safari/605.1.15",legacy,legacy,legacy,0,uniform,1,1,right,109,109,109,109,0,0,0,109,109,0,0,0,109,109,109,0,0,109,109,0,29-08-21,29-08-21,11:45:01,Wed Sep 29 2021 11:45:01 GMT+0200 (CEST),The main experiment item,yes,0,0,/Users/ethan/Documents/GitHub/OpenSesame/Sternberg/experiment_files,0,0,0,no,mono,no,18,no,white,no,no,768,42,3.6.1,legacy,legacy,4 3 2 5 8,osweb,1.4.0,1,2,y,36,,0,right,right,right,space,right,right,right,1159,20103,38701,24778,14821,13410,1159,2,legacy,972,1680,24,1050,24,0,26,1680,1632908780825,5,1024,2,48000,-16,experiment,0,even,MacIntel,3,795048,397265,677935,791805,51,792836,771650,51,24842,113372,797067,793844,798237,51,797067,Sternberg_updated,105,107240,110,yes,1024
95,95,973,973,black,no,experiment,Mozilla,Netscape,"5.0 (Macintosh; Intel Mac OS X 10_15_7) AppleWebKit/605.1.15 (KHTML, like Gecko) Version/14.1.1 Safari/605.1.15",legacy,legacy,legacy,0,uniform,1,1,right,110,110,110,110,0,0,0,110,110,0,0,0,110,110,110,0,0,110,110,0,29-08-21,29-08-21,11:45:01,Wed Sep 29 2021 11:45:01 GMT+0200 (CEST),The main experiment item,yes,0,0,/Users/ethan/Documents/GitHub/OpenSesame/Sternberg/experiment_files,0,0,0,no,mono,no,18,no,white,no,no,768,42,3.6.1,legacy,legacy,7 1 8 5 6 2,osweb,1.4.0,1,2,y,36,,0,right,right,right,space,right,right,right,745,20103,38701,24778,14821,13410,745,2,legacy,972,1680,24,1050,24,0,26,1680,1632908780825,6,1024,2,48000,-16,experiment,0,even,MacIntel,1,801499,397265,677935,798239,51,799267,771650,51,24842,113372,803520,800287,804267,51,803520,Sternberg_updated,106,107985,111,yes,1024
96,96,971,971,black,no,experiment,Mozilla,Netscape,"5.0 (Macintosh; Intel Mac OS X 10_15_7) AppleWebKit/605.1.15 (KHTML, like Gecko) Version/14.1.1 Safari/605.1.15",legacy,legacy,legacy,0,uniform,1,1,left,111,111,111,111,0,0,0,111,111,0,0,0,111,111,111,0,0,111,111,0,29-08-21,29-08-21,11:45:01,Wed Sep 29 2021 11:45:01 GMT+0200 (CEST),The main experiment item,yes,0,0,/Users/ethan/Documents/GitHub/OpenSesame/Sternberg/experiment_files,0,0,0,no,mono,no,18,no,white,no,no,768,42,3.6.1,legacy,legacy,8 4 3 5,osweb,1.4.0,1,0,n,36,,0,left,right,right,space,right,right,left,792,20103,38701,24778,14821,13410,792,2,legacy,972,1680,24,1050,24,0,26,1680,1632908780825,4,1024,2,48000,-16,experiment,0,even,MacIntel,6,807522,397265,677935,804270,51,805288,771650,51,24842,113372,809530,806307,810327,51,809530,Sternberg_updated,107,108777,112,yes,1024
96,96,972,972,black,no,experiment,Mozilla,Netscape,"5.0 (Macintosh; Intel Mac OS X 10_15_7) AppleWebKit/605.1.15 (KHTML, like Gecko) Version/14.1.1 Safari/605.1.15",legacy,legacy,legacy,0,uniform,1,1,right,112,112,112,112,0,0,0,112,112,0,0,0,112,112,112,0,0,112,112,0,29-08-21,29-08-21,11:45:01,Wed Sep 29 2021 11:45:01 GMT+0200 (CEST),The main experiment item,yes,0,0,/Users/ethan/Documents/GitHub/OpenSesame/Sternberg/experiment_files,0,0,0,no,mono,no,18,no,white,no,no,768,42,3.6.1,legacy,legacy,6 7 9 3 1 2,osweb,1.4.0,1,1,y,36,,0,right,right,right,space,right,right,right,1026,20103,38701,24778,14821,13410,1026,2,legacy,972,1680,24,1050,24,0,26,1680,1632908780825,6,1024,2,48000,-16,experiment,0,even,MacIntel,6,813587,397265,677935,810330,51,811358,771650,51,24842,113372,815606,812373,816634,51,815606,Sternberg_updated,108,109803,113,yes,1024
96,96,969,969,black,no,experiment,Mozilla,Netscape,"5.0 (Macintosh; Intel Mac OS X 10_15_7) AppleWebKit/605.1.15 (KHTML, like Gecko) Version/14.1.1 Safari/605.1.15",legacy,legacy,legacy,0,uniform,1,1,right,113,113,113,113,0,0,0,113,113,0,0,0,113,113,113,0,0,113,113,0,29-08-21,29-08-21,11:45:01,Wed Sep 29 2021 11:45:01 GMT+0200 (CEST),The main experiment item,yes,0,0,/Users/ethan/Documents/GitHub/OpenSesame/Sternberg/experiment_files,0,0,0,no,mono,no,18,no,white,no,no,768,42,3.6.1,legacy,legacy,6 1 2,osweb,1.4.0,1,3,y,36,,0,right,right,right,space,right,right,right,717,20103,38701,24778,14821,13410,717,2,legacy,972,1680,24,1050,24,0,26,1680,1632908780825,3,1024,2,48000,-16,experiment,0,even,MacIntel,2,819890,397265,677935,816637,51,817665,771650,51,24842,113372,821897,818676,822619,51,821897,Sternberg_updated,109,110520,114,yes,1024
96,96,971,971,black,no,experiment,Mozilla,Netscape,"5.0 (Macintosh; Intel Mac OS X 10_15_7) AppleWebKit/605.1.15 (KHTML, like Gecko) Version/14.1.1 Safari/605.1.15",legacy,legacy,legacy,0,uniform,1,1,left,114,114,114,114,0,0,0,114,114,0,0,0,114,114,114,0,0,114,114,0,29-08-21,29-08-21,11:45:01,Wed Sep 29 2021 11:45:01 GMT+0200 (CEST),The main experiment item,yes,0,0,/Users/ethan/Documents/GitHub/OpenSesame/Sternberg/experiment_files,0,0,0,no,mono,no,18,no,white,no,no,768,42,3.6.1,legacy,legacy,6 9 7 3 8 2,osweb,1.4.0,1,0,n,36,,0,left,right,right,space,right,right,left,1097,20103,38701,24778,14821,13410,1097,2,legacy,972,1680,24,1050,24,0,26,1680,1632908780825,6,1024,2,48000,-16,experiment,0,even,MacIntel,5,825873,397265,677935,822621,51,823640,771650,51,24842,113372,827880,824661,828980,51,827880,Sternberg_updated,110,111617,115,yes,1024
96,96,970,970,black,no,experiment,Mozilla,Netscape,"5.0 (Macintosh; Intel Mac OS X 10_15_7) AppleWebKit/605.1.15 (KHTML, like Gecko) Version/14.1.1 Safari/605.1.15",legacy,legacy,legacy,0,uniform,1,1,right,115,115,115,115,0,0,0,115,115,0,0,0,115,115,115,0,0,115,115,0,29-08-21,29-08-21,11:45:01,Wed Sep 29 2021 11:45:01 GMT+0200 (CEST),The main experiment item,yes,0,0,/Users/ethan/Documents/GitHub/OpenSesame/Sternberg/experiment_files,0,0,0,no,mono,no,18,no,white,no,no,768,42,3.6.1,legacy,legacy,6 5,osweb,1.4.0,1,2,y,36,,0,right,right,right,space,right,right,right,933,20103,38701,24778,14821,13410,933,2,legacy,972,1680,24,1050,24,0,26,1680,1632908780825,2,1024,2,48000,-16,experiment,0,even,MacIntel,5,832233,397265,677935,828982,51,830010,771650,51,24842,113372,834247,831022,835185,51,834247,Sternberg_updated,111,112550,116,yes,1024
96,96,970,970,black,no,experiment,Mozilla,Netscape,"5.0 (Macintosh; Intel Mac OS X 10_15_7) AppleWebKit/605.1.15 (KHTML, like Gecko) Version/14.1.1 Safari/605.1.15",legacy,legacy,legacy,0,uniform,1,1,left,116,116,116,116,0,0,0,116,116,0,0,0,116,116,116,0,0,116,116,0,29-08-21,29-08-21,11:45:01,Wed Sep 29 2021 11:45:01 GMT+0200 (CEST),The main experiment item,yes,0,0,/Users/ethan/Documents/GitHub/OpenSesame/Sternberg/experiment_files,0,0,0,no,mono,no,18,no,white,no,no,768,42,3.6.1,legacy,legacy,1 4 9 2 5,osweb,1.4.0,1,0,n,36,,0,left,right,right,space,right,right,left,889,20103,38701,24778,14821,13410,889,2,legacy,972,1680,24,1050,24,0,26,1680,1632908780825,5,1024,2,48000,-16,experiment,0,even,MacIntel,7,838437,397265,677935,835189,51,836216,771650,51,24842,113372,840449,837228,841341,51,840449,Sternberg_updated,112,113439,117,yes,1024
96,96,969,969,black,no,experiment,Mozilla,Netscape,"5.0 (Macintosh; Intel Mac OS X 10_15_7) AppleWebKit/605.1.15 (KHTML, like Gecko) Version/14.1.1 Safari/605.1.15",legacy,legacy,legacy,0,uniform,1,1,right,117,117,117,117,0,0,0,117,117,0,0,0,117,117,117,0,0,117,117,0,29-08-21,29-08-21,11:45:01,Wed Sep 29 2021 11:45:01 GMT+0200 (CEST),The main experiment item,yes,0,0,/Users/ethan/Documents/GitHub/OpenSesame/Sternberg/experiment_files,0,0,0,no,mono,no,18,no,white,no,no,768,42,3.6.1,legacy,legacy,4 9 7 8 5 3,osweb,1.4.0,1,4,y,36,,0,right,right,right,space,right,right,right,882,20103,38701,24778,14821,13410,882,2,legacy,972,1680,24,1050,24,0,26,1680,1632908780825,6,1024,2,48000,-16,experiment,0,even,MacIntel,8,844591,397265,677935,841345,51,842373,771650,51,24842,113372,846600,843387,847491,51,846600,Sternberg_updated,113,114321,118,yes,1024
96,96,967,967,black,no,experiment,Mozilla,Netscape,"5.0 (Macintosh; Intel Mac OS X 10_15_7) AppleWebKit/605.1.15 (KHTML, like Gecko) Version/14.1.1 Safari/605.1.15",legacy,legacy,legacy,0,uniform,1,1,left,118,118,118,118,0,0,0,118,118,0,0,0,118,118,118,0,0,118,118,0,29-08-21,29-08-21,11:45:01,Wed Sep 29 2021 11:45:01 GMT+0200 (CEST),The main experiment item,yes,0,0,/Users/ethan/Documents/GitHub/OpenSesame/Sternberg/experiment_files,0,0,0,no,mono,no,18,no,white,no,no,768,42,3.6.1,legacy,legacy,1 8 7,osweb,1.4.0,1,0,n,36,,0,left,right,right,space,right,right,left,719,20103,38701,24778,14821,13410,719,2,legacy,972,1680,24,1050,24,0,26,1680,1632908780825,3,1024,2,48000,-16,experiment,0,even,MacIntel,4,850745,397265,677935,847493,51,848519,771650,51,24842,113372,852762,849533,853487,51,852762,Sternberg_updated,114,115040,119,yes,1024
96,96,974,974,black,no,experiment,Mozilla,Netscape,"5.0 (Macintosh; Intel Mac OS X 10_15_7) AppleWebKit/605.1.15 (KHTML, like Gecko) Version/14.1.1 Safari/605.1.15",legacy,legacy,legacy,0,uniform,1,1,right,119,119,119,119,0,0,0,119,119,0,0,0,119,119,119,0,0,119,119,0,29-08-21,29-08-21,11:45:01,Wed Sep 29 2021 11:45:01 GMT+0200 (CEST),The main experiment item,yes,0,0,/Users/ethan/Documents/GitHub/OpenSesame/Sternberg/experiment_files,0,0,0,no,mono,no,18,no,white,no,no,768,42,3.6.1,legacy,legacy,7 4 2 6 3 5,osweb,1.4.0,1,6,y,36,,0,right,right,right,space,right,right,right,1860,20103,38701,24778,14821,13410,1860,2,legacy,972,1680,24,1050,24,0,26,1680,1632908780825,6,1024,2,48000,-16,experiment,0,even,MacIntel,5,856732,397265,677935,853489,51,854522,771650,51,24842,113372,858751,855527,860623,51,858751,Sternberg_updated,115,116900,120,yes,1024
