acc,accuracy,average_response_time,avg_rt,background,bidi,block,browser_codename,browser_name,browser_version,canvas_backend,clock_backend,color_backend,compensation,coordinates,correct,correct_keyboard_response,correct_response,count_ISI,count_break1,count_break_2,count_correct_feedback,count_credits,count_experiment,count_experimentLoop,count_fixation,count_incorrect_feedback,count_instructions1a,count_instructions1b,count_instructions2,count_keyboard_response,count_memory_set,count_new_logger,count_osweb,count_practiceLoop,count_practiceSequence,count_probe,count_thankYou,date_startdate,date_startdateUTC,date_starttime,datetime,description,disable_garbage_collection,experiment_debug,experiment_parameters,experiment_path,experiment_pilot,experiment_taskname,experiment_taskversion,font_bold,font_family,font_italic,font_size,font_underline,foreground,form_clicks,fullscreen,height,jatosStudyResultId,jatosVersion,keyboard_backend,mouse_backend,numberSet,opensesame_codename,opensesame_version,penwidth,posInSet,present,queryParams_batchId,queryParams_generalMultiple,repeat_cycle,response,response_break1,response_break_2,response_instructions1a,response_instructions1b,response_instructions2,response_keyboard_response,response_time,response_time_break1,response_time_break_2,response_time_instructions1a,response_time_instructions1b,response_time_instructions2,response_time_keyboard_response,round_decimals,sampler_backend,screen_availableHeight,screen_availableWidth,screen_colorDepth,screen_height,screen_pixelDepth,screen_screenX,screen_screenY,screen_width,sessionid,setSize,sound_buf_size,sound_channels,sound_freq,sound_sample_size,start,subject_nr,subject_parity,system_os,target,time_ISI,time_break1,time_break_2,time_correct_feedback,time_experimentLoop,time_fixation,time_incorrect_feedback,time_instructions1a,time_instructions1b,time_instructions2,time_keyboard_response,time_memory_set,time_new_logger,time_practiceLoop,time_probe,title,total_correct,total_response_time,total_responses,uniform_coordinates,width
100,100,1332,1332,black,no,practice,Mozilla,Netscape,"5.0 (Windows NT 10.0; Win64; x64) AppleWebKit/537.36 (KHTML, like Gecko) Chrome/94.0.4606.61 Safari/537.36",legacy,legacy,legacy,0,uniform,1,1,right,0,0,0,0,0,0,0,0,0,0,0,0,0,0,0,0,0,0,0,0,29-08-21,29-08-21,11:45:52,Wed Sep 29 2021 11:45:52 GMT+0200 (Central European Summer Time),The main experiment item,yes,0,0,/Users/ethan/Documents/GitHub/OpenSesame/Sternberg/experiment_files,0,0,0,no,mono,no,18,no,white,no,no,768,44,3.6.1,legacy,legacy,4 3 1 7 9 8,osweb,1.4.0,1,1,y,36,,0,right,,,space,right,,right,1332,,,16717,19234,,1332,2,legacy,680,1280,24,720,24,0,0,1280,1632908800806,6,1024,2,48000,-16,experiment,0,even,Win32,4,38372,,,,111,36152,,111,16842,,40390,37156,41738,111,40389,Sternberg_updated,1,1332,1,yes,1024
100,100,1185,1185,black,no,practice,Mozilla,Netscape,"5.0 (Windows NT 10.0; Win64; x64) AppleWebKit/537.36 (KHTML, like Gecko) Chrome/94.0.4606.61 Safari/537.36",legacy,legacy,legacy,0,uniform,1,1,left,1,1,1,1,0,0,0,1,1,0,0,0,1,1,1,0,0,1,1,0,29-08-21,29-08-21,11:45:52,Wed Sep 29 2021 11:45:52 GMT+0200 (Central European Summer Time),The main experiment item,yes,0,0,/Users/ethan/Documents/GitHub/OpenSesame/Sternberg/experiment_files,0,0,0,no,mono,no,18,no,white,no,no,768,44,3.6.1,legacy,legacy,5 7 8 4 1 2,osweb,1.4.0,1,0,n,36,,0,left,,,space,right,,left,1038,,,16717,19234,,1038,2,legacy,680,1280,24,720,24,0,0,1280,1632908800806,6,1024,2,48000,-16,experiment,0,even,Win32,6,45021,,,41741,111,42790,,111,16842,,47038,43805,48087,111,47038,Sternberg_updated,2,2370,2,yes,1024
100,100,1071,1071,black,no,practice,Mozilla,Netscape,"5.0 (Windows NT 10.0; Win64; x64) AppleWebKit/537.36 (KHTML, like Gecko) Chrome/94.0.4606.61 Safari/537.36",legacy,legacy,legacy,0,uniform,1,1,left,2,2,2,2,0,0,0,2,2,0,0,0,2,2,2,0,0,2,2,0,29-08-21,29-08-21,11:45:52,Wed Sep 29 2021 11:45:52 GMT+0200 (Central European Summer Time),The main experiment item,yes,0,0,/Users/ethan/Documents/GitHub/OpenSesame/Sternberg/experiment_files,0,0,0,no,mono,no,18,no,white,no,no,768,44,3.6.1,legacy,legacy,9 6 7 4 5,osweb,1.4.0,1,0,n,36,,0,left,,,space,right,,left,842,,,16717,19234,,842,2,legacy,680,1280,24,720,24,0,0,1280,1632908800806,5,1024,2,48000,-16,experiment,0,even,Win32,3,51353,,,48088,111,49128,,111,16842,,53370,50137,54219,111,53370,Sternberg_updated,3,3212,3,yes,1024
100,100,1015,1015,black,no,practice,Mozilla,Netscape,"5.0 (Windows NT 10.0; Win64; x64) AppleWebKit/537.36 (KHTML, like Gecko) Chrome/94.0.4606.61 Safari/537.36",legacy,legacy,legacy,0,uniform,1,1,left,3,3,3,3,0,0,0,3,3,0,0,0,3,3,3,0,0,3,3,0,29-08-21,29-08-21,11:45:52,Wed Sep 29 2021 11:45:52 GMT+0200 (Central European Summer Time),The main experiment item,yes,0,0,/Users/ethan/Documents/GitHub/OpenSesame/Sternberg/experiment_files,0,0,0,no,mono,no,18,no,white,no,no,768,44,3.6.1,legacy,legacy,3 1 9 4,osweb,1.4.0,1,0,n,36,,0,left,,,space,right,,left,849,,,16717,19234,,849,2,legacy,680,1280,24,720,24,0,0,1280,1632908800806,4,1024,2,48000,-16,experiment,0,even,Win32,6,57486,,,54221,111,55262,,111,16842,,59502,56270,60352,111,59502,Sternberg_updated,4,4061,4,yes,1024
100,100,934,934,black,no,practice,Mozilla,Netscape,"5.0 (Windows NT 10.0; Win64; x64) AppleWebKit/537.36 (KHTML, like Gecko) Chrome/94.0.4606.61 Safari/537.36",legacy,legacy,legacy,0,uniform,1,1,right,4,4,4,4,0,0,0,4,4,0,0,0,4,4,4,0,0,4,4,0,29-08-21,29-08-21,11:45:52,Wed Sep 29 2021 11:45:52 GMT+0200 (Central European Summer Time),The main experiment item,yes,0,0,/Users/ethan/Documents/GitHub/OpenSesame/Sternberg/experiment_files,0,0,0,no,mono,no,18,no,white,no,no,768,44,3.6.1,legacy,legacy,4 8,osweb,1.4.0,1,1,y,36,,0,right,,,space,right,,right,607,,,16717,19234,,607,2,legacy,680,1280,24,720,24,0,0,1280,1632908800806,2,1024,2,48000,-16,experiment,0,even,Win32,4,63618,,,60353,111,61392,,111,16842,,65635,62402,66251,111,65635,Sternberg_updated,5,4668,5,yes,1024
100,100,967,967,black,no,practice,Mozilla,Netscape,"5.0 (Windows NT 10.0; Win64; x64) AppleWebKit/537.36 (KHTML, like Gecko) Chrome/94.0.4606.61 Safari/537.36",legacy,legacy,legacy,0,uniform,1,1,right,5,5,5,5,0,0,0,5,5,0,0,0,5,5,5,0,0,5,5,0,29-08-21,29-08-21,11:45:52,Wed Sep 29 2021 11:45:52 GMT+0200 (Central European Summer Time),The main experiment item,yes,0,0,/Users/ethan/Documents/GitHub/OpenSesame/Sternberg/experiment_files,0,0,0,no,mono,no,18,no,white,no,no,768,44,3.6.1,legacy,legacy,1 7 9 8 5,osweb,1.4.0,1,4,y,36,,0,right,,,space,right,,right,1136,,,16717,19234,,1136,2,legacy,680,1280,24,720,24,0,0,1280,1632908800806,5,1024,2,48000,-16,experiment,0,even,Win32,8,69518,,,66255,111,67292,,111,16842,,71534,68301,72684,111,71534,Sternberg_updated,6,5804,6,yes,1024
100,100,944,944,black,no,practice,Mozilla,Netscape,"5.0 (Windows NT 10.0; Win64; x64) AppleWebKit/537.36 (KHTML, like Gecko) Chrome/94.0.4606.61 Safari/537.36",legacy,legacy,legacy,0,uniform,1,1,right,6,6,6,6,0,0,0,6,6,0,0,0,6,6,6,0,0,6,6,0,29-08-21,29-08-21,11:45:52,Wed Sep 29 2021 11:45:52 GMT+0200 (Central European Summer Time),The main experiment item,yes,0,0,/Users/ethan/Documents/GitHub/OpenSesame/Sternberg/experiment_files,0,0,0,no,mono,no,18,no,white,no,no,768,44,3.6.1,legacy,legacy,1 5 2 9,osweb,1.4.0,1,2,y,36,,0,right,,,space,right,,right,804,,,16717,19234,,804,2,legacy,680,1280,24,720,24,0,0,1280,1632908800806,4,1024,2,48000,-16,experiment,0,even,Win32,5,75950,,,72685,111,73724,,111,16842,,77967,74734,78783,111,77967,Sternberg_updated,7,6608,7,yes,1024
100,100,884,884,black,no,practice,Mozilla,Netscape,"5.0 (Windows NT 10.0; Win64; x64) AppleWebKit/537.36 (KHTML, like Gecko) Chrome/94.0.4606.61 Safari/537.36",legacy,legacy,legacy,0,uniform,1,1,left,7,7,7,7,0,0,0,7,7,0,0,0,7,7,7,0,0,7,7,0,29-08-21,29-08-21,11:45:52,Wed Sep 29 2021 11:45:52 GMT+0200 (Central European Summer Time),The main experiment item,yes,0,0,/Users/ethan/Documents/GitHub/OpenSesame/Sternberg/experiment_files,0,0,0,no,mono,no,18,no,white,no,no,768,44,3.6.1,legacy,legacy,4 1 5,osweb,1.4.0,1,0,n,36,,0,left,,,space,right,,left,467,,,16717,19234,,467,2,legacy,680,1280,24,720,24,0,0,1280,1632908800806,3,1024,2,48000,-16,experiment,0,even,Win32,2,82049,,,78784,111,79828,,111,16842,,84066,80833,84549,111,84066,Sternberg_updated,8,7075,8,yes,1024
89,89,869,869,black,no,practice,Mozilla,Netscape,"5.0 (Windows NT 10.0; Win64; x64) AppleWebKit/537.36 (KHTML, like Gecko) Chrome/94.0.4606.61 Safari/537.36",legacy,legacy,legacy,0,uniform,0,0,left,8,8,8,8,0,0,0,8,8,0,0,0,8,8,8,0,0,8,8,0,29-08-21,29-08-21,11:45:52,Wed Sep 29 2021 11:45:52 GMT+0200 (Central European Summer Time),The main experiment item,yes,0,0,/Users/ethan/Documents/GitHub/OpenSesame/Sternberg/experiment_files,0,0,0,no,mono,no,18,no,white,no,no,768,44,3.6.1,legacy,legacy,5,osweb,1.4.0,1,0,n,36,,0,right,,,space,right,,right,749,,,16717,19234,,749,2,legacy,680,1280,24,720,24,0,0,1280,1632908800806,1,1024,2,48000,-16,experiment,0,even,Win32,3,87815,,,84550,111,85592,,111,16842,,89832,86599,90582,111,89832,Sternberg_updated,8,7824,9,yes,1024
90,90,830,830,black,no,practice,Mozilla,Netscape,"5.0 (Windows NT 10.0; Win64; x64) AppleWebKit/537.36 (KHTML, like Gecko) Chrome/94.0.4606.61 Safari/537.36",legacy,legacy,legacy,0,uniform,1,1,left,9,9,9,9,0,0,0,9,9,0,0,0,9,9,9,0,0,9,9,0,29-08-21,29-08-21,11:45:52,Wed Sep 29 2021 11:45:52 GMT+0200 (Central European Summer Time),The main experiment item,yes,0,0,/Users/ethan/Documents/GitHub/OpenSesame/Sternberg/experiment_files,0,0,0,no,mono,no,18,no,white,no,no,768,44,3.6.1,legacy,legacy,2 1,osweb,1.4.0,1,0,n,36,,0,left,,,space,right,,left,479,,,16717,19234,,479,2,legacy,680,1280,24,720,24,0,0,1280,1632908800806,2,1024,2,48000,-16,experiment,0,even,Win32,5,93848,,,84550,111,91626,90584,111,16842,,95865,92632,96347,111,95865,Sternberg_updated,9,8303,10,yes,1024
91,91,829,829,black,no,practice,Mozilla,Netscape,"5.0 (Windows NT 10.0; Win64; x64) AppleWebKit/537.36 (KHTML, like Gecko) Chrome/94.0.4606.61 Safari/537.36",legacy,legacy,legacy,0,uniform,1,1,right,10,10,10,10,0,0,0,10,10,0,0,0,10,10,10,0,0,10,10,0,29-08-21,29-08-21,11:45:52,Wed Sep 29 2021 11:45:52 GMT+0200 (Central European Summer Time),The main experiment item,yes,0,0,/Users/ethan/Documents/GitHub/OpenSesame/Sternberg/experiment_files,0,0,0,no,mono,no,18,no,white,no,no,768,44,3.6.1,legacy,legacy,6,osweb,1.4.0,1,1,y,36,,0,right,,,space,right,,right,811,,,16717,19234,,811,2,legacy,680,1280,24,720,24,0,0,1280,1632908800806,1,1024,2,48000,-16,experiment,0,even,Win32,6,99614,,,96349,111,97389,90584,111,16842,,101630,98398,102447,111,101630,Sternberg_updated,10,9114,11,yes,1024
92,92,816,816,black,no,practice,Mozilla,Netscape,"5.0 (Windows NT 10.0; Win64; x64) AppleWebKit/537.36 (KHTML, like Gecko) Chrome/94.0.4606.61 Safari/537.36",legacy,legacy,legacy,0,uniform,1,1,right,11,11,11,11,0,0,0,11,11,0,0,0,11,11,11,0,0,11,11,0,29-08-21,29-08-21,11:45:52,Wed Sep 29 2021 11:45:52 GMT+0200 (Central European Summer Time),The main experiment item,yes,0,0,/Users/ethan/Documents/GitHub/OpenSesame/Sternberg/experiment_files,0,0,0,no,mono,no,18,no,white,no,no,768,44,3.6.1,legacy,legacy,2 9 4,osweb,1.4.0,1,3,y,36,,0,right,,,space,right,,right,683,,,16717,19234,,683,2,legacy,680,1280,24,720,24,0,0,1280,1632908800806,3,1024,2,48000,-16,experiment,0,even,Win32,4,105713,,,102448,111,103488,90584,111,16842,,107730,104497,108429,111,107730,Sternberg_updated,11,9797,12,yes,1024
92,92,808,808,black,no,experiment,Mozilla,Netscape,"5.0 (Windows NT 10.0; Win64; x64) AppleWebKit/537.36 (KHTML, like Gecko) Chrome/94.0.4606.61 Safari/537.36",legacy,legacy,legacy,0,uniform,1,1,right,12,12,12,12,0,0,0,12,12,0,0,0,12,12,12,0,0,12,12,0,29-08-21,29-08-21,11:45:52,Wed Sep 29 2021 11:45:52 GMT+0200 (Central European Summer Time),The main experiment item,yes,0,0,/Users/ethan/Documents/GitHub/OpenSesame/Sternberg/experiment_files,0,0,0,no,mono,no,18,no,white,no,no,768,44,3.6.1,legacy,legacy,9 1 6 7 8,osweb,1.4.0,1,1,y,36,,0,right,,,space,right,right,right,708,,,16717,19234,17396,708,2,legacy,680,1280,24,720,24,0,0,1280,1632908800806,5,1024,2,48000,-16,experiment,0,even,Win32,9,129127,,,108430,111,126897,90584,111,16842,109448,131144,127911,131860,111,131143,Sternberg_updated,12,10505,13,yes,1024
93,93,792,792,black,no,experiment,Mozilla,Netscape,"5.0 (Windows NT 10.0; Win64; x64) AppleWebKit/537.36 (KHTML, like Gecko) Chrome/94.0.4606.61 Safari/537.36",legacy,legacy,legacy,0,uniform,1,1,right,13,13,13,13,0,0,0,13,13,0,0,0,13,13,13,0,0,13,13,0,29-08-21,29-08-21,11:45:52,Wed Sep 29 2021 11:45:52 GMT+0200 (Central European Summer Time),The main experiment item,yes,0,0,/Users/ethan/Documents/GitHub/OpenSesame/Sternberg/experiment_files,0,0,0,no,mono,no,18,no,white,no,no,768,44,3.6.1,legacy,legacy,2 3,osweb,1.4.0,1,1,y,36,,0,right,,,space,right,right,right,576,,,16717,19234,17396,576,2,legacy,680,1280,24,720,24,0,0,1280,1632908800806,2,1024,2,48000,-16,experiment,0,even,Win32,2,135126,,,131861,111,132901,90584,111,16842,109448,137143,133910,137725,111,137143,Sternberg_updated,13,11081,14,yes,1024
93,93,769,769,black,no,experiment,Mozilla,Netscape,"5.0 (Windows NT 10.0; Win64; x64) AppleWebKit/537.36 (KHTML, like Gecko) Chrome/94.0.4606.61 Safari/537.36",legacy,legacy,legacy,0,uniform,1,1,left,14,14,14,14,0,0,0,14,14,0,0,0,14,14,14,0,0,14,14,0,29-08-21,29-08-21,11:45:52,Wed Sep 29 2021 11:45:52 GMT+0200 (Central European Summer Time),The main experiment item,yes,0,0,/Users/ethan/Documents/GitHub/OpenSesame/Sternberg/experiment_files,0,0,0,no,mono,no,18,no,white,no,no,768,44,3.6.1,legacy,legacy,7 8 6 1,osweb,1.4.0,1,0,n,36,,0,left,,,space,right,right,left,457,,,16717,19234,17396,457,2,legacy,680,1280,24,720,24,0,0,1280,1632908800806,4,1024,2,48000,-16,experiment,0,even,Win32,3,140992,,,137726,111,138765,90584,111,16842,109448,143008,139776,143475,111,143008,Sternberg_updated,14,11538,15,yes,1024
94,94,759,759,black,no,experiment,Mozilla,Netscape,"5.0 (Windows NT 10.0; Win64; x64) AppleWebKit/537.36 (KHTML, like Gecko) Chrome/94.0.4606.61 Safari/537.36",legacy,legacy,legacy,0,uniform,1,1,right,15,15,15,15,0,0,0,15,15,0,0,0,15,15,15,0,0,15,15,0,29-08-21,29-08-21,11:45:52,Wed Sep 29 2021 11:45:52 GMT+0200 (Central European Summer Time),The main experiment item,yes,0,0,/Users/ethan/Documents/GitHub/OpenSesame/Sternberg/experiment_files,0,0,0,no,mono,no,18,no,white,no,no,768,44,3.6.1,legacy,legacy,6 7 8 5,osweb,1.4.0,1,3,y,36,,0,right,,,space,right,right,right,602,,,16717,19234,17396,602,2,legacy,680,1280,24,720,24,0,0,1280,1632908800806,4,1024,2,48000,-16,experiment,0,even,Win32,8,146741,,,143476,111,144519,90584,111,16842,109448,148758,145525,149374,111,148758,Sternberg_updated,15,12140,16,yes,1024
94,94,757,757,black,no,experiment,Mozilla,Netscape,"5.0 (Windows NT 10.0; Win64; x64) AppleWebKit/537.36 (KHTML, like Gecko) Chrome/94.0.4606.61 Safari/537.36",legacy,legacy,legacy,0,uniform,1,1,left,16,16,16,16,0,0,0,16,16,0,0,0,16,16,16,0,0,16,16,0,29-08-21,29-08-21,11:45:52,Wed Sep 29 2021 11:45:52 GMT+0200 (Central European Summer Time),The main experiment item,yes,0,0,/Users/ethan/Documents/GitHub/OpenSesame/Sternberg/experiment_files,0,0,0,no,mono,no,18,no,white,no,no,768,44,3.6.1,legacy,legacy,1 4 9 2 5,osweb,1.4.0,1,0,n,36,,0,left,,,space,right,right,left,726,,,16717,19234,17396,726,2,legacy,680,1280,24,720,24,0,0,1280,1632908800806,5,1024,2,48000,-16,experiment,0,even,Win32,7,152640,,,149375,111,150422,90584,111,16842,109448,154657,151424,155390,111,154657,Sternberg_updated,16,12866,17,yes,1024
94,94,743,743,black,no,experiment,Mozilla,Netscape,"5.0 (Windows NT 10.0; Win64; x64) AppleWebKit/537.36 (KHTML, like Gecko) Chrome/94.0.4606.61 Safari/537.36",legacy,legacy,legacy,0,uniform,1,1,left,17,17,17,17,0,0,0,17,17,0,0,0,17,17,17,0,0,17,17,0,29-08-21,29-08-21,11:45:52,Wed Sep 29 2021 11:45:52 GMT+0200 (Central European Summer Time),The main experiment item,yes,0,0,/Users/ethan/Documents/GitHub/OpenSesame/Sternberg/experiment_files,0,0,0,no,mono,no,18,no,white,no,no,768,44,3.6.1,legacy,legacy,6 9 5,osweb,1.4.0,1,0,n,36,,0,left,,,space,right,right,left,512,,,16717,19234,17396,512,2,legacy,680,1280,24,720,24,0,0,1280,1632908800806,3,1024,2,48000,-16,experiment,0,even,Win32,8,158656,,,155391,111,156434,90584,111,16842,109448,160673,157440,161189,111,160673,Sternberg_updated,17,13378,18,yes,1024
95,95,732,732,black,no,experiment,Mozilla,Netscape,"5.0 (Windows NT 10.0; Win64; x64) AppleWebKit/537.36 (KHTML, like Gecko) Chrome/94.0.4606.61 Safari/537.36",legacy,legacy,legacy,0,uniform,1,1,left,18,18,18,18,0,0,0,18,18,0,0,0,18,18,18,0,0,18,18,0,29-08-21,29-08-21,11:45:52,Wed Sep 29 2021 11:45:52 GMT+0200 (Central European Summer Time),The main experiment item,yes,0,0,/Users/ethan/Documents/GitHub/OpenSesame/Sternberg/experiment_files,0,0,0,no,mono,no,18,no,white,no,no,768,44,3.6.1,legacy,legacy,4 2 6 9,osweb,1.4.0,1,0,n,36,,0,left,,,space,right,right,left,524,,,16717,19234,17396,524,2,legacy,680,1280,24,720,24,0,0,1280,1632908800806,4,1024,2,48000,-16,experiment,0,even,Win32,7,164455,,,161190,111,162229,90584,111,16842,109448,166472,163239,167005,111,166472,Sternberg_updated,18,13902,19,yes,1024
95,95,721,721,black,no,experiment,Mozilla,Netscape,"5.0 (Windows NT 10.0; Win64; x64) AppleWebKit/537.36 (KHTML, like Gecko) Chrome/94.0.4606.61 Safari/537.36",legacy,legacy,legacy,0,uniform,1,1,right,19,19,19,19,0,0,0,19,19,0,0,0,19,19,19,0,0,19,19,0,29-08-21,29-08-21,11:45:52,Wed Sep 29 2021 11:45:52 GMT+0200 (Central European Summer Time),The main experiment item,yes,0,0,/Users/ethan/Documents/GitHub/OpenSesame/Sternberg/experiment_files,0,0,0,no,mono,no,18,no,white,no,no,768,44,3.6.1,legacy,legacy,9 1 7 2,osweb,1.4.0,1,2,y,36,,0,right,,,space,right,right,right,517,,,16717,19234,17396,517,2,legacy,680,1280,24,720,24,0,0,1280,1632908800806,4,1024,2,48000,-16,experiment,0,even,Win32,1,170272,,,167006,111,168048,90584,111,16842,109448,172288,169055,172821,111,172288,Sternberg_updated,19,14419,20,yes,1024
95,95,716,716,black,no,experiment,Mozilla,Netscape,"5.0 (Windows NT 10.0; Win64; x64) AppleWebKit/537.36 (KHTML, like Gecko) Chrome/94.0.4606.61 Safari/537.36",legacy,legacy,legacy,0,uniform,1,1,left,20,20,20,20,0,0,0,20,20,0,0,0,20,20,20,0,0,20,20,0,29-08-21,29-08-21,11:45:52,Wed Sep 29 2021 11:45:52 GMT+0200 (Central European Summer Time),The main experiment item,yes,0,0,/Users/ethan/Documents/GitHub/OpenSesame/Sternberg/experiment_files,0,0,0,no,mono,no,18,no,white,no,no,768,44,3.6.1,legacy,legacy,8 5 7 3 6,osweb,1.4.0,1,0,n,36,,0,left,,,space,right,right,left,609,,,16717,19234,17396,609,2,legacy,680,1280,24,720,24,0,0,1280,1632908800806,5,1024,2,48000,-16,experiment,0,even,Win32,9,176087,,,172822,111,173867,90584,111,16842,109448,178104,174871,178720,111,178104,Sternberg_updated,20,15028,21,yes,1024
95,95,715,715,black,no,experiment,Mozilla,Netscape,"5.0 (Windows NT 10.0; Win64; x64) AppleWebKit/537.36 (KHTML, like Gecko) Chrome/94.0.4606.61 Safari/537.36",legacy,legacy,legacy,0,uniform,1,1,right,21,21,21,21,0,0,0,21,21,0,0,0,21,21,21,0,0,21,21,0,29-08-21,29-08-21,11:45:52,Wed Sep 29 2021 11:45:52 GMT+0200 (Central European Summer Time),The main experiment item,yes,0,0,/Users/ethan/Documents/GitHub/OpenSesame/Sternberg/experiment_files,0,0,0,no,mono,no,18,no,white,no,no,768,44,3.6.1,legacy,legacy,9 3 8 2 1 4,osweb,1.4.0,1,3,y,36,,0,right,,,space,right,right,right,698,,,16717,19234,17396,698,2,legacy,680,1280,24,720,24,0,0,1280,1632908800806,6,1024,2,48000,-16,experiment,0,even,Win32,8,181987,,,178721,111,179761,90584,111,16842,109448,184003,180770,184703,111,184003,Sternberg_updated,21,15726,22,yes,1024
96,96,718,718,black,no,experiment,Mozilla,Netscape,"5.0 (Windows NT 10.0; Win64; x64) AppleWebKit/537.36 (KHTML, like Gecko) Chrome/94.0.4606.61 Safari/537.36",legacy,legacy,legacy,0,uniform,1,1,right,22,22,22,22,0,0,0,22,22,0,0,0,22,22,22,0,0,22,22,0,29-08-21,29-08-21,11:45:52,Wed Sep 29 2021 11:45:52 GMT+0200 (Central European Summer Time),The main experiment item,yes,0,0,/Users/ethan/Documents/GitHub/OpenSesame/Sternberg/experiment_files,0,0,0,no,mono,no,18,no,white,no,no,768,44,3.6.1,legacy,legacy,8 7 3,osweb,1.4.0,1,1,y,36,,0,right,,,space,right,right,right,795,,,16717,19234,17396,795,2,legacy,680,1280,24,720,24,0,0,1280,1632908800806,3,1024,2,48000,-16,experiment,0,even,Win32,8,187969,,,184704,111,185744,90584,111,16842,109448,189986,186753,190785,111,189986,Sternberg_updated,22,16521,23,yes,1024
96,96,707,707,black,no,experiment,Mozilla,Netscape,"5.0 (Windows NT 10.0; Win64; x64) AppleWebKit/537.36 (KHTML, like Gecko) Chrome/94.0.4606.61 Safari/537.36",legacy,legacy,legacy,0,uniform,1,1,right,23,23,23,23,0,0,0,23,23,0,0,0,23,23,23,0,0,23,23,0,29-08-21,29-08-21,11:45:52,Wed Sep 29 2021 11:45:52 GMT+0200 (Central European Summer Time),The main experiment item,yes,0,0,/Users/ethan/Documents/GitHub/OpenSesame/Sternberg/experiment_files,0,0,0,no,mono,no,18,no,white,no,no,768,44,3.6.1,legacy,legacy,8 5 1 3 9,osweb,1.4.0,1,4,y,36,,0,right,,,space,right,right,right,443,,,16717,19234,17396,443,2,legacy,680,1280,24,720,24,0,0,1280,1632908800806,5,1024,2,48000,-16,experiment,0,even,Win32,3,194052,,,190787,111,191834,90584,111,16842,109448,196069,192836,196518,111,196069,Sternberg_updated,23,16964,24,yes,1024
96,96,701,701,black,no,experiment,Mozilla,Netscape,"5.0 (Windows NT 10.0; Win64; x64) AppleWebKit/537.36 (KHTML, like Gecko) Chrome/94.0.4606.61 Safari/537.36",legacy,legacy,legacy,0,uniform,1,1,right,24,24,24,24,0,0,0,24,24,0,0,0,24,24,24,0,0,24,24,0,29-08-21,29-08-21,11:45:52,Wed Sep 29 2021 11:45:52 GMT+0200 (Central European Summer Time),The main experiment item,yes,0,0,/Users/ethan/Documents/GitHub/OpenSesame/Sternberg/experiment_files,0,0,0,no,mono,no,18,no,white,no,no,768,44,3.6.1,legacy,legacy,9 5 3 8 4,osweb,1.4.0,1,1,y,36,,0,right,,,space,right,right,right,570,,,16717,19234,17396,570,2,legacy,680,1280,24,720,24,0,0,1280,1632908800806,5,1024,2,48000,-16,experiment,0,even,Win32,9,199784,,,196519,111,197559,90584,111,16842,109448,201801,198568,202384,111,201801,Sternberg_updated,24,17534,25,yes,1024
96,96,700,700,black,no,experiment,Mozilla,Netscape,"5.0 (Windows NT 10.0; Win64; x64) AppleWebKit/537.36 (KHTML, like Gecko) Chrome/94.0.4606.61 Safari/537.36",legacy,legacy,legacy,0,uniform,1,1,left,25,25,25,25,0,0,0,25,25,0,0,0,25,25,25,0,0,25,25,0,29-08-21,29-08-21,11:45:52,Wed Sep 29 2021 11:45:52 GMT+0200 (Central European Summer Time),The main experiment item,yes,0,0,/Users/ethan/Documents/GitHub/OpenSesame/Sternberg/experiment_files,0,0,0,no,mono,no,18,no,white,no,no,768,44,3.6.1,legacy,legacy,2 8 7 9 5 3,osweb,1.4.0,1,0,n,36,,0,left,,,space,right,right,left,655,,,16717,19234,17396,655,2,legacy,680,1280,24,720,24,0,0,1280,1632908800806,6,1024,2,48000,-16,experiment,0,even,Win32,6,205650,,,202385,111,203428,90584,111,16842,109448,207667,204434,208333,111,207667,Sternberg_updated,25,18189,26,yes,1024
96,96,693,693,black,no,experiment,Mozilla,Netscape,"5.0 (Windows NT 10.0; Win64; x64) AppleWebKit/537.36 (KHTML, like Gecko) Chrome/94.0.4606.61 Safari/537.36",legacy,legacy,legacy,0,uniform,1,1,right,26,26,26,26,0,0,0,26,26,0,0,0,26,26,26,0,0,26,26,0,29-08-21,29-08-21,11:45:52,Wed Sep 29 2021 11:45:52 GMT+0200 (Central European Summer Time),The main experiment item,yes,0,0,/Users/ethan/Documents/GitHub/OpenSesame/Sternberg/experiment_files,0,0,0,no,mono,no,18,no,white,no,no,768,44,3.6.1,legacy,legacy,5 2 6,osweb,1.4.0,1,2,y,36,,0,right,,,space,right,right,right,513,,,16717,19234,17396,513,2,legacy,680,1280,24,720,24,0,0,1280,1632908800806,3,1024,2,48000,-16,experiment,0,even,Win32,2,211599,,,208334,111,209373,90584,111,16842,109448,213616,210383,214132,111,213616,Sternberg_updated,26,18702,27,yes,1024
96,96,685,685,black,no,experiment,Mozilla,Netscape,"5.0 (Windows NT 10.0; Win64; x64) AppleWebKit/537.36 (KHTML, like Gecko) Chrome/94.0.4606.61 Safari/537.36",legacy,legacy,legacy,0,uniform,1,1,right,27,27,27,27,0,0,0,27,27,0,0,0,27,27,27,0,0,27,27,0,29-08-21,29-08-21,11:45:52,Wed Sep 29 2021 11:45:52 GMT+0200 (Central European Summer Time),The main experiment item,yes,0,0,/Users/ethan/Documents/GitHub/OpenSesame/Sternberg/experiment_files,0,0,0,no,mono,no,18,no,white,no,no,768,44,3.6.1,legacy,legacy,4 1 8 7 5,osweb,1.4.0,1,3,y,36,,0,right,,,space,right,right,right,476,,,16717,19234,17396,476,2,legacy,680,1280,24,720,24,0,0,1280,1632908800806,5,1024,2,48000,-16,experiment,0,even,Win32,8,217399,,,214134,111,215174,90584,111,16842,109448,219416,216183,219898,111,219416,Sternberg_updated,27,19178,28,yes,1024
97,97,686,686,black,no,experiment,Mozilla,Netscape,"5.0 (Windows NT 10.0; Win64; x64) AppleWebKit/537.36 (KHTML, like Gecko) Chrome/94.0.4606.61 Safari/537.36",legacy,legacy,legacy,0,uniform,1,1,right,28,28,28,28,0,0,0,28,28,0,0,0,28,28,28,0,0,28,28,0,29-08-21,29-08-21,11:45:52,Wed Sep 29 2021 11:45:52 GMT+0200 (Central European Summer Time),The main experiment item,yes,0,0,/Users/ethan/Documents/GitHub/OpenSesame/Sternberg/experiment_files,0,0,0,no,mono,no,18,no,white,no,no,768,44,3.6.1,legacy,legacy,3 4 9 6 2 9,osweb,1.4.0,1,5,y,36,,0,right,,,space,right,right,right,714,,,16717,19234,17396,714,2,legacy,680,1280,24,720,24,0,0,1280,1632908800806,6,1024,2,48000,-16,experiment,0,even,Win32,2,223165,,,219899,111,220938,90584,111,16842,109448,225181,221949,225897,111,225181,Sternberg_updated,28,19892,29,yes,1024
97,97,695,695,black,no,experiment,Mozilla,Netscape,"5.0 (Windows NT 10.0; Win64; x64) AppleWebKit/537.36 (KHTML, like Gecko) Chrome/94.0.4606.61 Safari/537.36",legacy,legacy,legacy,0,uniform,1,1,left,29,29,29,29,0,0,0,29,29,0,0,0,29,29,29,0,0,29,29,0,29-08-21,29-08-21,11:45:52,Wed Sep 29 2021 11:45:52 GMT+0200 (Central European Summer Time),The main experiment item,yes,0,0,/Users/ethan/Documents/GitHub/OpenSesame/Sternberg/experiment_files,0,0,0,no,mono,no,18,no,white,no,no,768,44,3.6.1,legacy,legacy,7 1 8 4 9 3,osweb,1.4.0,1,0,n,36,,0,left,,,space,right,right,left,957,,,16717,19234,17396,957,2,legacy,680,1280,24,720,24,0,0,1280,1632908800806,6,1024,2,48000,-16,experiment,0,even,Win32,6,229164,,,225899,111,226941,90584,111,16842,109448,231181,227948,232147,111,231181,Sternberg_updated,29,20849,30,yes,1024
97,97,696,696,black,no,experiment,Mozilla,Netscape,"5.0 (Windows NT 10.0; Win64; x64) AppleWebKit/537.36 (KHTML, like Gecko) Chrome/94.0.4606.61 Safari/537.36",legacy,legacy,legacy,0,uniform,1,1,right,30,30,30,30,0,0,0,30,30,0,0,0,30,30,30,0,0,30,30,0,29-08-21,29-08-21,11:45:52,Wed Sep 29 2021 11:45:52 GMT+0200 (Central European Summer Time),The main experiment item,yes,0,0,/Users/ethan/Documents/GitHub/OpenSesame/Sternberg/experiment_files,0,0,0,no,mono,no,18,no,white,no,no,768,44,3.6.1,legacy,legacy,6 7 9 3 1 2,osweb,1.4.0,1,1,y,36,,0,right,,,space,right,right,right,714,,,16717,19234,17396,714,2,legacy,680,1280,24,720,24,0,0,1280,1632908800806,6,1024,2,48000,-16,experiment,0,even,Win32,6,235413,,,232148,111,233188,90584,111,16842,109448,237430,234197,238146,111,237430,Sternberg_updated,30,21563,31,yes,1024
97,97,696,696,black,no,experiment,Mozilla,Netscape,"5.0 (Windows NT 10.0; Win64; x64) AppleWebKit/537.36 (KHTML, like Gecko) Chrome/94.0.4606.61 Safari/537.36",legacy,legacy,legacy,0,uniform,1,1,right,31,31,31,31,0,0,0,31,31,0,0,0,31,31,31,0,0,31,31,0,29-08-21,29-08-21,11:45:52,Wed Sep 29 2021 11:45:52 GMT+0200 (Central European Summer Time),The main experiment item,yes,0,0,/Users/ethan/Documents/GitHub/OpenSesame/Sternberg/experiment_files,0,0,0,no,mono,no,18,no,white,no,no,768,44,3.6.1,legacy,legacy,7 4 2 6 3 5,osweb,1.4.0,1,6,y,36,,0,right,,,space,right,right,right,719,,,16717,19234,17396,719,2,legacy,680,1280,24,720,24,0,0,1280,1632908800806,6,1024,2,48000,-16,experiment,0,even,Win32,5,241413,,,238147,111,239188,90584,111,16842,109448,243429,240196,244162,111,243429,Sternberg_updated,31,22282,32,yes,1024
97,97,690,690,black,no,experiment,Mozilla,Netscape,"5.0 (Windows NT 10.0; Win64; x64) AppleWebKit/537.36 (KHTML, like Gecko) Chrome/94.0.4606.61 Safari/537.36",legacy,legacy,legacy,0,uniform,1,1,left,32,32,32,32,0,0,0,32,32,0,0,0,32,32,32,0,0,32,32,0,29-08-21,29-08-21,11:45:52,Wed Sep 29 2021 11:45:52 GMT+0200 (Central European Summer Time),The main experiment item,yes,0,0,/Users/ethan/Documents/GitHub/OpenSesame/Sternberg/experiment_files,0,0,0,no,mono,no,18,no,white,no,no,768,44,3.6.1,legacy,legacy,2 8 6 3 1,osweb,1.4.0,1,0,n,36,,0,left,,,space,right,right,left,475,,,16717,19234,17396,475,2,legacy,680,1280,24,720,24,0,0,1280,1632908800806,5,1024,2,48000,-16,experiment,0,even,Win32,7,247428,,,244163,111,245201,90584,111,16842,109448,249445,246212,249928,111,249445,Sternberg_updated,32,22757,33,yes,1024
97,97,685,685,black,no,experiment,Mozilla,Netscape,"5.0 (Windows NT 10.0; Win64; x64) AppleWebKit/537.36 (KHTML, like Gecko) Chrome/94.0.4606.61 Safari/537.36",legacy,legacy,legacy,0,uniform,1,1,left,33,33,33,33,0,0,0,33,33,0,0,0,33,33,33,0,0,33,33,0,29-08-21,29-08-21,11:45:52,Wed Sep 29 2021 11:45:52 GMT+0200 (Central European Summer Time),The main experiment item,yes,0,0,/Users/ethan/Documents/GitHub/OpenSesame/Sternberg/experiment_files,0,0,0,no,mono,no,18,no,white,no,no,768,44,3.6.1,legacy,legacy,9 8 2 7 4,osweb,1.4.0,1,0,n,36,,0,left,,,space,right,right,left,519,,,16717,19234,17396,519,2,legacy,680,1280,24,720,24,0,0,1280,1632908800806,5,1024,2,48000,-16,experiment,0,even,Win32,5,253194,,,249929,111,250968,90584,111,16842,109448,255211,251978,255744,111,255211,Sternberg_updated,33,23276,34,yes,1024
97,97,679,679,black,no,experiment,Mozilla,Netscape,"5.0 (Windows NT 10.0; Win64; x64) AppleWebKit/537.36 (KHTML, like Gecko) Chrome/94.0.4606.61 Safari/537.36",legacy,legacy,legacy,0,uniform,1,1,right,34,34,34,34,0,0,0,34,34,0,0,0,34,34,34,0,0,34,34,0,29-08-21,29-08-21,11:45:52,Wed Sep 29 2021 11:45:52 GMT+0200 (Central European Summer Time),The main experiment item,yes,0,0,/Users/ethan/Documents/GitHub/OpenSesame/Sternberg/experiment_files,0,0,0,no,mono,no,18,no,white,no,no,768,44,3.6.1,legacy,legacy,5 7 3 6 2,osweb,1.4.0,1,5,y,36,,0,right,,,space,right,right,right,489,,,16717,19234,17396,489,2,legacy,680,1280,24,720,24,0,0,1280,1632908800806,5,1024,2,48000,-16,experiment,0,even,Win32,2,259010,,,255745,111,256788,90584,111,16842,109448,261027,257794,261526,111,261027,Sternberg_updated,34,23765,35,yes,1024
97,97,680,680,black,no,experiment,Mozilla,Netscape,"5.0 (Windows NT 10.0; Win64; x64) AppleWebKit/537.36 (KHTML, like Gecko) Chrome/94.0.4606.61 Safari/537.36",legacy,legacy,legacy,0,uniform,1,1,left,35,35,35,35,0,0,0,35,35,0,0,0,35,35,35,0,0,35,35,0,29-08-21,29-08-21,11:45:52,Wed Sep 29 2021 11:45:52 GMT+0200 (Central European Summer Time),The main experiment item,yes,0,0,/Users/ethan/Documents/GitHub/OpenSesame/Sternberg/experiment_files,0,0,0,no,mono,no,18,no,white,no,no,768,44,3.6.1,legacy,legacy,1 7 5 2,osweb,1.4.0,1,0,n,36,,0,left,,,space,right,right,left,720,,,16717,19234,17396,720,2,legacy,680,1280,24,720,24,0,0,1280,1632908800806,4,1024,2,48000,-16,experiment,0,even,Win32,3,264793,,,261528,111,262567,90584,111,16842,109448,266809,263577,267542,111,266809,Sternberg_updated,35,24485,36,yes,1024
97,97,677,677,black,no,experiment,Mozilla,Netscape,"5.0 (Windows NT 10.0; Win64; x64) AppleWebKit/537.36 (KHTML, like Gecko) Chrome/94.0.4606.61 Safari/537.36",legacy,legacy,legacy,0,uniform,1,1,right,36,36,36,36,0,0,0,36,36,0,0,0,36,36,36,0,0,36,36,0,29-08-21,29-08-21,11:45:52,Wed Sep 29 2021 11:45:52 GMT+0200 (Central European Summer Time),The main experiment item,yes,0,0,/Users/ethan/Documents/GitHub/OpenSesame/Sternberg/experiment_files,0,0,0,no,mono,no,18,no,white,no,no,768,44,3.6.1,legacy,legacy,8 3,osweb,1.4.0,1,2,y,36,,0,right,,,space,right,right,right,551,,,16717,19234,17396,551,2,legacy,680,1280,24,720,24,0,0,1280,1632908800806,2,1024,2,48000,-16,experiment,0,even,Win32,3,270809,,,267544,111,268586,90584,111,16842,109448,272825,269592,273391,111,272825,Sternberg_updated,36,25036,37,yes,1024
97,97,676,676,black,no,experiment,Mozilla,Netscape,"5.0 (Windows NT 10.0; Win64; x64) AppleWebKit/537.36 (KHTML, like Gecko) Chrome/94.0.4606.61 Safari/537.36",legacy,legacy,legacy,0,uniform,1,1,right,37,37,37,37,0,0,0,37,37,0,0,0,37,37,37,0,0,37,37,0,29-08-21,29-08-21,11:45:52,Wed Sep 29 2021 11:45:52 GMT+0200 (Central European Summer Time),The main experiment item,yes,0,0,/Users/ethan/Documents/GitHub/OpenSesame/Sternberg/experiment_files,0,0,0,no,mono,no,18,no,white,no,no,768,44,3.6.1,legacy,legacy,4 1 5,osweb,1.4.0,1,2,y,36,,0,right,,,space,right,right,right,663,,,16717,19234,17396,663,2,legacy,680,1280,24,720,24,0,0,1280,1632908800806,3,1024,2,48000,-16,experiment,0,even,Win32,1,276658,,,273393,111,274432,90584,111,16842,109448,278675,275442,279341,111,278675,Sternberg_updated,37,25699,38,yes,1024
97,97,677,677,black,no,experiment,Mozilla,Netscape,"5.0 (Windows NT 10.0; Win64; x64) AppleWebKit/537.36 (KHTML, like Gecko) Chrome/94.0.4606.61 Safari/537.36",legacy,legacy,legacy,0,uniform,1,1,right,38,38,38,38,0,0,0,38,38,0,0,0,38,38,38,0,0,38,38,0,29-08-21,29-08-21,11:45:52,Wed Sep 29 2021 11:45:52 GMT+0200 (Central European Summer Time),The main experiment item,yes,0,0,/Users/ethan/Documents/GitHub/OpenSesame/Sternberg/experiment_files,0,0,0,no,mono,no,18,no,white,no,no,768,44,3.6.1,legacy,legacy,2 8 5 1,osweb,1.4.0,1,4,y,36,,0,right,,,space,right,right,right,697,,,16717,19234,17396,697,2,legacy,680,1280,24,720,24,0,0,1280,1632908800806,4,1024,2,48000,-16,experiment,0,even,Win32,1,282607,,,279342,111,280380,90584,111,16842,109448,284624,281391,285323,111,284624,Sternberg_updated,38,26396,39,yes,1024
98,98,674,674,black,no,experiment,Mozilla,Netscape,"5.0 (Windows NT 10.0; Win64; x64) AppleWebKit/537.36 (KHTML, like Gecko) Chrome/94.0.4606.61 Safari/537.36",legacy,legacy,legacy,0,uniform,1,1,right,39,39,39,39,0,0,0,39,39,0,0,0,39,39,39,0,0,39,39,0,29-08-21,29-08-21,11:45:52,Wed Sep 29 2021 11:45:52 GMT+0200 (Central European Summer Time),The main experiment item,yes,0,0,/Users/ethan/Documents/GitHub/OpenSesame/Sternberg/experiment_files,0,0,0,no,mono,no,18,no,white,no,no,768,44,3.6.1,legacy,legacy,4 9 7 8 5 3,osweb,1.4.0,1,4,y,36,,0,right,,,space,right,right,right,545,,,16717,19234,17396,545,2,legacy,680,1280,24,720,24,0,0,1280,1632908800806,6,1024,2,48000,-16,experiment,0,even,Win32,8,288590,,,285326,111,286362,90584,111,16842,109448,290606,287373,291156,111,290606,Sternberg_updated,39,26941,40,yes,1024
98,98,670,670,black,no,experiment,Mozilla,Netscape,"5.0 (Windows NT 10.0; Win64; x64) AppleWebKit/537.36 (KHTML, like Gecko) Chrome/94.0.4606.61 Safari/537.36",legacy,legacy,legacy,0,uniform,1,1,left,40,40,40,40,0,0,0,40,40,0,0,0,40,40,40,0,0,40,40,0,29-08-21,29-08-21,11:45:52,Wed Sep 29 2021 11:45:52 GMT+0200 (Central European Summer Time),The main experiment item,yes,0,0,/Users/ethan/Documents/GitHub/OpenSesame/Sternberg/experiment_files,0,0,0,no,mono,no,18,no,white,no,no,768,44,3.6.1,legacy,legacy,6 8 4,osweb,1.4.0,1,0,n,36,,0,left,,,space,right,right,left,528,,,16717,19234,17396,528,2,legacy,680,1280,24,720,24,0,0,1280,1632908800806,3,1024,2,48000,-16,experiment,0,even,Win32,1,294422,,,291157,111,292195,90584,111,16842,109448,296439,293206,296972,111,296439,Sternberg_updated,40,27469,41,yes,1024
98,98,672,672,black,no,experiment,Mozilla,Netscape,"5.0 (Windows NT 10.0; Win64; x64) AppleWebKit/537.36 (KHTML, like Gecko) Chrome/94.0.4606.61 Safari/537.36",legacy,legacy,legacy,0,uniform,1,1,left,41,41,41,41,0,0,0,41,41,0,0,0,41,41,41,0,0,41,41,0,29-08-21,29-08-21,11:45:52,Wed Sep 29 2021 11:45:52 GMT+0200 (Central European Summer Time),The main experiment item,yes,0,0,/Users/ethan/Documents/GitHub/OpenSesame/Sternberg/experiment_files,0,0,0,no,mono,no,18,no,white,no,no,768,44,3.6.1,legacy,legacy,2 6 4 3 9,osweb,1.4.0,1,0,n,36,,0,left,,,space,right,right,left,751,,,16717,19234,17396,751,2,legacy,680,1280,24,720,24,0,0,1280,1632908800806,5,1024,2,48000,-16,experiment,0,even,Win32,1,300238,,,296973,111,298015,90584,111,16842,109448,302255,299022,303021,111,302255,Sternberg_updated,41,28220,42,yes,1024
98,98,670,670,black,no,experiment,Mozilla,Netscape,"5.0 (Windows NT 10.0; Win64; x64) AppleWebKit/537.36 (KHTML, like Gecko) Chrome/94.0.4606.61 Safari/537.36",legacy,legacy,legacy,0,uniform,1,1,right,42,42,42,42,0,0,0,42,42,0,0,0,42,42,42,0,0,42,42,0,29-08-21,29-08-21,11:45:52,Wed Sep 29 2021 11:45:52 GMT+0200 (Central European Summer Time),The main experiment item,yes,0,0,/Users/ethan/Documents/GitHub/OpenSesame/Sternberg/experiment_files,0,0,0,no,mono,no,18,no,white,no,no,768,44,3.6.1,legacy,legacy,4 7 6 8 2 3,osweb,1.4.0,1,6,y,36,,0,right,,,space,right,right,right,575,,,16717,19234,17396,575,2,legacy,680,1280,24,720,24,0,0,1280,1632908800806,6,1024,2,48000,-16,experiment,0,even,Win32,3,306304,,,303022,111,304077,90584,111,16842,109448,308321,305088,308904,111,308321,Sternberg_updated,42,28795,43,yes,1024
98,98,666,666,black,no,experiment,Mozilla,Netscape,"5.0 (Windows NT 10.0; Win64; x64) AppleWebKit/537.36 (KHTML, like Gecko) Chrome/94.0.4606.61 Safari/537.36",legacy,legacy,legacy,0,uniform,1,1,right,43,43,43,43,0,0,0,43,43,0,0,0,43,43,43,0,0,43,43,0,29-08-21,29-08-21,11:45:52,Wed Sep 29 2021 11:45:52 GMT+0200 (Central European Summer Time),The main experiment item,yes,0,0,/Users/ethan/Documents/GitHub/OpenSesame/Sternberg/experiment_files,0,0,0,no,mono,no,18,no,white,no,no,768,44,3.6.1,legacy,legacy,9 5 8 1,osweb,1.4.0,1,2,y,36,,0,right,,,space,right,right,right,505,,,16717,19234,17396,505,2,legacy,680,1280,24,720,24,0,0,1280,1632908800806,4,1024,2,48000,-16,experiment,0,even,Win32,5,312170,,,308905,111,309944,90584,111,16842,109448,314187,310954,314703,111,314187,Sternberg_updated,43,29300,44,yes,1024
98,98,661,661,black,no,experiment,Mozilla,Netscape,"5.0 (Windows NT 10.0; Win64; x64) AppleWebKit/537.36 (KHTML, like Gecko) Chrome/94.0.4606.61 Safari/537.36",legacy,legacy,legacy,0,uniform,1,1,left,44,44,44,44,0,0,0,44,44,0,0,0,44,44,44,0,0,44,44,0,29-08-21,29-08-21,11:45:52,Wed Sep 29 2021 11:45:52 GMT+0200 (Central European Summer Time),The main experiment item,yes,0,0,/Users/ethan/Documents/GitHub/OpenSesame/Sternberg/experiment_files,0,0,0,no,mono,no,18,no,white,no,no,768,44,3.6.1,legacy,legacy,5,osweb,1.4.0,1,0,n,36,,0,left,,,space,right,right,left,441,,,16717,19234,17396,441,2,legacy,680,1280,24,720,24,0,0,1280,1632908800806,1,1024,2,48000,-16,experiment,0,even,Win32,8,317969,,,314704,111,315742,90584,111,16842,109448,319986,316753,320436,111,319986,Sternberg_updated,44,29741,45,yes,1024
98,98,659,659,black,no,experiment,Mozilla,Netscape,"5.0 (Windows NT 10.0; Win64; x64) AppleWebKit/537.36 (KHTML, like Gecko) Chrome/94.0.4606.61 Safari/537.36",legacy,legacy,legacy,0,uniform,1,1,left,45,45,45,45,0,0,0,45,45,0,0,0,45,45,45,0,0,45,45,0,29-08-21,29-08-21,11:45:52,Wed Sep 29 2021 11:45:52 GMT+0200 (Central European Summer Time),The main experiment item,yes,0,0,/Users/ethan/Documents/GitHub/OpenSesame/Sternberg/experiment_files,0,0,0,no,mono,no,18,no,white,no,no,768,44,3.6.1,legacy,legacy,7 1,osweb,1.4.0,1,0,n,36,,0,left,,,space,right,right,left,562,,,16717,19234,17396,562,2,legacy,680,1280,24,720,24,0,0,1280,1632908800806,2,1024,2,48000,-16,experiment,0,even,Win32,8,323702,,,320437,111,321476,90584,111,16842,109448,325719,322486,326285,111,325719,Sternberg_updated,45,30303,46,yes,1024
96,96,658,658,black,no,experiment,Mozilla,Netscape,"5.0 (Windows NT 10.0; Win64; x64) AppleWebKit/537.36 (KHTML, like Gecko) Chrome/94.0.4606.61 Safari/537.36",legacy,legacy,legacy,0,uniform,0,0,right,46,46,46,46,0,0,0,46,46,0,0,0,46,46,46,0,0,46,46,0,29-08-21,29-08-21,11:45:52,Wed Sep 29 2021 11:45:52 GMT+0200 (Central European Summer Time),The main experiment item,yes,0,0,/Users/ethan/Documents/GitHub/OpenSesame/Sternberg/experiment_files,0,0,0,no,mono,no,18,no,white,no,no,768,44,3.6.1,legacy,legacy,7 2 3,osweb,1.4.0,1,3,y,36,,0,left,,,space,right,right,left,640,,,16717,19234,17396,640,2,legacy,680,1280,24,720,24,0,0,1280,1632908800806,3,1024,2,48000,-16,experiment,0,even,Win32,3,329551,,,326286,111,327324,90584,111,16842,109448,331568,328335,332217,111,331568,Sternberg_updated,45,30943,47,yes,1024
96,96,656,656,black,no,experiment,Mozilla,Netscape,"5.0 (Windows NT 10.0; Win64; x64) AppleWebKit/537.36 (KHTML, like Gecko) Chrome/94.0.4606.61 Safari/537.36",legacy,legacy,legacy,0,uniform,1,1,right,47,47,47,47,0,0,0,47,47,0,0,0,47,47,47,0,0,47,47,0,29-08-21,29-08-21,11:45:52,Wed Sep 29 2021 11:45:52 GMT+0200 (Central European Summer Time),The main experiment item,yes,0,0,/Users/ethan/Documents/GitHub/OpenSesame/Sternberg/experiment_files,0,0,0,no,mono,no,18,no,white,no,no,768,44,3.6.1,legacy,legacy,2 3 7 4,osweb,1.4.0,1,1,y,36,,0,right,,,space,right,right,right,557,,,16717,19234,17396,557,2,legacy,680,1280,24,720,24,0,0,1280,1632908800806,4,1024,2,48000,-16,experiment,0,even,Win32,2,335484,,,326286,111,333266,332219,111,16842,109448,337501,334268,338067,111,337501,Sternberg_updated,46,31500,48,yes,1024
96,96,654,654,black,no,experiment,Mozilla,Netscape,"5.0 (Windows NT 10.0; Win64; x64) AppleWebKit/537.36 (KHTML, like Gecko) Chrome/94.0.4606.61 Safari/537.36",legacy,legacy,legacy,0,uniform,1,1,left,48,48,48,48,0,0,0,48,48,0,0,0,48,48,48,0,0,48,48,0,29-08-21,29-08-21,11:45:52,Wed Sep 29 2021 11:45:52 GMT+0200 (Central European Summer Time),The main experiment item,yes,0,0,/Users/ethan/Documents/GitHub/OpenSesame/Sternberg/experiment_files,0,0,0,no,mono,no,18,no,white,no,no,768,44,3.6.1,legacy,legacy,8 6 3 4 7,osweb,1.4.0,1,0,n,36,,0,left,,,space,right,right,left,524,,,16717,19234,17396,524,2,legacy,680,1280,24,720,24,0,0,1280,1632908800806,5,1024,2,48000,-16,experiment,0,even,Win32,1,341333,,,338068,111,339107,332219,111,16842,109448,343350,340117,343882,111,343350,Sternberg_updated,47,32024,49,yes,1024
96,96,650,650,black,no,experiment,Mozilla,Netscape,"5.0 (Windows NT 10.0; Win64; x64) AppleWebKit/537.36 (KHTML, like Gecko) Chrome/94.0.4606.61 Safari/537.36",legacy,legacy,legacy,0,uniform,1,1,left,49,49,49,49,0,0,0,49,49,0,0,0,49,49,49,0,0,49,49,0,29-08-21,29-08-21,11:45:52,Wed Sep 29 2021 11:45:52 GMT+0200 (Central European Summer Time),The main experiment item,yes,0,0,/Users/ethan/Documents/GitHub/OpenSesame/Sternberg/experiment_files,0,0,0,no,mono,no,18,no,white,no,no,768,44,3.6.1,legacy,legacy,1 8 7,osweb,1.4.0,1,0,n,36,,0,left,,,space,right,right,left,459,,,16717,19234,17396,459,2,legacy,680,1280,24,720,24,0,0,1280,1632908800806,3,1024,2,48000,-16,experiment,0,even,Win32,4,347149,,,343884,111,344928,332219,111,16842,109448,349166,345933,349632,111,349165,Sternberg_updated,48,32483,50,yes,1024
96,96,651,651,black,no,experiment,Mozilla,Netscape,"5.0 (Windows NT 10.0; Win64; x64) AppleWebKit/537.36 (KHTML, like Gecko) Chrome/94.0.4606.61 Safari/537.36",legacy,legacy,legacy,0,uniform,1,1,right,50,50,50,50,0,0,0,50,50,0,0,0,50,50,50,0,0,50,50,0,29-08-21,29-08-21,11:45:52,Wed Sep 29 2021 11:45:52 GMT+0200 (Central European Summer Time),The main experiment item,yes,0,0,/Users/ethan/Documents/GitHub/OpenSesame/Sternberg/experiment_files,0,0,0,no,mono,no,18,no,white,no,no,768,44,3.6.1,legacy,legacy,9 6 2 4 1,osweb,1.4.0,1,4,y,36,,0,right,,,space,right,right,right,738,,,16717,19234,17396,738,2,legacy,680,1280,24,720,24,0,0,1280,1632908800806,5,1024,2,48000,-16,experiment,0,even,Win32,4,352898,,,349633,111,350671,332219,111,16842,109448,354915,351682,355664,111,354915,Sternberg_updated,49,33221,51,yes,1024
96,96,649,649,black,no,experiment,Mozilla,Netscape,"5.0 (Windows NT 10.0; Win64; x64) AppleWebKit/537.36 (KHTML, like Gecko) Chrome/94.0.4606.61 Safari/537.36",legacy,legacy,legacy,0,uniform,1,1,left,51,51,51,51,0,0,0,51,51,0,0,0,51,51,51,0,0,51,51,0,29-08-21,29-08-21,11:45:52,Wed Sep 29 2021 11:45:52 GMT+0200 (Central European Summer Time),The main experiment item,yes,0,0,/Users/ethan/Documents/GitHub/OpenSesame/Sternberg/experiment_files,0,0,0,no,mono,no,18,no,white,no,no,768,44,3.6.1,legacy,legacy,1 4 9 3,osweb,1.4.0,1,0,n,36,,0,left,,,space,right,right,left,537,,,16717,19234,17396,537,2,legacy,680,1280,24,720,24,0,0,1280,1632908800806,4,1024,2,48000,-16,experiment,0,even,Win32,5,358931,,,355666,111,356703,332219,111,16842,109448,360948,357715,361497,111,360948,Sternberg_updated,50,33758,52,yes,1024
96,96,651,651,black,no,experiment,Mozilla,Netscape,"5.0 (Windows NT 10.0; Win64; x64) AppleWebKit/537.36 (KHTML, like Gecko) Chrome/94.0.4606.61 Safari/537.36",legacy,legacy,legacy,0,uniform,1,1,right,52,52,52,52,0,0,0,52,52,0,0,0,52,52,52,0,0,52,52,0,29-08-21,29-08-21,11:45:52,Wed Sep 29 2021 11:45:52 GMT+0200 (Central European Summer Time),The main experiment item,yes,0,0,/Users/ethan/Documents/GitHub/OpenSesame/Sternberg/experiment_files,0,0,0,no,mono,no,18,no,white,no,no,768,44,3.6.1,legacy,legacy,7 8 6 3 1,osweb,1.4.0,1,5,y,36,,0,right,,,space,right,right,right,753,,,16717,19234,17396,753,2,legacy,680,1280,24,720,24,0,0,1280,1632908800806,5,1024,2,48000,-16,experiment,0,even,Win32,1,364763,,,361504,111,362538,332219,111,16842,109448,366780,363547,367546,111,366780,Sternberg_updated,51,34511,53,yes,1024
96,96,648,648,black,no,experiment,Mozilla,Netscape,"5.0 (Windows NT 10.0; Win64; x64) AppleWebKit/537.36 (KHTML, like Gecko) Chrome/94.0.4606.61 Safari/537.36",legacy,legacy,legacy,0,uniform,1,1,left,53,53,53,53,0,0,0,53,53,0,0,0,53,53,53,0,0,53,53,0,29-08-21,29-08-21,11:45:52,Wed Sep 29 2021 11:45:52 GMT+0200 (Central European Summer Time),The main experiment item,yes,0,0,/Users/ethan/Documents/GitHub/OpenSesame/Sternberg/experiment_files,0,0,0,no,mono,no,18,no,white,no,no,768,44,3.6.1,legacy,legacy,3 4 2,osweb,1.4.0,1,0,n,36,,0,left,,,space,right,right,left,501,,,16717,19234,17396,501,2,legacy,680,1280,24,720,24,0,0,1280,1632908800806,3,1024,2,48000,-16,experiment,0,even,Win32,5,370813,,,367549,111,368588,332219,111,16842,109448,372829,369596,373346,111,372829,Sternberg_updated,52,35012,54,yes,1024
96,96,648,648,black,no,experiment,Mozilla,Netscape,"5.0 (Windows NT 10.0; Win64; x64) AppleWebKit/537.36 (KHTML, like Gecko) Chrome/94.0.4606.61 Safari/537.36",legacy,legacy,legacy,0,uniform,1,1,right,54,54,54,54,0,0,0,54,54,0,0,0,54,54,54,0,0,54,54,0,29-08-21,29-08-21,11:45:52,Wed Sep 29 2021 11:45:52 GMT+0200 (Central European Summer Time),The main experiment item,yes,0,0,/Users/ethan/Documents/GitHub/OpenSesame/Sternberg/experiment_files,0,0,0,no,mono,no,18,no,white,no,no,768,44,3.6.1,legacy,legacy,9 4 2,osweb,1.4.0,1,1,y,36,,0,right,,,space,right,right,right,616,,,16717,19234,17396,616,2,legacy,680,1280,24,720,24,0,0,1280,1632908800806,3,1024,2,48000,-16,experiment,0,even,Win32,9,376612,,,373350,111,374386,332219,111,16842,109448,378629,375396,379261,111,378629,Sternberg_updated,53,35628,55,yes,1024
96,96,646,646,black,no,experiment,Mozilla,Netscape,"5.0 (Windows NT 10.0; Win64; x64) AppleWebKit/537.36 (KHTML, like Gecko) Chrome/94.0.4606.61 Safari/537.36",legacy,legacy,legacy,0,uniform,1,1,left,55,55,55,55,0,0,0,55,55,0,0,0,55,55,55,0,0,55,55,0,29-08-21,29-08-21,11:45:52,Wed Sep 29 2021 11:45:52 GMT+0200 (Central European Summer Time),The main experiment item,yes,0,0,/Users/ethan/Documents/GitHub/OpenSesame/Sternberg/experiment_files,0,0,0,no,mono,no,18,no,white,no,no,768,44,3.6.1,legacy,legacy,1 4 3 6 5,osweb,1.4.0,1,0,n,36,,0,left,right,,space,right,right,left,560,15231,,16717,19234,17396,560,2,legacy,680,1280,24,720,24,0,0,1280,1632908800806,5,1024,2,48000,-16,experiment,0,even,Win32,8,397776,380279,,379263,111,395553,332219,111,16842,109448,399793,396560,400359,111,399793,Sternberg_updated,54,36188,56,yes,1024
96,96,643,643,black,no,experiment,Mozilla,Netscape,"5.0 (Windows NT 10.0; Win64; x64) AppleWebKit/537.36 (KHTML, like Gecko) Chrome/94.0.4606.61 Safari/537.36",legacy,legacy,legacy,0,uniform,1,1,left,56,56,56,56,0,0,0,56,56,0,0,0,56,56,56,0,0,56,56,0,29-08-21,29-08-21,11:45:52,Wed Sep 29 2021 11:45:52 GMT+0200 (Central European Summer Time),The main experiment item,yes,0,0,/Users/ethan/Documents/GitHub/OpenSesame/Sternberg/experiment_files,0,0,0,no,mono,no,18,no,white,no,no,768,44,3.6.1,legacy,legacy,1 7 5 2 9,osweb,1.4.0,1,0,n,36,,0,left,right,,space,right,right,left,478,15231,,16717,19234,17396,478,2,legacy,680,1280,24,720,24,0,0,1280,1632908800806,5,1024,2,48000,-16,experiment,0,even,Win32,3,403625,380279,,400360,111,401398,332219,111,16842,109448,405642,402409,406125,111,405642,Sternberg_updated,55,36666,57,yes,1024
97,97,641,641,black,no,experiment,Mozilla,Netscape,"5.0 (Windows NT 10.0; Win64; x64) AppleWebKit/537.36 (KHTML, like Gecko) Chrome/94.0.4606.61 Safari/537.36",legacy,legacy,legacy,0,uniform,1,1,left,57,57,57,57,0,0,0,57,57,0,0,0,57,57,57,0,0,57,57,0,29-08-21,29-08-21,11:45:52,Wed Sep 29 2021 11:45:52 GMT+0200 (Central European Summer Time),The main experiment item,yes,0,0,/Users/ethan/Documents/GitHub/OpenSesame/Sternberg/experiment_files,0,0,0,no,mono,no,18,no,white,no,no,768,44,3.6.1,legacy,legacy,7 9,osweb,1.4.0,1,0,n,36,,0,left,right,,space,right,right,left,528,15231,,16717,19234,17396,528,2,legacy,680,1280,24,720,24,0,0,1280,1632908800806,2,1024,2,48000,-16,experiment,0,even,Win32,1,409391,380279,,406126,111,407164,332219,111,16842,109448,411408,408175,411941,111,411408,Sternberg_updated,56,37194,58,yes,1024
97,97,643,643,black,no,experiment,Mozilla,Netscape,"5.0 (Windows NT 10.0; Win64; x64) AppleWebKit/537.36 (KHTML, like Gecko) Chrome/94.0.4606.61 Safari/537.36",legacy,legacy,legacy,0,uniform,1,1,right,58,58,58,58,0,0,0,58,58,0,0,0,58,58,58,0,0,58,58,0,29-08-21,29-08-21,11:45:52,Wed Sep 29 2021 11:45:52 GMT+0200 (Central European Summer Time),The main experiment item,yes,0,0,/Users/ethan/Documents/GitHub/OpenSesame/Sternberg/experiment_files,0,0,0,no,mono,no,18,no,white,no,no,768,44,3.6.1,legacy,legacy,1 4 9 3 2 5,osweb,1.4.0,1,3,y,36,,0,right,right,,space,right,right,right,766,15231,,16717,19234,17396,766,2,legacy,680,1280,24,720,24,0,0,1280,1632908800806,6,1024,2,48000,-16,experiment,0,even,Win32,9,415207,380279,,411942,111,412982,332219,111,16842,109448,417224,413991,417990,111,417224,Sternberg_updated,57,37960,59,yes,1024
97,97,641,641,black,no,experiment,Mozilla,Netscape,"5.0 (Windows NT 10.0; Win64; x64) AppleWebKit/537.36 (KHTML, like Gecko) Chrome/94.0.4606.61 Safari/537.36",legacy,legacy,legacy,0,uniform,1,1,left,59,59,59,59,0,0,0,59,59,0,0,0,59,59,59,0,0,59,59,0,29-08-21,29-08-21,11:45:52,Wed Sep 29 2021 11:45:52 GMT+0200 (Central European Summer Time),The main experiment item,yes,0,0,/Users/ethan/Documents/GitHub/OpenSesame/Sternberg/experiment_files,0,0,0,no,mono,no,18,no,white,no,no,768,44,3.6.1,legacy,legacy,1 7 8 3 9,osweb,1.4.0,1,0,n,36,,0,left,right,,space,right,right,left,508,15231,,16717,19234,17396,508,2,legacy,680,1280,24,720,24,0,0,1280,1632908800806,5,1024,2,48000,-16,experiment,0,even,Win32,2,421256,380279,,417991,111,419030,332219,111,16842,109448,423273,420040,423789,111,423273,Sternberg_updated,58,38468,60,yes,1024
97,97,641,641,black,no,experiment,Mozilla,Netscape,"5.0 (Windows NT 10.0; Win64; x64) AppleWebKit/537.36 (KHTML, like Gecko) Chrome/94.0.4606.61 Safari/537.36",legacy,legacy,legacy,0,uniform,1,1,left,60,60,60,60,0,0,0,60,60,0,0,0,60,60,60,0,0,60,60,0,29-08-21,29-08-21,11:45:52,Wed Sep 29 2021 11:45:52 GMT+0200 (Central European Summer Time),The main experiment item,yes,0,0,/Users/ethan/Documents/GitHub/OpenSesame/Sternberg/experiment_files,0,0,0,no,mono,no,18,no,white,no,no,768,44,3.6.1,legacy,legacy,5 2,osweb,1.4.0,1,0,n,36,,0,left,right,,space,right,right,left,639,15231,,16717,19234,17396,639,2,legacy,680,1280,24,720,24,0,0,1280,1632908800806,2,1024,2,48000,-16,experiment,0,even,Win32,7,427056,380279,,423790,111,424829,332219,111,16842,109448,429072,425839,429721,111,429072,Sternberg_updated,59,39107,61,yes,1024
97,97,638,638,black,no,experiment,Mozilla,Netscape,"5.0 (Windows NT 10.0; Win64; x64) AppleWebKit/537.36 (KHTML, like Gecko) Chrome/94.0.4606.61 Safari/537.36",legacy,legacy,legacy,0,uniform,1,1,left,61,61,61,61,0,0,0,61,61,0,0,0,61,61,61,0,0,61,61,0,29-08-21,29-08-21,11:45:52,Wed Sep 29 2021 11:45:52 GMT+0200 (Central European Summer Time),The main experiment item,yes,0,0,/Users/ethan/Documents/GitHub/OpenSesame/Sternberg/experiment_files,0,0,0,no,mono,no,18,no,white,no,no,768,44,3.6.1,legacy,legacy,1,osweb,1.4.0,1,0,n,36,,0,left,right,,space,right,right,left,464,15231,,16717,19234,17396,464,2,legacy,680,1280,24,720,24,0,0,1280,1632908800806,1,1024,2,48000,-16,experiment,0,even,Win32,7,432988,380279,,429723,111,430763,332219,111,16842,109448,435005,431772,435471,111,435005,Sternberg_updated,60,39571,62,yes,1024
95,95,639,639,black,no,experiment,Mozilla,Netscape,"5.0 (Windows NT 10.0; Win64; x64) AppleWebKit/537.36 (KHTML, like Gecko) Chrome/94.0.4606.61 Safari/537.36",legacy,legacy,legacy,0,uniform,0,0,right,62,62,62,62,0,0,0,62,62,0,0,0,62,62,62,0,0,62,62,0,29-08-21,29-08-21,11:45:52,Wed Sep 29 2021 11:45:52 GMT+0200 (Central European Summer Time),The main experiment item,yes,0,0,/Users/ethan/Documents/GitHub/OpenSesame/Sternberg/experiment_files,0,0,0,no,mono,no,18,no,white,no,no,768,44,3.6.1,legacy,legacy,3 2 1 4 7,osweb,1.4.0,1,2,y,36,,0,left,right,,space,right,right,left,677,15231,,16717,19234,17396,677,2,legacy,680,1280,24,720,24,0,0,1280,1632908800806,5,1024,2,48000,-16,experiment,0,even,Win32,2,438738,380279,,435472,111,436511,332219,111,16842,109448,440754,437521,441437,111,440754,Sternberg_updated,60,40248,63,yes,1024
95,95,637,637,black,no,experiment,Mozilla,Netscape,"5.0 (Windows NT 10.0; Win64; x64) AppleWebKit/537.36 (KHTML, like Gecko) Chrome/94.0.4606.61 Safari/537.36",legacy,legacy,legacy,0,uniform,1,1,left,63,63,63,63,0,0,0,63,63,0,0,0,63,63,63,0,0,63,63,0,29-08-21,29-08-21,11:45:52,Wed Sep 29 2021 11:45:52 GMT+0200 (Central European Summer Time),The main experiment item,yes,0,0,/Users/ethan/Documents/GitHub/OpenSesame/Sternberg/experiment_files,0,0,0,no,mono,no,18,no,white,no,no,768,44,3.6.1,legacy,legacy,5 7 3,osweb,1.4.0,1,0,n,36,,0,left,right,,space,right,right,left,539,15231,,16717,19234,17396,539,2,legacy,680,1280,24,720,24,0,0,1280,1632908800806,3,1024,2,48000,-16,experiment,0,even,Win32,9,444703,380279,,435472,111,442482,441438,111,16842,109448,446720,443487,447269,111,446720,Sternberg_updated,61,40787,64,yes,1024
95,95,637,637,black,no,experiment,Mozilla,Netscape,"5.0 (Windows NT 10.0; Win64; x64) AppleWebKit/537.36 (KHTML, like Gecko) Chrome/94.0.4606.61 Safari/537.36",legacy,legacy,legacy,0,uniform,1,1,left,64,64,64,64,0,0,0,64,64,0,0,0,64,64,64,0,0,64,64,0,29-08-21,29-08-21,11:45:52,Wed Sep 29 2021 11:45:52 GMT+0200 (Central European Summer Time),The main experiment item,yes,0,0,/Users/ethan/Documents/GitHub/OpenSesame/Sternberg/experiment_files,0,0,0,no,mono,no,18,no,white,no,no,768,44,3.6.1,legacy,legacy,1 6 4,osweb,1.4.0,1,0,n,36,,0,left,right,,space,right,right,left,639,15231,,16717,19234,17396,639,2,legacy,680,1280,24,720,24,0,0,1280,1632908800806,3,1024,2,48000,-16,experiment,0,even,Win32,7,450536,380279,,447270,111,448309,441438,111,16842,109448,452553,449320,453202,111,452553,Sternberg_updated,62,41426,65,yes,1024
95,95,635,635,black,no,experiment,Mozilla,Netscape,"5.0 (Windows NT 10.0; Win64; x64) AppleWebKit/537.36 (KHTML, like Gecko) Chrome/94.0.4606.61 Safari/537.36",legacy,legacy,legacy,0,uniform,1,1,right,65,65,65,65,0,0,0,65,65,0,0,0,65,65,65,0,0,65,65,0,29-08-21,29-08-21,11:45:52,Wed Sep 29 2021 11:45:52 GMT+0200 (Central European Summer Time),The main experiment item,yes,0,0,/Users/ethan/Documents/GitHub/OpenSesame/Sternberg/experiment_files,0,0,0,no,mono,no,18,no,white,no,no,768,44,3.6.1,legacy,legacy,8 5 3 7 4 6,osweb,1.4.0,1,6,y,36,,0,right,right,,space,right,right,right,498,15231,,16717,19234,17396,498,2,legacy,680,1280,24,720,24,0,0,1280,1632908800806,6,1024,2,48000,-16,experiment,0,even,Win32,6,456469,380279,,453203,111,454243,441438,111,16842,109448,458485,455252,458984,111,458485,Sternberg_updated,63,41924,66,yes,1024
96,96,631,631,black,no,experiment,Mozilla,Netscape,"5.0 (Windows NT 10.0; Win64; x64) AppleWebKit/537.36 (KHTML, like Gecko) Chrome/94.0.4606.61 Safari/537.36",legacy,legacy,legacy,0,uniform,1,1,right,66,66,66,66,0,0,0,66,66,0,0,0,66,66,66,0,0,66,66,0,29-08-21,29-08-21,11:45:52,Wed Sep 29 2021 11:45:52 GMT+0200 (Central European Summer Time),The main experiment item,yes,0,0,/Users/ethan/Documents/GitHub/OpenSesame/Sternberg/experiment_files,0,0,0,no,mono,no,18,no,white,no,no,768,44,3.6.1,legacy,legacy,8,osweb,1.4.0,1,1,y,36,,0,right,right,,space,right,right,right,360,15231,,16717,19234,17396,360,2,legacy,680,1280,24,720,24,0,0,1280,1632908800806,1,1024,2,48000,-16,experiment,0,even,Win32,8,462251,380279,,458986,111,460026,441438,111,16842,109448,464268,461035,464634,111,464268,Sternberg_updated,64,42284,67,yes,1024
96,96,633,633,black,no,experiment,Mozilla,Netscape,"5.0 (Windows NT 10.0; Win64; x64) AppleWebKit/537.36 (KHTML, like Gecko) Chrome/94.0.4606.61 Safari/537.36",legacy,legacy,legacy,0,uniform,1,1,left,67,67,67,67,0,0,0,67,67,0,0,0,67,67,67,0,0,67,67,0,29-08-21,29-08-21,11:45:52,Wed Sep 29 2021 11:45:52 GMT+0200 (Central European Summer Time),The main experiment item,yes,0,0,/Users/ethan/Documents/GitHub/OpenSesame/Sternberg/experiment_files,0,0,0,no,mono,no,18,no,white,no,no,768,44,3.6.1,legacy,legacy,5 3 2 6 9 8,osweb,1.4.0,1,0,n,36,,0,left,right,,space,right,right,left,753,15231,,16717,19234,17396,753,2,legacy,680,1280,24,720,24,0,0,1280,1632908800806,6,1024,2,48000,-16,experiment,0,even,Win32,4,467901,380279,,464635,111,465674,441438,111,16842,109448,469917,466684,470683,111,469917,Sternberg_updated,65,43037,68,yes,1024
96,96,630,630,black,no,experiment,Mozilla,Netscape,"5.0 (Windows NT 10.0; Win64; x64) AppleWebKit/537.36 (KHTML, like Gecko) Chrome/94.0.4606.61 Safari/537.36",legacy,legacy,legacy,0,uniform,1,1,right,68,68,68,68,0,0,0,68,68,0,0,0,68,68,68,0,0,68,68,0,29-08-21,29-08-21,11:45:52,Wed Sep 29 2021 11:45:52 GMT+0200 (Central European Summer Time),The main experiment item,yes,0,0,/Users/ethan/Documents/GitHub/OpenSesame/Sternberg/experiment_files,0,0,0,no,mono,no,18,no,white,no,no,768,44,3.6.1,legacy,legacy,5 2 9 6 1 7,osweb,1.4.0,1,3,y,36,,0,right,right,,space,right,right,right,467,15231,,16717,19234,17396,467,2,legacy,680,1280,24,720,24,0,0,1280,1632908800806,6,1024,2,48000,-16,experiment,0,even,Win32,9,473950,380279,,470684,111,471724,441438,111,16842,109448,475966,472733,476449,111,475966,Sternberg_updated,66,43504,69,yes,1024
96,96,629,629,black,no,experiment,Mozilla,Netscape,"5.0 (Windows NT 10.0; Win64; x64) AppleWebKit/537.36 (KHTML, like Gecko) Chrome/94.0.4606.61 Safari/537.36",legacy,legacy,legacy,0,uniform,1,1,right,69,69,69,69,0,0,0,69,69,0,0,0,69,69,69,0,0,69,69,0,29-08-21,29-08-21,11:45:52,Wed Sep 29 2021 11:45:52 GMT+0200 (Central European Summer Time),The main experiment item,yes,0,0,/Users/ethan/Documents/GitHub/OpenSesame/Sternberg/experiment_files,0,0,0,no,mono,no,18,no,white,no,no,768,44,3.6.1,legacy,legacy,9 8 4,osweb,1.4.0,1,1,y,36,,0,right,right,,space,right,right,right,556,15231,,16717,19234,17396,556,2,legacy,680,1280,24,720,24,0,0,1280,1632908800806,3,1024,2,48000,-16,experiment,0,even,Win32,9,479715,380279,,476450,111,477492,441438,111,16842,109448,481732,478499,482298,111,481732,Sternberg_updated,67,44060,70,yes,1024
96,96,628,628,black,no,experiment,Mozilla,Netscape,"5.0 (Windows NT 10.0; Win64; x64) AppleWebKit/537.36 (KHTML, like Gecko) Chrome/94.0.4606.61 Safari/537.36",legacy,legacy,legacy,0,uniform,1,1,right,70,70,70,70,0,0,0,70,70,0,0,0,70,70,70,0,0,70,70,0,29-08-21,29-08-21,11:45:52,Wed Sep 29 2021 11:45:52 GMT+0200 (Central European Summer Time),The main experiment item,yes,0,0,/Users/ethan/Documents/GitHub/OpenSesame/Sternberg/experiment_files,0,0,0,no,mono,no,18,no,white,no,no,768,44,3.6.1,legacy,legacy,7,osweb,1.4.0,1,1,y,36,,0,right,right,,space,right,right,right,497,15231,,16717,19234,17396,497,2,legacy,680,1280,24,720,24,0,0,1280,1632908800806,1,1024,2,48000,-16,experiment,0,even,Win32,7,485565,380279,,482300,111,483337,441438,111,16842,109448,487581,484348,488081,111,487581,Sternberg_updated,68,44557,71,yes,1024
94,94,629,629,black,no,experiment,Mozilla,Netscape,"5.0 (Windows NT 10.0; Win64; x64) AppleWebKit/537.36 (KHTML, like Gecko) Chrome/94.0.4606.61 Safari/537.36",legacy,legacy,legacy,0,uniform,0,0,right,71,71,71,71,0,0,0,71,71,0,0,0,71,71,71,0,0,71,71,0,29-08-21,29-08-21,11:45:52,Wed Sep 29 2021 11:45:52 GMT+0200 (Central European Summer Time),The main experiment item,yes,0,0,/Users/ethan/Documents/GitHub/OpenSesame/Sternberg/experiment_files,0,0,0,no,mono,no,18,no,white,no,no,768,44,3.6.1,legacy,legacy,8 5 4 7 3 1,osweb,1.4.0,1,2,y,36,,0,left,right,,space,right,right,left,752,15231,,16717,19234,17396,752,2,legacy,680,1280,24,720,24,0,0,1280,1632908800806,6,1024,2,48000,-16,experiment,0,even,Win32,5,491347,380279,,488082,111,489123,441438,111,16842,109448,493364,490131,494130,111,493364,Sternberg_updated,68,45309,72,yes,1024
95,95,629,629,black,no,experiment,Mozilla,Netscape,"5.0 (Windows NT 10.0; Win64; x64) AppleWebKit/537.36 (KHTML, like Gecko) Chrome/94.0.4606.61 Safari/537.36",legacy,legacy,legacy,0,uniform,1,1,left,72,72,72,72,0,0,0,72,72,0,0,0,72,72,72,0,0,72,72,0,29-08-21,29-08-21,11:45:52,Wed Sep 29 2021 11:45:52 GMT+0200 (Central European Summer Time),The main experiment item,yes,0,0,/Users/ethan/Documents/GitHub/OpenSesame/Sternberg/experiment_files,0,0,0,no,mono,no,18,no,white,no,no,768,44,3.6.1,legacy,legacy,9,osweb,1.4.0,1,0,n,36,,0,left,right,,space,right,right,left,600,15231,,16717,19234,17396,600,2,legacy,680,1280,24,720,24,0,0,1280,1632908800806,1,1024,2,48000,-16,experiment,0,even,Win32,6,497397,380279,,488082,111,495170,494131,111,16842,109448,499413,496180,500029,111,499413,Sternberg_updated,69,45909,73,yes,1024
95,95,628,628,black,no,experiment,Mozilla,Netscape,"5.0 (Windows NT 10.0; Win64; x64) AppleWebKit/537.36 (KHTML, like Gecko) Chrome/94.0.4606.61 Safari/537.36",legacy,legacy,legacy,0,uniform,1,1,right,73,73,73,73,0,0,0,73,73,0,0,0,73,73,73,0,0,73,73,0,29-08-21,29-08-21,11:45:52,Wed Sep 29 2021 11:45:52 GMT+0200 (Central European Summer Time),The main experiment item,yes,0,0,/Users/ethan/Documents/GitHub/OpenSesame/Sternberg/experiment_files,0,0,0,no,mono,no,18,no,white,no,no,768,44,3.6.1,legacy,legacy,2 4 6 9,osweb,1.4.0,1,3,y,36,,0,right,right,,space,right,right,right,562,15231,,16717,19234,17396,562,2,legacy,680,1280,24,720,24,0,0,1280,1632908800806,4,1024,2,48000,-16,experiment,0,even,Win32,6,503296,380279,,500030,111,501070,494131,111,16842,109448,505313,502079,505879,111,505313,Sternberg_updated,70,46471,74,yes,1024
95,95,629,629,black,no,experiment,Mozilla,Netscape,"5.0 (Windows NT 10.0; Win64; x64) AppleWebKit/537.36 (KHTML, like Gecko) Chrome/94.0.4606.61 Safari/537.36",legacy,legacy,legacy,0,uniform,1,1,right,74,74,74,74,0,0,0,74,74,0,0,0,74,74,74,0,0,74,74,0,29-08-21,29-08-21,11:45:52,Wed Sep 29 2021 11:45:52 GMT+0200 (Central European Summer Time),The main experiment item,yes,0,0,/Users/ethan/Documents/GitHub/OpenSesame/Sternberg/experiment_files,0,0,0,no,mono,no,18,no,white,no,no,768,44,3.6.1,legacy,legacy,3 5 9 6 2 4,osweb,1.4.0,1,1,y,36,,0,right,right,,space,right,right,right,675,15231,,16717,19234,17396,675,2,legacy,680,1280,24,720,24,0,0,1280,1632908800806,6,1024,2,48000,-16,experiment,0,even,Win32,3,509162,380279,,505880,111,506932,494131,111,16842,109448,511179,507946,511861,111,511179,Sternberg_updated,71,47146,75,yes,1024
95,95,627,627,black,no,experiment,Mozilla,Netscape,"5.0 (Windows NT 10.0; Win64; x64) AppleWebKit/537.36 (KHTML, like Gecko) Chrome/94.0.4606.61 Safari/537.36",legacy,legacy,legacy,0,uniform,1,1,right,75,75,75,75,0,0,0,75,75,0,0,0,75,75,75,0,0,75,75,0,29-08-21,29-08-21,11:45:52,Wed Sep 29 2021 11:45:52 GMT+0200 (Central European Summer Time),The main experiment item,yes,0,0,/Users/ethan/Documents/GitHub/OpenSesame/Sternberg/experiment_files,0,0,0,no,mono,no,18,no,white,no,no,768,44,3.6.1,legacy,legacy,2 4 8 5 1 3,osweb,1.4.0,1,1,y,36,,0,right,right,,space,right,right,right,536,15231,,16717,19234,17396,536,2,legacy,680,1280,24,720,24,0,0,1280,1632908800806,6,1024,2,48000,-16,experiment,0,even,Win32,2,515128,380279,,511862,111,512902,494131,111,16842,109448,517144,513911,517694,111,517144,Sternberg_updated,72,47682,76,yes,1024
95,95,627,627,black,no,experiment,Mozilla,Netscape,"5.0 (Windows NT 10.0; Win64; x64) AppleWebKit/537.36 (KHTML, like Gecko) Chrome/94.0.4606.61 Safari/537.36",legacy,legacy,legacy,0,uniform,1,1,left,76,76,76,76,0,0,0,76,76,0,0,0,76,76,76,0,0,76,76,0,29-08-21,29-08-21,11:45:52,Wed Sep 29 2021 11:45:52 GMT+0200 (Central European Summer Time),The main experiment item,yes,0,0,/Users/ethan/Documents/GitHub/OpenSesame/Sternberg/experiment_files,0,0,0,no,mono,no,18,no,white,no,no,768,44,3.6.1,legacy,legacy,6 9 4 5 3 2,osweb,1.4.0,1,0,n,36,,0,left,right,,space,right,right,left,617,15231,,16717,19234,17396,617,2,legacy,680,1280,24,720,24,0,0,1280,1632908800806,6,1024,2,48000,-16,experiment,0,even,Win32,8,520960,380279,,517695,111,518735,494131,111,16842,109448,522977,519744,523610,111,522977,Sternberg_updated,73,48299,77,yes,1024
95,95,626,626,black,no,experiment,Mozilla,Netscape,"5.0 (Windows NT 10.0; Win64; x64) AppleWebKit/537.36 (KHTML, like Gecko) Chrome/94.0.4606.61 Safari/537.36",legacy,legacy,legacy,0,uniform,1,1,right,77,77,77,77,0,0,0,77,77,0,0,0,77,77,77,0,0,77,77,0,29-08-21,29-08-21,11:45:52,Wed Sep 29 2021 11:45:52 GMT+0200 (Central European Summer Time),The main experiment item,yes,0,0,/Users/ethan/Documents/GitHub/OpenSesame/Sternberg/experiment_files,0,0,0,no,mono,no,18,no,white,no,no,768,44,3.6.1,legacy,legacy,8 9 6 1,osweb,1.4.0,1,2,y,36,,0,right,right,,space,right,right,right,561,15231,,16717,19234,17396,561,2,legacy,680,1280,24,720,24,0,0,1280,1632908800806,4,1024,2,48000,-16,experiment,0,even,Win32,9,526876,380279,,523611,111,524649,494131,111,16842,109448,528893,525660,529459,111,528893,Sternberg_updated,74,48860,78,yes,1024
95,95,625,625,black,no,experiment,Mozilla,Netscape,"5.0 (Windows NT 10.0; Win64; x64) AppleWebKit/537.36 (KHTML, like Gecko) Chrome/94.0.4606.61 Safari/537.36",legacy,legacy,legacy,0,uniform,1,1,left,78,78,78,78,0,0,0,78,78,0,0,0,78,78,78,0,0,78,78,0,29-08-21,29-08-21,11:45:52,Wed Sep 29 2021 11:45:52 GMT+0200 (Central European Summer Time),The main experiment item,yes,0,0,/Users/ethan/Documents/GitHub/OpenSesame/Sternberg/experiment_files,0,0,0,no,mono,no,18,no,white,no,no,768,44,3.6.1,legacy,legacy,2 3 8 5 6 7,osweb,1.4.0,1,0,n,36,,0,left,right,,space,right,right,left,501,15231,,16717,19234,17396,501,2,legacy,680,1280,24,720,24,0,0,1280,1632908800806,6,1024,2,48000,-16,experiment,0,even,Win32,1,532726,380279,,529460,111,530497,494131,111,16842,109448,534742,531510,535258,111,534742,Sternberg_updated,75,49361,79,yes,1024
94,94,622,622,black,no,experiment,Mozilla,Netscape,"5.0 (Windows NT 10.0; Win64; x64) AppleWebKit/537.36 (KHTML, like Gecko) Chrome/94.0.4606.61 Safari/537.36",legacy,legacy,legacy,0,uniform,0,0,left,79,79,79,79,0,0,0,79,79,0,0,0,79,79,79,0,0,79,79,0,29-08-21,29-08-21,11:45:52,Wed Sep 29 2021 11:45:52 GMT+0200 (Central European Summer Time),The main experiment item,yes,0,0,/Users/ethan/Documents/GitHub/OpenSesame/Sternberg/experiment_files,0,0,0,no,mono,no,18,no,white,no,no,768,44,3.6.1,legacy,legacy,8 5 4 2 9 6,osweb,1.4.0,1,0,n,36,,0,right,right,,space,right,right,right,437,15231,,16717,19234,17396,437,2,legacy,680,1280,24,720,24,0,0,1280,1632908800806,6,1024,2,48000,-16,experiment,0,even,Win32,3,538525,380279,,535260,111,536300,494131,111,16842,109448,540541,537309,540991,111,540541,Sternberg_updated,75,49798,80,yes,1024
93,93,621,621,black,no,experiment,Mozilla,Netscape,"5.0 (Windows NT 10.0; Win64; x64) AppleWebKit/537.36 (KHTML, like Gecko) Chrome/94.0.4606.61 Safari/537.36",legacy,legacy,legacy,0,uniform,0,0,left,80,80,80,80,0,0,0,80,80,0,0,0,80,80,80,0,0,80,80,0,29-08-21,29-08-21,11:45:52,Wed Sep 29 2021 11:45:52 GMT+0200 (Central European Summer Time),The main experiment item,yes,0,0,/Users/ethan/Documents/GitHub/OpenSesame/Sternberg/experiment_files,0,0,0,no,mono,no,18,no,white,no,no,768,44,3.6.1,legacy,legacy,6 9 4 5 2,osweb,1.4.0,1,0,n,36,,0,right,right,,space,right,right,right,534,15231,,16717,19234,17396,534,2,legacy,680,1280,24,720,24,0,0,1280,1632908800806,5,1024,2,48000,-16,experiment,0,even,Win32,1,544257,380279,,535260,111,542031,540992,111,16842,109448,546274,543041,546823,111,546274,Sternberg_updated,75,50332,81,yes,1024
93,93,622,622,black,no,experiment,Mozilla,Netscape,"5.0 (Windows NT 10.0; Win64; x64) AppleWebKit/537.36 (KHTML, like Gecko) Chrome/94.0.4606.61 Safari/537.36",legacy,legacy,legacy,0,uniform,1,1,right,81,81,81,81,0,0,0,81,81,0,0,0,81,81,81,0,0,81,81,0,29-08-21,29-08-21,11:45:52,Wed Sep 29 2021 11:45:52 GMT+0200 (Central European Summer Time),The main experiment item,yes,0,0,/Users/ethan/Documents/GitHub/OpenSesame/Sternberg/experiment_files,0,0,0,no,mono,no,18,no,white,no,no,768,44,3.6.1,legacy,legacy,4 3 2 5 8,osweb,1.4.0,1,2,y,36,,0,right,right,,space,right,right,right,691,15231,,16717,19234,17396,691,2,legacy,680,1280,24,720,24,0,0,1280,1632908800806,5,1024,2,48000,-16,experiment,0,even,Win32,3,550090,380279,,535260,111,547872,546824,111,16842,109448,552106,548874,552806,111,552106,Sternberg_updated,76,51023,82,yes,1024
93,93,621,621,black,no,experiment,Mozilla,Netscape,"5.0 (Windows NT 10.0; Win64; x64) AppleWebKit/537.36 (KHTML, like Gecko) Chrome/94.0.4606.61 Safari/537.36",legacy,legacy,legacy,0,uniform,1,1,right,82,82,82,82,0,0,0,82,82,0,0,0,82,82,82,0,0,82,82,0,29-08-21,29-08-21,11:45:52,Wed Sep 29 2021 11:45:52 GMT+0200 (Central European Summer Time),The main experiment item,yes,0,0,/Users/ethan/Documents/GitHub/OpenSesame/Sternberg/experiment_files,0,0,0,no,mono,no,18,no,white,no,no,768,44,3.6.1,legacy,legacy,2 6 1 7 4,osweb,1.4.0,1,2,y,36,,0,right,right,,space,right,right,right,546,15231,,16717,19234,17396,546,2,legacy,680,1280,24,720,24,0,0,1280,1632908800806,5,1024,2,48000,-16,experiment,0,even,Win32,6,556073,380279,,552807,111,553845,546824,111,16842,109448,558089,554856,558639,111,558089,Sternberg_updated,77,51569,83,yes,1024
93,93,622,622,black,no,experiment,Mozilla,Netscape,"5.0 (Windows NT 10.0; Win64; x64) AppleWebKit/537.36 (KHTML, like Gecko) Chrome/94.0.4606.61 Safari/537.36",legacy,legacy,legacy,0,uniform,1,1,left,83,83,83,83,0,0,0,83,83,0,0,0,83,83,83,0,0,83,83,0,29-08-21,29-08-21,11:45:52,Wed Sep 29 2021 11:45:52 GMT+0200 (Central European Summer Time),The main experiment item,yes,0,0,/Users/ethan/Documents/GitHub/OpenSesame/Sternberg/experiment_files,0,0,0,no,mono,no,18,no,white,no,no,768,44,3.6.1,legacy,legacy,7 3 2 8,osweb,1.4.0,1,0,n,36,,0,left,right,,space,right,right,left,649,15231,,16717,19234,17396,649,2,legacy,680,1280,24,720,24,0,0,1280,1632908800806,4,1024,2,48000,-16,experiment,0,even,Win32,4,561905,380279,,558640,111,559678,546824,111,16842,109448,563922,560689,564571,111,563922,Sternberg_updated,78,52218,84,yes,1024
93,93,621,621,black,no,experiment,Mozilla,Netscape,"5.0 (Windows NT 10.0; Win64; x64) AppleWebKit/537.36 (KHTML, like Gecko) Chrome/94.0.4606.61 Safari/537.36",legacy,legacy,legacy,0,uniform,1,1,left,84,84,84,84,0,0,0,84,84,0,0,0,84,84,84,0,0,84,84,0,29-08-21,29-08-21,11:45:52,Wed Sep 29 2021 11:45:52 GMT+0200 (Central European Summer Time),The main experiment item,yes,0,0,/Users/ethan/Documents/GitHub/OpenSesame/Sternberg/experiment_files,0,0,0,no,mono,no,18,no,white,no,no,768,44,3.6.1,legacy,legacy,6 9 7 3 8 2,osweb,1.4.0,1,0,n,36,,0,left,right,,space,right,right,left,590,15231,,16717,19234,17396,590,2,legacy,680,1280,24,720,24,0,0,1280,1632908800806,6,1024,2,48000,-16,experiment,0,even,Win32,5,567838,380279,,564572,111,565615,546824,111,16842,109448,569854,566621,570454,111,569854,Sternberg_updated,79,52808,85,yes,1024
93,93,622,622,black,no,experiment,Mozilla,Netscape,"5.0 (Windows NT 10.0; Win64; x64) AppleWebKit/537.36 (KHTML, like Gecko) Chrome/94.0.4606.61 Safari/537.36",legacy,legacy,legacy,0,uniform,1,1,right,85,85,85,85,0,0,0,85,85,0,0,0,85,85,85,0,0,85,85,0,29-08-21,29-08-21,11:45:52,Wed Sep 29 2021 11:45:52 GMT+0200 (Central European Summer Time),The main experiment item,yes,0,0,/Users/ethan/Documents/GitHub/OpenSesame/Sternberg/experiment_files,0,0,0,no,mono,no,18,no,white,no,no,768,44,3.6.1,legacy,legacy,3 9 7 6 4,osweb,1.4.0,1,3,y,36,,0,right,right,,space,right,right,right,715,15231,,16717,19234,17396,715,2,legacy,680,1280,24,720,24,0,0,1280,1632908800806,5,1024,2,48000,-16,experiment,0,even,Win32,7,573720,380279,,570455,111,571494,546824,111,16842,109448,575737,572504,576453,111,575737,Sternberg_updated,80,53523,86,yes,1024
93,93,621,621,black,no,experiment,Mozilla,Netscape,"5.0 (Windows NT 10.0; Win64; x64) AppleWebKit/537.36 (KHTML, like Gecko) Chrome/94.0.4606.61 Safari/537.36",legacy,legacy,legacy,0,uniform,1,1,right,86,86,86,86,0,0,0,86,86,0,0,0,86,86,86,0,0,86,86,0,29-08-21,29-08-21,11:45:52,Wed Sep 29 2021 11:45:52 GMT+0200 (Central European Summer Time),The main experiment item,yes,0,0,/Users/ethan/Documents/GitHub/OpenSesame/Sternberg/experiment_files,0,0,0,no,mono,no,18,no,white,no,no,768,44,3.6.1,legacy,legacy,7 6,osweb,1.4.0,1,2,y,36,,0,right,right,,space,right,right,right,485,15231,,16717,19234,17396,485,2,legacy,680,1280,24,720,24,0,0,1280,1632908800806,2,1024,2,48000,-16,experiment,0,even,Win32,6,579720,380279,,576454,111,577495,546824,111,16842,109448,581736,578503,582236,111,581736,Sternberg_updated,81,54008,87,yes,1024
93,93,621,621,black,no,experiment,Mozilla,Netscape,"5.0 (Windows NT 10.0; Win64; x64) AppleWebKit/537.36 (KHTML, like Gecko) Chrome/94.0.4606.61 Safari/537.36",legacy,legacy,legacy,0,uniform,1,1,right,87,87,87,87,0,0,0,87,87,0,0,0,87,87,87,0,0,87,87,0,29-08-21,29-08-21,11:45:52,Wed Sep 29 2021 11:45:52 GMT+0200 (Central European Summer Time),The main experiment item,yes,0,0,/Users/ethan/Documents/GitHub/OpenSesame/Sternberg/experiment_files,0,0,0,no,mono,no,18,no,white,no,no,768,44,3.6.1,legacy,legacy,4 6 2 5 1,osweb,1.4.0,1,5,y,36,,0,right,right,,space,right,right,right,604,15231,,16717,19234,17396,604,2,legacy,680,1280,24,720,24,0,0,1280,1632908800806,5,1024,2,48000,-16,experiment,0,even,Win32,1,585502,380279,,582237,111,583277,546824,111,16842,109448,587519,584286,588135,111,587519,Sternberg_updated,82,54612,88,yes,1024
93,93,619,619,black,no,experiment,Mozilla,Netscape,"5.0 (Windows NT 10.0; Win64; x64) AppleWebKit/537.36 (KHTML, like Gecko) Chrome/94.0.4606.61 Safari/537.36",legacy,legacy,legacy,0,uniform,1,1,right,88,88,88,88,0,0,0,88,88,0,0,0,88,88,88,0,0,88,88,0,29-08-21,29-08-21,11:45:52,Wed Sep 29 2021 11:45:52 GMT+0200 (Central European Summer Time),The main experiment item,yes,0,0,/Users/ethan/Documents/GitHub/OpenSesame/Sternberg/experiment_files,0,0,0,no,mono,no,18,no,white,no,no,768,44,3.6.1,legacy,legacy,8 1 6,osweb,1.4.0,1,3,y,36,,0,right,right,,space,right,right,right,467,15231,,16717,19234,17396,467,2,legacy,680,1280,24,720,24,0,0,1280,1632908800806,3,1024,2,48000,-16,experiment,0,even,Win32,6,591401,380279,,588138,111,589174,546824,111,16842,109448,593418,590185,593901,111,593418,Sternberg_updated,83,55079,89,yes,1024
93,93,620,620,black,no,experiment,Mozilla,Netscape,"5.0 (Windows NT 10.0; Win64; x64) AppleWebKit/537.36 (KHTML, like Gecko) Chrome/94.0.4606.61 Safari/537.36",legacy,legacy,legacy,0,uniform,1,1,left,89,89,89,89,0,0,0,89,89,0,0,0,89,89,89,0,0,89,89,0,29-08-21,29-08-21,11:45:52,Wed Sep 29 2021 11:45:52 GMT+0200 (Central European Summer Time),The main experiment item,yes,0,0,/Users/ethan/Documents/GitHub/OpenSesame/Sternberg/experiment_files,0,0,0,no,mono,no,18,no,white,no,no,768,44,3.6.1,legacy,legacy,7 6 4 8 1 2,osweb,1.4.0,1,0,n,36,,0,left,right,,space,right,right,left,762,15231,,16717,19234,17396,762,2,legacy,680,1280,24,720,24,0,0,1280,1632908800806,6,1024,2,48000,-16,experiment,0,even,Win32,9,597167,380279,,593902,111,594945,546824,111,16842,109448,599184,595951,599950,111,599184,Sternberg_updated,84,55841,90,yes,1024
93,93,621,621,black,no,experiment,Mozilla,Netscape,"5.0 (Windows NT 10.0; Win64; x64) AppleWebKit/537.36 (KHTML, like Gecko) Chrome/94.0.4606.61 Safari/537.36",legacy,legacy,legacy,0,uniform,1,1,right,90,90,90,90,0,0,0,90,90,0,0,0,90,90,90,0,0,90,90,0,29-08-21,29-08-21,11:45:52,Wed Sep 29 2021 11:45:52 GMT+0200 (Central European Summer Time),The main experiment item,yes,0,0,/Users/ethan/Documents/GitHub/OpenSesame/Sternberg/experiment_files,0,0,0,no,mono,no,18,no,white,no,no,768,44,3.6.1,legacy,legacy,7 1 8 5 6 2,osweb,1.4.0,1,2,y,36,,0,right,right,,space,right,right,right,650,15231,,16717,19234,17396,650,2,legacy,680,1280,24,720,24,0,0,1280,1632908800806,6,1024,2,48000,-16,experiment,0,even,Win32,1,603217,380279,,599951,111,600992,546824,111,16842,109448,605233,602000,605899,111,605233,Sternberg_updated,85,56491,91,yes,1024
93,93,622,622,black,no,experiment,Mozilla,Netscape,"5.0 (Windows NT 10.0; Win64; x64) AppleWebKit/537.36 (KHTML, like Gecko) Chrome/94.0.4606.61 Safari/537.36",legacy,legacy,legacy,0,uniform,1,1,left,91,91,91,91,0,0,0,91,91,0,0,0,91,91,91,0,0,91,91,0,29-08-21,29-08-21,11:45:52,Wed Sep 29 2021 11:45:52 GMT+0200 (Central European Summer Time),The main experiment item,yes,0,0,/Users/ethan/Documents/GitHub/OpenSesame/Sternberg/experiment_files,0,0,0,no,mono,no,18,no,white,no,no,768,44,3.6.1,legacy,legacy,7 9 1 6,osweb,1.4.0,1,0,n,36,,0,left,right,,space,right,right,left,691,15231,,16717,19234,17396,691,2,legacy,680,1280,24,720,24,0,0,1280,1632908800806,4,1024,2,48000,-16,experiment,0,even,Win32,4,609166,380279,,605900,111,606946,546824,111,16842,109448,611182,607949,611882,111,611182,Sternberg_updated,86,57182,92,yes,1024
94,94,620,620,black,no,experiment,Mozilla,Netscape,"5.0 (Windows NT 10.0; Win64; x64) AppleWebKit/537.36 (KHTML, like Gecko) Chrome/94.0.4606.61 Safari/537.36",legacy,legacy,legacy,0,uniform,1,1,left,92,92,92,92,0,0,0,92,92,0,0,0,92,92,92,0,0,92,92,0,29-08-21,29-08-21,11:45:52,Wed Sep 29 2021 11:45:52 GMT+0200 (Central European Summer Time),The main experiment item,yes,0,0,/Users/ethan/Documents/GitHub/OpenSesame/Sternberg/experiment_files,0,0,0,no,mono,no,18,no,white,no,no,768,44,3.6.1,legacy,legacy,3 4 9 6 7 8,osweb,1.4.0,1,0,n,36,,0,left,right,,space,right,right,left,514,15231,,16717,19234,17396,514,2,legacy,680,1280,24,720,24,0,0,1280,1632908800806,6,1024,2,48000,-16,experiment,0,even,Win32,2,615148,380279,,611885,111,612924,546824,111,16842,109448,617165,613932,617681,111,617165,Sternberg_updated,87,57696,93,yes,1024
94,94,621,621,black,no,experiment,Mozilla,Netscape,"5.0 (Windows NT 10.0; Win64; x64) AppleWebKit/537.36 (KHTML, like Gecko) Chrome/94.0.4606.61 Safari/537.36",legacy,legacy,legacy,0,uniform,1,1,left,93,93,93,93,0,0,0,93,93,0,0,0,93,93,93,0,0,93,93,0,29-08-21,29-08-21,11:45:52,Wed Sep 29 2021 11:45:52 GMT+0200 (Central European Summer Time),The main experiment item,yes,0,0,/Users/ethan/Documents/GitHub/OpenSesame/Sternberg/experiment_files,0,0,0,no,mono,no,18,no,white,no,no,768,44,3.6.1,legacy,legacy,8 4 3 5,osweb,1.4.0,1,0,n,36,,0,left,right,,space,right,right,left,718,15231,,16717,19234,17396,718,2,legacy,680,1280,24,720,24,0,0,1280,1632908800806,4,1024,2,48000,-16,experiment,0,even,Win32,6,620948,380279,,617682,111,618721,546824,111,16842,109448,622964,619731,623697,111,622964,Sternberg_updated,88,58414,94,yes,1024
94,94,621,621,black,no,experiment,Mozilla,Netscape,"5.0 (Windows NT 10.0; Win64; x64) AppleWebKit/537.36 (KHTML, like Gecko) Chrome/94.0.4606.61 Safari/537.36",legacy,legacy,legacy,0,uniform,1,1,left,94,94,94,94,0,0,0,94,94,0,0,0,94,94,94,0,0,94,94,0,29-08-21,29-08-21,11:45:52,Wed Sep 29 2021 11:45:52 GMT+0200 (Central European Summer Time),The main experiment item,yes,0,0,/Users/ethan/Documents/GitHub/OpenSesame/Sternberg/experiment_files,0,0,0,no,mono,no,18,no,white,no,no,768,44,3.6.1,legacy,legacy,8 2 1 4 5 9,osweb,1.4.0,1,0,n,36,,0,left,right,,space,right,right,left,570,15231,,16717,19234,17396,570,2,legacy,680,1280,24,720,24,0,0,1280,1632908800806,6,1024,2,48000,-16,experiment,0,even,Win32,7,626963,380279,,623698,111,624740,546824,111,16842,109448,628980,625747,629563,111,628980,Sternberg_updated,89,58984,95,yes,1024
94,94,621,621,black,no,experiment,Mozilla,Netscape,"5.0 (Windows NT 10.0; Win64; x64) AppleWebKit/537.36 (KHTML, like Gecko) Chrome/94.0.4606.61 Safari/537.36",legacy,legacy,legacy,0,uniform,1,1,left,95,95,95,95,0,0,0,95,95,0,0,0,95,95,95,0,0,95,95,0,29-08-21,29-08-21,11:45:52,Wed Sep 29 2021 11:45:52 GMT+0200 (Central European Summer Time),The main experiment item,yes,0,0,/Users/ethan/Documents/GitHub/OpenSesame/Sternberg/experiment_files,0,0,0,no,mono,no,18,no,white,no,no,768,44,3.6.1,legacy,legacy,6 7 5 9,osweb,1.4.0,1,0,n,36,,0,left,right,,space,right,right,left,609,15231,,16717,19234,17396,609,2,legacy,680,1280,24,720,24,0,0,1280,1632908800806,4,1024,2,48000,-16,experiment,0,even,Win32,2,632829,380279,,629564,111,630604,546824,111,16842,109448,634846,631613,635462,111,634846,Sternberg_updated,90,59593,96,yes,1024
94,94,619,619,black,no,experiment,Mozilla,Netscape,"5.0 (Windows NT 10.0; Win64; x64) AppleWebKit/537.36 (KHTML, like Gecko) Chrome/94.0.4606.61 Safari/537.36",legacy,legacy,legacy,0,uniform,1,1,right,96,96,96,96,0,0,0,96,96,0,0,0,96,96,96,0,0,96,96,0,29-08-21,29-08-21,11:45:52,Wed Sep 29 2021 11:45:52 GMT+0200 (Central European Summer Time),The main experiment item,yes,0,0,/Users/ethan/Documents/GitHub/OpenSesame/Sternberg/experiment_files,0,0,0,no,mono,no,18,no,white,no,no,768,44,3.6.1,legacy,legacy,9 3 1 2 5,osweb,1.4.0,1,4,y,36,,0,right,right,,space,right,right,right,468,15231,,16717,19234,17396,468,2,legacy,680,1280,24,720,24,0,0,1280,1632908800806,5,1024,2,48000,-16,experiment,0,even,Win32,2,638729,380279,,635463,111,636503,546824,111,16842,109448,640745,637512,641228,111,640745,Sternberg_updated,91,60061,97,yes,1024
93,93,629,629,black,no,experiment,Mozilla,Netscape,"5.0 (Windows NT 10.0; Win64; x64) AppleWebKit/537.36 (KHTML, like Gecko) Chrome/94.0.4606.61 Safari/537.36",legacy,legacy,legacy,0,uniform,0,0,right,97,97,97,97,0,0,0,97,97,0,0,0,97,97,97,0,0,97,97,0,29-08-21,29-08-21,11:45:52,Wed Sep 29 2021 11:45:52 GMT+0200 (Central European Summer Time),The main experiment item,yes,0,0,/Users/ethan/Documents/GitHub/OpenSesame/Sternberg/experiment_files,0,0,0,no,mono,no,18,no,white,no,no,768,44,3.6.1,legacy,legacy,5 7 8 2 3 8,osweb,1.4.0,1,5,y,36,,0,left,right,right,space,right,right,left,1567,15231,47856,16717,19234,17396,1567,2,legacy,680,1280,24,720,24,0,0,1280,1632908800806,6,1024,2,48000,-16,experiment,0,even,Win32,3,692355,380279,642246,641230,111,690132,546824,111,16842,109448,694372,691139,695954,111,694372,Sternberg_updated,91,61628,98,yes,1024
92,92,630,630,black,no,experiment,Mozilla,Netscape,"5.0 (Windows NT 10.0; Win64; x64) AppleWebKit/537.36 (KHTML, like Gecko) Chrome/94.0.4606.61 Safari/537.36",legacy,legacy,legacy,0,uniform,0,0,right,98,98,98,98,0,0,0,98,98,0,0,0,98,98,98,0,0,98,98,0,29-08-21,29-08-21,11:45:52,Wed Sep 29 2021 11:45:52 GMT+0200 (Central European Summer Time),The main experiment item,yes,0,0,/Users/ethan/Documents/GitHub/OpenSesame/Sternberg/experiment_files,0,0,0,no,mono,no,18,no,white,no,no,768,44,3.6.1,legacy,legacy,3 5 7 1,osweb,1.4.0,1,3,y,36,,0,left,right,right,space,right,right,left,746,15231,47856,16717,19234,17396,746,2,legacy,680,1280,24,720,24,0,0,1280,1632908800806,4,1024,2,48000,-16,experiment,0,even,Win32,7,699221,380279,642246,641230,111,696996,695956,111,16842,109448,701238,698005,701987,111,701238,Sternberg_updated,91,62374,99,yes,1024
92,92,640,640,black,no,experiment,Mozilla,Netscape,"5.0 (Windows NT 10.0; Win64; x64) AppleWebKit/537.36 (KHTML, like Gecko) Chrome/94.0.4606.61 Safari/537.36",legacy,legacy,legacy,0,uniform,1,1,left,99,99,99,99,0,0,0,99,99,0,0,0,99,99,99,0,0,99,99,0,29-08-21,29-08-21,11:45:52,Wed Sep 29 2021 11:45:52 GMT+0200 (Central European Summer Time),The main experiment item,yes,0,0,/Users/ethan/Documents/GitHub/OpenSesame/Sternberg/experiment_files,0,0,0,no,mono,no,18,no,white,no,no,768,44,3.6.1,legacy,legacy,4 2 7 6 1 3,osweb,1.4.0,1,0,n,36,,0,left,right,right,space,right,right,left,1616,15231,47856,16717,19234,17396,1616,2,legacy,680,1280,24,720,24,0,0,1280,1632908800806,6,1024,2,48000,-16,experiment,0,even,Win32,8,705254,380279,642246,641230,111,703029,701988,111,16842,109448,707270,704037,708903,111,707270,Sternberg_updated,92,63990,100,yes,1024
92,92,639,639,black,no,experiment,Mozilla,Netscape,"5.0 (Windows NT 10.0; Win64; x64) AppleWebKit/537.36 (KHTML, like Gecko) Chrome/94.0.4606.61 Safari/537.36",legacy,legacy,legacy,0,uniform,1,1,right,100,100,100,100,0,0,0,100,100,0,0,0,100,100,100,0,0,100,100,0,29-08-21,29-08-21,11:45:52,Wed Sep 29 2021 11:45:52 GMT+0200 (Central European Summer Time),The main experiment item,yes,0,0,/Users/ethan/Documents/GitHub/OpenSesame/Sternberg/experiment_files,0,0,0,no,mono,no,18,no,white,no,no,768,44,3.6.1,legacy,legacy,6 2,osweb,1.4.0,1,1,y,36,,0,right,right,right,space,right,right,right,535,15231,47856,16717,19234,17396,535,2,legacy,680,1280,24,720,24,0,0,1280,1632908800806,2,1024,2,48000,-16,experiment,0,even,Win32,6,712169,380279,642246,708904,111,709941,701988,111,16842,109448,714186,710953,714735,111,714186,Sternberg_updated,93,64525,101,yes,1024
92,92,638,638,black,no,experiment,Mozilla,Netscape,"5.0 (Windows NT 10.0; Win64; x64) AppleWebKit/537.36 (KHTML, like Gecko) Chrome/94.0.4606.61 Safari/537.36",legacy,legacy,legacy,0,uniform,1,1,left,101,101,101,101,0,0,0,101,101,0,0,0,101,101,101,0,0,101,101,0,29-08-21,29-08-21,11:45:52,Wed Sep 29 2021 11:45:52 GMT+0200 (Central European Summer Time),The main experiment item,yes,0,0,/Users/ethan/Documents/GitHub/OpenSesame/Sternberg/experiment_files,0,0,0,no,mono,no,18,no,white,no,no,768,44,3.6.1,legacy,legacy,4 8 1 2,osweb,1.4.0,1,0,n,36,,0,left,right,right,space,right,right,left,500,15231,47856,16717,19234,17396,500,2,legacy,680,1280,24,720,24,0,0,1280,1632908800806,4,1024,2,48000,-16,experiment,0,even,Win32,7,718002,380279,642246,714737,111,715776,701988,111,16842,109448,720019,716786,720535,111,720018,Sternberg_updated,94,65025,102,yes,1024
91,91,637,637,black,no,experiment,Mozilla,Netscape,"5.0 (Windows NT 10.0; Win64; x64) AppleWebKit/537.36 (KHTML, like Gecko) Chrome/94.0.4606.61 Safari/537.36",legacy,legacy,legacy,0,uniform,0,0,right,102,102,102,102,0,0,0,102,102,0,0,0,102,102,102,0,0,102,102,0,29-08-21,29-08-21,11:45:52,Wed Sep 29 2021 11:45:52 GMT+0200 (Central European Summer Time),The main experiment item,yes,0,0,/Users/ethan/Documents/GitHub/OpenSesame/Sternberg/experiment_files,0,0,0,no,mono,no,18,no,white,no,no,768,44,3.6.1,legacy,legacy,6 8 9 3 4 9,osweb,1.4.0,1,5,y,36,,0,left,right,right,space,right,right,left,547,15231,47856,16717,19234,17396,547,2,legacy,680,1280,24,720,24,0,0,1280,1632908800806,6,1024,2,48000,-16,experiment,0,even,Win32,4,723801,380279,642246,720536,111,721575,701988,111,16842,109448,725818,722585,726367,111,725818,Sternberg_updated,94,65572,103,yes,1024
91,91,636,636,black,no,experiment,Mozilla,Netscape,"5.0 (Windows NT 10.0; Win64; x64) AppleWebKit/537.36 (KHTML, like Gecko) Chrome/94.0.4606.61 Safari/537.36",legacy,legacy,legacy,0,uniform,1,1,left,103,103,103,103,0,0,0,103,103,0,0,0,103,103,103,0,0,103,103,0,29-08-21,29-08-21,11:45:52,Wed Sep 29 2021 11:45:52 GMT+0200 (Central European Summer Time),The main experiment item,yes,0,0,/Users/ethan/Documents/GitHub/OpenSesame/Sternberg/experiment_files,0,0,0,no,mono,no,18,no,white,no,no,768,44,3.6.1,legacy,legacy,3 9 1,osweb,1.4.0,1,0,n,36,,0,left,right,right,space,right,right,left,566,15231,47856,16717,19234,17396,566,2,legacy,680,1280,24,720,24,0,0,1280,1632908800806,3,1024,2,48000,-16,experiment,0,even,Win32,7,729634,380279,642246,720536,111,727406,726369,111,16842,109448,731651,728418,732217,111,731651,Sternberg_updated,95,66138,104,yes,1024
91,91,635,635,black,no,experiment,Mozilla,Netscape,"5.0 (Windows NT 10.0; Win64; x64) AppleWebKit/537.36 (KHTML, like Gecko) Chrome/94.0.4606.61 Safari/537.36",legacy,legacy,legacy,0,uniform,1,1,right,104,104,104,104,0,0,0,104,104,0,0,0,104,104,104,0,0,104,104,0,29-08-21,29-08-21,11:45:52,Wed Sep 29 2021 11:45:52 GMT+0200 (Central European Summer Time),The main experiment item,yes,0,0,/Users/ethan/Documents/GitHub/OpenSesame/Sternberg/experiment_files,0,0,0,no,mono,no,18,no,white,no,no,768,44,3.6.1,legacy,legacy,6 9 7 4 5 1,osweb,1.4.0,1,2,y,36,,0,right,right,right,space,right,right,right,506,15231,47856,16717,19234,17396,506,2,legacy,680,1280,24,720,24,0,0,1280,1632908800806,6,1024,2,48000,-16,experiment,0,even,Win32,9,735483,380279,642246,732218,111,733262,726369,111,16842,109448,737500,734267,738016,111,737500,Sternberg_updated,96,66644,105,yes,1024
91,91,633,633,black,no,experiment,Mozilla,Netscape,"5.0 (Windows NT 10.0; Win64; x64) AppleWebKit/537.36 (KHTML, like Gecko) Chrome/94.0.4606.61 Safari/537.36",legacy,legacy,legacy,0,uniform,0,0,right,105,105,105,105,0,0,0,105,105,0,0,0,105,105,105,0,0,105,105,0,29-08-21,29-08-21,11:45:52,Wed Sep 29 2021 11:45:52 GMT+0200 (Central European Summer Time),The main experiment item,yes,0,0,/Users/ethan/Documents/GitHub/OpenSesame/Sternberg/experiment_files,0,0,0,no,mono,no,18,no,white,no,no,768,44,3.6.1,legacy,legacy,8 9 5 6 7,osweb,1.4.0,1,1,y,36,,0,left,right,right,space,right,right,left,474,15231,47856,16717,19234,17396,474,2,legacy,680,1280,24,720,24,0,0,1280,1632908800806,5,1024,2,48000,-16,experiment,0,even,Win32,8,741282,380279,642246,738017,111,739061,726369,111,16842,109448,743299,740066,743782,111,743299,Sternberg_updated,96,67118,106,yes,1024
90,90,633,633,black,no,experiment,Mozilla,Netscape,"5.0 (Windows NT 10.0; Win64; x64) AppleWebKit/537.36 (KHTML, like Gecko) Chrome/94.0.4606.61 Safari/537.36",legacy,legacy,legacy,0,uniform,0,0,left,106,106,106,106,0,0,0,106,106,0,0,0,106,106,106,0,0,106,106,0,29-08-21,29-08-21,11:45:52,Wed Sep 29 2021 11:45:52 GMT+0200 (Central European Summer Time),The main experiment item,yes,0,0,/Users/ethan/Documents/GitHub/OpenSesame/Sternberg/experiment_files,0,0,0,no,mono,no,18,no,white,no,no,768,44,3.6.1,legacy,legacy,9 7 4 5 8,osweb,1.4.0,1,0,n,36,,0,right,right,right,space,right,right,right,563,15231,47856,16717,19234,17396,563,2,legacy,680,1280,24,720,24,0,0,1280,1632908800806,5,1024,2,48000,-16,experiment,0,even,Win32,6,747048,380279,642246,738017,111,744821,743783,111,16842,109448,749065,745832,749631,111,749065,Sternberg_updated,96,67681,107,yes,1024
90,90,632,632,black,no,experiment,Mozilla,Netscape,"5.0 (Windows NT 10.0; Win64; x64) AppleWebKit/537.36 (KHTML, like Gecko) Chrome/94.0.4606.61 Safari/537.36",legacy,legacy,legacy,0,uniform,1,1,left,107,107,107,107,0,0,0,107,107,0,0,0,107,107,107,0,0,107,107,0,29-08-21,29-08-21,11:45:52,Wed Sep 29 2021 11:45:52 GMT+0200 (Central European Summer Time),The main experiment item,yes,0,0,/Users/ethan/Documents/GitHub/OpenSesame/Sternberg/experiment_files,0,0,0,no,mono,no,18,no,white,no,no,768,44,3.6.1,legacy,legacy,3 9 8 1 6 4,osweb,1.4.0,1,0,n,36,,0,left,right,right,space,right,right,left,554,15231,47856,16717,19234,17396,554,2,legacy,680,1280,24,720,24,0,0,1280,1632908800806,6,1024,2,48000,-16,experiment,0,even,Win32,7,752898,380279,642246,738017,111,750671,749632,111,16842,109448,754914,751681,755481,111,754914,Sternberg_updated,97,68235,108,yes,1024
90,90,632,632,black,no,experiment,Mozilla,Netscape,"5.0 (Windows NT 10.0; Win64; x64) AppleWebKit/537.36 (KHTML, like Gecko) Chrome/94.0.4606.61 Safari/537.36",legacy,legacy,legacy,0,uniform,1,1,left,108,108,108,108,0,0,0,108,108,0,0,0,108,108,108,0,0,108,108,0,29-08-21,29-08-21,11:45:52,Wed Sep 29 2021 11:45:52 GMT+0200 (Central European Summer Time),The main experiment item,yes,0,0,/Users/ethan/Documents/GitHub/OpenSesame/Sternberg/experiment_files,0,0,0,no,mono,no,18,no,white,no,no,768,44,3.6.1,legacy,legacy,6 2 9 3 8 4,osweb,1.4.0,1,0,n,36,,0,left,right,right,space,right,right,left,599,15231,47856,16717,19234,17396,599,2,legacy,680,1280,24,720,24,0,0,1280,1632908800806,6,1024,2,48000,-16,experiment,0,even,Win32,1,758747,380279,642246,755483,111,756526,749632,111,16842,109448,760763,757531,761363,111,760763,Sternberg_updated,98,68834,109,yes,1024
90,90,630,630,black,no,experiment,Mozilla,Netscape,"5.0 (Windows NT 10.0; Win64; x64) AppleWebKit/537.36 (KHTML, like Gecko) Chrome/94.0.4606.61 Safari/537.36",legacy,legacy,legacy,0,uniform,1,1,left,109,109,109,109,0,0,0,109,109,0,0,0,109,109,109,0,0,109,109,0,29-08-21,29-08-21,11:45:52,Wed Sep 29 2021 11:45:52 GMT+0200 (Central European Summer Time),The main experiment item,yes,0,0,/Users/ethan/Documents/GitHub/OpenSesame/Sternberg/experiment_files,0,0,0,no,mono,no,18,no,white,no,no,768,44,3.6.1,legacy,legacy,4 1,osweb,1.4.0,1,0,n,36,,0,left,right,right,space,right,right,left,516,15231,47856,16717,19234,17396,516,2,legacy,680,1280,24,720,24,0,0,1280,1632908800806,2,1024,2,48000,-16,experiment,0,even,Win32,6,764629,380279,642246,761364,111,762403,749632,111,16842,109448,766646,763413,767179,111,766646,Sternberg_updated,99,69350,110,yes,1024
90,90,630,630,black,no,experiment,Mozilla,Netscape,"5.0 (Windows NT 10.0; Win64; x64) AppleWebKit/537.36 (KHTML, like Gecko) Chrome/94.0.4606.61 Safari/537.36",legacy,legacy,legacy,0,uniform,1,1,right,110,110,110,110,0,0,0,110,110,0,0,0,110,110,110,0,0,110,110,0,29-08-21,29-08-21,11:45:52,Wed Sep 29 2021 11:45:52 GMT+0200 (Central European Summer Time),The main experiment item,yes,0,0,/Users/ethan/Documents/GitHub/OpenSesame/Sternberg/experiment_files,0,0,0,no,mono,no,18,no,white,no,no,768,44,3.6.1,legacy,legacy,6 5,osweb,1.4.0,1,2,y,36,,0,right,right,right,space,right,right,right,564,15231,47856,16717,19234,17396,564,2,legacy,680,1280,24,720,24,0,0,1280,1632908800806,2,1024,2,48000,-16,experiment,0,even,Win32,5,770445,380279,642246,767180,111,768220,749632,111,16842,109448,772462,769229,773028,111,772462,Sternberg_updated,100,69914,111,yes,1024
90,90,628,628,black,no,experiment,Mozilla,Netscape,"5.0 (Windows NT 10.0; Win64; x64) AppleWebKit/537.36 (KHTML, like Gecko) Chrome/94.0.4606.61 Safari/537.36",legacy,legacy,legacy,0,uniform,1,1,left,111,111,111,111,0,0,0,111,111,0,0,0,111,111,111,0,0,111,111,0,29-08-21,29-08-21,11:45:52,Wed Sep 29 2021 11:45:52 GMT+0200 (Central European Summer Time),The main experiment item,yes,0,0,/Users/ethan/Documents/GitHub/OpenSesame/Sternberg/experiment_files,0,0,0,no,mono,no,18,no,white,no,no,768,44,3.6.1,legacy,legacy,8 9,osweb,1.4.0,1,0,n,36,,0,left,right,right,space,right,right,left,405,15231,47856,16717,19234,17396,405,2,legacy,680,1280,24,720,24,0,0,1280,1632908800806,2,1024,2,48000,-16,experiment,0,even,Win32,5,776295,380279,642246,773029,111,774070,749632,111,16842,109448,778311,775078,778727,111,778311,Sternberg_updated,101,70319,112,yes,1024
90,90,627,627,black,no,experiment,Mozilla,Netscape,"5.0 (Windows NT 10.0; Win64; x64) AppleWebKit/537.36 (KHTML, like Gecko) Chrome/94.0.4606.61 Safari/537.36",legacy,legacy,legacy,0,uniform,1,1,left,112,112,112,112,0,0,0,112,112,0,0,0,112,112,112,0,0,112,112,0,29-08-21,29-08-21,11:45:52,Wed Sep 29 2021 11:45:52 GMT+0200 (Central European Summer Time),The main experiment item,yes,0,0,/Users/ethan/Documents/GitHub/OpenSesame/Sternberg/experiment_files,0,0,0,no,mono,no,18,no,white,no,no,768,44,3.6.1,legacy,legacy,8 4 3 9,osweb,1.4.0,1,0,n,36,,0,left,right,right,space,right,right,left,579,15231,47856,16717,19234,17396,579,2,legacy,680,1280,24,720,24,0,0,1280,1632908800806,4,1024,2,48000,-16,experiment,0,even,Win32,5,781994,380279,642246,778729,111,779766,749632,111,16842,109448,784010,780778,784593,111,784010,Sternberg_updated,102,70898,113,yes,1024
90,90,625,625,black,no,experiment,Mozilla,Netscape,"5.0 (Windows NT 10.0; Win64; x64) AppleWebKit/537.36 (KHTML, like Gecko) Chrome/94.0.4606.61 Safari/537.36",legacy,legacy,legacy,0,uniform,1,1,right,113,113,113,113,0,0,0,113,113,0,0,0,113,113,113,0,0,113,113,0,29-08-21,29-08-21,11:45:52,Wed Sep 29 2021 11:45:52 GMT+0200 (Central European Summer Time),The main experiment item,yes,0,0,/Users/ethan/Documents/GitHub/OpenSesame/Sternberg/experiment_files,0,0,0,no,mono,no,18,no,white,no,no,768,44,3.6.1,legacy,legacy,3 4,osweb,1.4.0,1,1,y,36,,0,right,right,right,space,right,right,right,402,15231,47856,16717,19234,17396,402,2,legacy,680,1280,24,720,24,0,0,1280,1632908800806,2,1024,2,48000,-16,experiment,0,even,Win32,3,787860,380279,642246,784595,111,785634,749632,111,16842,109448,789876,786644,790293,111,789876,Sternberg_updated,103,71300,114,yes,1024
90,90,624,624,black,no,experiment,Mozilla,Netscape,"5.0 (Windows NT 10.0; Win64; x64) AppleWebKit/537.36 (KHTML, like Gecko) Chrome/94.0.4606.61 Safari/537.36",legacy,legacy,legacy,0,uniform,1,1,left,114,114,114,114,0,0,0,114,114,0,0,0,114,114,114,0,0,114,114,0,29-08-21,29-08-21,11:45:52,Wed Sep 29 2021 11:45:52 GMT+0200 (Central European Summer Time),The main experiment item,yes,0,0,/Users/ethan/Documents/GitHub/OpenSesame/Sternberg/experiment_files,0,0,0,no,mono,no,18,no,white,no,no,768,44,3.6.1,legacy,legacy,1 3 2 6 9,osweb,1.4.0,1,0,n,36,,0,left,right,right,space,right,right,left,486,15231,47856,16717,19234,17396,486,2,legacy,680,1280,24,720,24,0,0,1280,1632908800806,5,1024,2,48000,-16,experiment,0,even,Win32,5,793559,380279,642246,790294,111,791333,749632,111,16842,109448,795576,792343,796075,111,795576,Sternberg_updated,104,71786,115,yes,1024
91,91,624,624,black,no,experiment,Mozilla,Netscape,"5.0 (Windows NT 10.0; Win64; x64) AppleWebKit/537.36 (KHTML, like Gecko) Chrome/94.0.4606.61 Safari/537.36",legacy,legacy,legacy,0,uniform,1,1,left,115,115,115,115,0,0,0,115,115,0,0,0,115,115,115,0,0,115,115,0,29-08-21,29-08-21,11:45:52,Wed Sep 29 2021 11:45:52 GMT+0200 (Central European Summer Time),The main experiment item,yes,0,0,/Users/ethan/Documents/GitHub/OpenSesame/Sternberg/experiment_files,0,0,0,no,mono,no,18,no,white,no,no,768,44,3.6.1,legacy,legacy,1 5 3 2 8,osweb,1.4.0,1,0,n,36,,0,left,right,right,space,right,right,left,550,15231,47856,16717,19234,17396,550,2,legacy,680,1280,24,720,24,0,0,1280,1632908800806,5,1024,2,48000,-16,experiment,0,even,Win32,4,799342,380279,642246,796076,111,797118,749632,111,16842,109448,801358,798126,801924,111,801358,Sternberg_updated,105,72336,116,yes,1024
91,91,624,624,black,no,experiment,Mozilla,Netscape,"5.0 (Windows NT 10.0; Win64; x64) AppleWebKit/537.36 (KHTML, like Gecko) Chrome/94.0.4606.61 Safari/537.36",legacy,legacy,legacy,0,uniform,1,1,right,116,116,116,116,0,0,0,116,116,0,0,0,116,116,116,0,0,116,116,0,29-08-21,29-08-21,11:45:52,Wed Sep 29 2021 11:45:52 GMT+0200 (Central European Summer Time),The main experiment item,yes,0,0,/Users/ethan/Documents/GitHub/OpenSesame/Sternberg/experiment_files,0,0,0,no,mono,no,18,no,white,no,no,768,44,3.6.1,legacy,legacy,6 9 3 1,osweb,1.4.0,1,4,y,36,,0,right,right,right,space,right,right,right,722,15231,47856,16717,19234,17396,722,2,legacy,680,1280,24,720,24,0,0,1280,1632908800806,4,1024,2,48000,-16,experiment,0,even,Win32,1,805208,380279,642246,801925,111,802979,749632,111,16842,109448,807224,803991,807957,111,807224,Sternberg_updated,106,73058,117,yes,1024
90,90,624,624,black,no,experiment,Mozilla,Netscape,"5.0 (Windows NT 10.0; Win64; x64) AppleWebKit/537.36 (KHTML, like Gecko) Chrome/94.0.4606.61 Safari/537.36",legacy,legacy,legacy,0,uniform,0,0,right,117,117,117,117,0,0,0,117,117,0,0,0,117,117,117,0,0,117,117,0,29-08-21,29-08-21,11:45:52,Wed Sep 29 2021 11:45:52 GMT+0200 (Central European Summer Time),The main experiment item,yes,0,0,/Users/ethan/Documents/GitHub/OpenSesame/Sternberg/experiment_files,0,0,0,no,mono,no,18,no,white,no,no,768,44,3.6.1,legacy,legacy,8 9 5 7 1 6,osweb,1.4.0,1,4,y,36,,0,left,right,right,space,right,right,left,593,15231,47856,16717,19234,17396,593,2,legacy,680,1280,24,720,24,0,0,1280,1632908800806,6,1024,2,48000,-16,experiment,0,even,Win32,7,811223,380279,642246,807969,111,808997,749632,111,16842,109448,813240,810007,813840,111,813240,Sternberg_updated,106,73651,118,yes,1024
