acc,accuracy,average_response_time,avg_rt,background,bidi,block,browser_codename,browser_name,browser_version,canvas_backend,clock_backend,color_backend,compensation,coordinates,correct,correct_keyboard_response,correct_response,count_ISI,count_break1,count_break_2,count_correct_feedback,count_credits,count_experiment,count_experimentLoop,count_fixation,count_incorrect_feedback,count_instructions1a,count_instructions1b,count_instructions2,count_keyboard_response,count_memory_set,count_new_logger,count_osweb,count_practiceLoop,count_practiceSequence,count_probe,count_thankYou,date_startdate,date_startdateUTC,date_starttime,datetime,description,disable_garbage_collection,experiment_debug,experiment_parameters,experiment_path,experiment_pilot,experiment_taskname,experiment_taskversion,font_bold,font_family,font_italic,font_size,font_underline,foreground,form_clicks,fullscreen,height,jatosStudyResultId,jatosVersion,keyboard_backend,mouse_backend,numberSet,opensesame_codename,opensesame_version,penwidth,posInSet,present,queryParams_batchId,queryParams_generalMultiple,repeat_cycle,response,response_break1,response_break_2,response_instructions1a,response_instructions1b,response_instructions2,response_keyboard_response,response_time,response_time_break1,response_time_break_2,response_time_instructions1a,response_time_instructions1b,response_time_instructions2,response_time_keyboard_response,round_decimals,sampler_backend,screen_availableHeight,screen_availableWidth,screen_colorDepth,screen_height,screen_pixelDepth,screen_screenX,screen_screenY,screen_width,sessionid,setSize,sound_buf_size,sound_channels,sound_freq,sound_sample_size,start,subject_nr,subject_parity,system_os,target,time_ISI,time_break1,time_break_2,time_correct_feedback,time_experimentLoop,time_fixation,time_incorrect_feedback,time_instructions1a,time_instructions1b,time_instructions2,time_keyboard_response,time_memory_set,time_new_logger,time_practiceLoop,time_probe,title,total_correct,total_response_time,total_responses,uniform_coordinates,width
100,100,697,697,black,no,practice,Mozilla,Netscape,"5.0 (Windows NT 10.0; Win64; x64) AppleWebKit/537.36 (KHTML, like Gecko) Chrome/94.0.4606.61 Safari/537.36",legacy,legacy,legacy,0,uniform,1,1,left,0,0,0,0,0,0,0,0,0,0,0,0,0,0,0,0,0,0,0,0,29-08-21,29-08-21,11:45:42,Wed Sep 29 2021 11:45:42 GMT+0200 (Central European Summer Time),The main experiment item,yes,0,0,/Users/ethan/Documents/GitHub/OpenSesame/Sternberg/experiment_files,0,0,0,no,mono,no,18,no,white,no,no,768,47,3.6.1,legacy,legacy,5,osweb,1.4.0,1,0,n,36,,0,left,,,right,right,,left,697,,,42840,26321,,697,2,legacy,1050,1920,24,1080,24,0,0,1920,1632908744564,1,1024,2,48000,-16,experiment,1,odd,Win32,3,71455,,,,39,69226,,38,42881,,73471,70240,74170,39,73470,Sternberg_updated,1,697,1,yes,1024
100,100,916,916,black,no,practice,Mozilla,Netscape,"5.0 (Windows NT 10.0; Win64; x64) AppleWebKit/537.36 (KHTML, like Gecko) Chrome/94.0.4606.61 Safari/537.36",legacy,legacy,legacy,0,uniform,1,1,left,1,1,1,1,0,0,0,1,1,0,0,0,1,1,1,0,0,1,1,0,29-08-21,29-08-21,11:45:42,Wed Sep 29 2021 11:45:42 GMT+0200 (Central European Summer Time),The main experiment item,yes,0,0,/Users/ethan/Documents/GitHub/OpenSesame/Sternberg/experiment_files,0,0,0,no,mono,no,18,no,white,no,no,768,47,3.6.1,legacy,legacy,5 7 8 4 1 2,osweb,1.4.0,1,0,n,36,,0,left,,,right,right,,left,1135,,,42840,26321,,1135,2,legacy,1050,1920,24,1080,24,0,0,1920,1632908744564,6,1024,2,48000,-16,experiment,1,odd,Win32,6,77434,,,74171,39,75204,,38,42881,,79449,76218,80597,39,79449,Sternberg_updated,2,1832,2,yes,1024
100,100,821,821,black,no,practice,Mozilla,Netscape,"5.0 (Windows NT 10.0; Win64; x64) AppleWebKit/537.36 (KHTML, like Gecko) Chrome/94.0.4606.61 Safari/537.36",legacy,legacy,legacy,0,uniform,1,1,left,2,2,2,2,0,0,0,2,2,0,0,0,2,2,2,0,0,2,2,0,29-08-21,29-08-21,11:45:42,Wed Sep 29 2021 11:45:42 GMT+0200 (Central European Summer Time),The main experiment item,yes,0,0,/Users/ethan/Documents/GitHub/OpenSesame/Sternberg/experiment_files,0,0,0,no,mono,no,18,no,white,no,no,768,47,3.6.1,legacy,legacy,4 1 5,osweb,1.4.0,1,0,n,36,,0,left,,,right,right,,left,631,,,42840,26321,,631,2,legacy,1050,1920,24,1080,24,0,0,1920,1632908744564,3,1024,2,48000,-16,experiment,1,odd,Win32,2,83845,,,80598,39,81623,,38,42881,,85860,82629,86492,39,85860,Sternberg_updated,3,2463,3,yes,1024
100,100,758,758,black,no,practice,Mozilla,Netscape,"5.0 (Windows NT 10.0; Win64; x64) AppleWebKit/537.36 (KHTML, like Gecko) Chrome/94.0.4606.61 Safari/537.36",legacy,legacy,legacy,0,uniform,1,1,left,3,3,3,3,0,0,0,3,3,0,0,0,3,3,3,0,0,3,3,0,29-08-21,29-08-21,11:45:42,Wed Sep 29 2021 11:45:42 GMT+0200 (Central European Summer Time),The main experiment item,yes,0,0,/Users/ethan/Documents/GitHub/OpenSesame/Sternberg/experiment_files,0,0,0,no,mono,no,18,no,white,no,no,768,47,3.6.1,legacy,legacy,3 1 9 4,osweb,1.4.0,1,0,n,36,,0,left,,,right,right,,left,567,,,42840,26321,,567,2,legacy,1050,1920,24,1080,24,0,0,1920,1632908744564,4,1024,2,48000,-16,experiment,1,odd,Win32,6,89739,,,86493,39,87518,,38,42881,,91755,88524,92337,39,91754,Sternberg_updated,4,3030,4,yes,1024
100,100,703,703,black,no,practice,Mozilla,Netscape,"5.0 (Windows NT 10.0; Win64; x64) AppleWebKit/537.36 (KHTML, like Gecko) Chrome/94.0.4606.61 Safari/537.36",legacy,legacy,legacy,0,uniform,1,1,right,4,4,4,4,0,0,0,4,4,0,0,0,4,4,4,0,0,4,4,0,29-08-21,29-08-21,11:45:42,Wed Sep 29 2021 11:45:42 GMT+0200 (Central European Summer Time),The main experiment item,yes,0,0,/Users/ethan/Documents/GitHub/OpenSesame/Sternberg/experiment_files,0,0,0,no,mono,no,18,no,white,no,no,768,47,3.6.1,legacy,legacy,4 8,osweb,1.4.0,1,1,y,36,,0,right,,,right,right,,right,484,,,42840,26321,,484,2,legacy,1050,1920,24,1080,24,0,0,1920,1632908744564,2,1024,2,48000,-16,experiment,1,odd,Win32,4,95584,,,92338,39,93362,,38,42881,,97599,94369,98099,39,97599,Sternberg_updated,5,3514,5,yes,1024
100,100,656,656,black,no,practice,Mozilla,Netscape,"5.0 (Windows NT 10.0; Win64; x64) AppleWebKit/537.36 (KHTML, like Gecko) Chrome/94.0.4606.61 Safari/537.36",legacy,legacy,legacy,0,uniform,1,1,right,5,5,5,5,0,0,0,5,5,0,0,0,5,5,5,0,0,5,5,0,29-08-21,29-08-21,11:45:42,Wed Sep 29 2021 11:45:42 GMT+0200 (Central European Summer Time),The main experiment item,yes,0,0,/Users/ethan/Documents/GitHub/OpenSesame/Sternberg/experiment_files,0,0,0,no,mono,no,18,no,white,no,no,768,47,3.6.1,legacy,legacy,6,osweb,1.4.0,1,1,y,36,,0,right,,,right,right,,right,422,,,42840,26321,,422,2,legacy,1050,1920,24,1080,24,0,0,1920,1632908744564,1,1024,2,48000,-16,experiment,1,odd,Win32,6,101346,,,98099,39,99124,,38,42881,,103361,100130,103794,39,103361,Sternberg_updated,6,3936,6,yes,1024
100,100,651,651,black,no,practice,Mozilla,Netscape,"5.0 (Windows NT 10.0; Win64; x64) AppleWebKit/537.36 (KHTML, like Gecko) Chrome/94.0.4606.61 Safari/537.36",legacy,legacy,legacy,0,uniform,1,1,left,6,6,6,6,0,0,0,6,6,0,0,0,6,6,6,0,0,6,6,0,29-08-21,29-08-21,11:45:42,Wed Sep 29 2021 11:45:42 GMT+0200 (Central European Summer Time),The main experiment item,yes,0,0,/Users/ethan/Documents/GitHub/OpenSesame/Sternberg/experiment_files,0,0,0,no,mono,no,18,no,white,no,no,768,47,3.6.1,legacy,legacy,9 6 7 4 5,osweb,1.4.0,1,0,n,36,,0,left,,,right,right,,left,618,,,42840,26321,,618,2,legacy,1050,1920,24,1080,24,0,0,1920,1632908744564,5,1024,2,48000,-16,experiment,1,odd,Win32,3,107041,,,103794,39,104818,,38,42881,,109056,105825,109689,39,109056,Sternberg_updated,7,4554,7,yes,1024
100,100,637,637,black,no,practice,Mozilla,Netscape,"5.0 (Windows NT 10.0; Win64; x64) AppleWebKit/537.36 (KHTML, like Gecko) Chrome/94.0.4606.61 Safari/537.36",legacy,legacy,legacy,0,uniform,1,1,left,7,7,7,7,0,0,0,7,7,0,0,0,7,7,7,0,0,7,7,0,29-08-21,29-08-21,11:45:42,Wed Sep 29 2021 11:45:42 GMT+0200 (Central European Summer Time),The main experiment item,yes,0,0,/Users/ethan/Documents/GitHub/OpenSesame/Sternberg/experiment_files,0,0,0,no,mono,no,18,no,white,no,no,768,47,3.6.1,legacy,legacy,2 1,osweb,1.4.0,1,0,n,36,,0,left,,,right,right,,left,543,,,42840,26321,,543,2,legacy,1050,1920,24,1080,24,0,0,1920,1632908744564,2,1024,2,48000,-16,experiment,1,odd,Win32,5,112936,,,109689,39,110714,,38,42881,,114951,111720,115500,39,114951,Sternberg_updated,8,5097,8,yes,1024
100,100,647,647,black,no,practice,Mozilla,Netscape,"5.0 (Windows NT 10.0; Win64; x64) AppleWebKit/537.36 (KHTML, like Gecko) Chrome/94.0.4606.61 Safari/537.36",legacy,legacy,legacy,0,uniform,1,1,right,8,8,8,8,0,0,0,8,8,0,0,0,8,8,8,0,0,8,8,0,29-08-21,29-08-21,11:45:42,Wed Sep 29 2021 11:45:42 GMT+0200 (Central European Summer Time),The main experiment item,yes,0,0,/Users/ethan/Documents/GitHub/OpenSesame/Sternberg/experiment_files,0,0,0,no,mono,no,18,no,white,no,no,768,47,3.6.1,legacy,legacy,1 7 9 8 5,osweb,1.4.0,1,4,y,36,,0,right,,,right,right,,right,723,,,42840,26321,,723,2,legacy,1050,1920,24,1080,24,0,0,1920,1632908744564,5,1024,2,48000,-16,experiment,1,odd,Win32,8,118747,,,115501,39,116525,,38,42881,,120762,117532,121495,39,120762,Sternberg_updated,9,5820,9,yes,1024
100,100,678,678,black,no,practice,Mozilla,Netscape,"5.0 (Windows NT 10.0; Win64; x64) AppleWebKit/537.36 (KHTML, like Gecko) Chrome/94.0.4606.61 Safari/537.36",legacy,legacy,legacy,0,uniform,1,1,right,9,9,9,9,0,0,0,9,9,0,0,0,9,9,9,0,0,9,9,0,29-08-21,29-08-21,11:45:42,Wed Sep 29 2021 11:45:42 GMT+0200 (Central European Summer Time),The main experiment item,yes,0,0,/Users/ethan/Documents/GitHub/OpenSesame/Sternberg/experiment_files,0,0,0,no,mono,no,18,no,white,no,no,768,47,3.6.1,legacy,legacy,4 3 1 7 9 8,osweb,1.4.0,1,1,y,36,,0,right,,,right,right,,right,960,,,42840,26321,,960,2,legacy,1050,1920,24,1080,24,0,0,1920,1632908744564,6,1024,2,48000,-16,experiment,1,odd,Win32,4,124742,,,121496,39,122520,,38,42881,,126758,123527,127723,39,126758,Sternberg_updated,10,6780,10,yes,1024
100,100,660,660,black,no,practice,Mozilla,Netscape,"5.0 (Windows NT 10.0; Win64; x64) AppleWebKit/537.36 (KHTML, like Gecko) Chrome/94.0.4606.61 Safari/537.36",legacy,legacy,legacy,0,uniform,1,1,right,10,10,10,10,0,0,0,10,10,0,0,0,10,10,10,0,0,10,10,0,29-08-21,29-08-21,11:45:42,Wed Sep 29 2021 11:45:42 GMT+0200 (Central European Summer Time),The main experiment item,yes,0,0,/Users/ethan/Documents/GitHub/OpenSesame/Sternberg/experiment_files,0,0,0,no,mono,no,18,no,white,no,no,768,47,3.6.1,legacy,legacy,2 9 4,osweb,1.4.0,1,3,y,36,,0,right,,,right,right,,right,476,,,42840,26321,,476,2,legacy,1050,1920,24,1080,24,0,0,1920,1632908744564,3,1024,2,48000,-16,experiment,1,odd,Win32,4,130970,,,127724,39,128747,,38,42881,,132985,129755,133468,39,132985,Sternberg_updated,11,7256,11,yes,1024
100,100,642,642,black,no,practice,Mozilla,Netscape,"5.0 (Windows NT 10.0; Win64; x64) AppleWebKit/537.36 (KHTML, like Gecko) Chrome/94.0.4606.61 Safari/537.36",legacy,legacy,legacy,0,uniform,1,1,right,11,11,11,11,0,0,0,11,11,0,0,0,11,11,11,0,0,11,11,0,29-08-21,29-08-21,11:45:42,Wed Sep 29 2021 11:45:42 GMT+0200 (Central European Summer Time),The main experiment item,yes,0,0,/Users/ethan/Documents/GitHub/OpenSesame/Sternberg/experiment_files,0,0,0,no,mono,no,18,no,white,no,no,768,47,3.6.1,legacy,legacy,1 5 2 9,osweb,1.4.0,1,2,y,36,,0,right,,,right,right,,right,447,,,42840,26321,,447,2,legacy,1050,1920,24,1080,24,0,0,1920,1632908744564,4,1024,2,48000,-16,experiment,1,odd,Win32,5,136715,,,133468,39,134492,,38,42881,,138730,135499,139179,39,138730,Sternberg_updated,12,7703,12,yes,1024
100,100,638,638,black,no,experiment,Mozilla,Netscape,"5.0 (Windows NT 10.0; Win64; x64) AppleWebKit/537.36 (KHTML, like Gecko) Chrome/94.0.4606.61 Safari/537.36",legacy,legacy,legacy,0,uniform,1,1,left,12,12,12,12,0,0,0,12,12,0,0,0,12,12,12,0,0,12,12,0,29-08-21,29-08-21,11:45:42,Wed Sep 29 2021 11:45:42 GMT+0200 (Central European Summer Time),The main experiment item,yes,0,0,/Users/ethan/Documents/GitHub/OpenSesame/Sternberg/experiment_files,0,0,0,no,mono,no,18,no,white,no,no,768,47,3.6.1,legacy,legacy,1,osweb,1.4.0,1,0,n,36,,0,left,,,right,right,right,left,588,,,42840,26321,11977,588,2,legacy,1050,1920,24,1080,24,0,0,1920,1632908744564,1,1024,2,48000,-16,experiment,1,odd,Win32,7,154416,,,139181,39,152194,,38,42881,140196,156431,153201,157030,39,156431,Sternberg_updated,13,8291,13,yes,1024
100,100,654,654,black,no,experiment,Mozilla,Netscape,"5.0 (Windows NT 10.0; Win64; x64) AppleWebKit/537.36 (KHTML, like Gecko) Chrome/94.0.4606.61 Safari/537.36",legacy,legacy,legacy,0,uniform,1,1,left,13,13,13,13,0,0,0,13,13,0,0,0,13,13,13,0,0,13,13,0,29-08-21,29-08-21,11:45:42,Wed Sep 29 2021 11:45:42 GMT+0200 (Central European Summer Time),The main experiment item,yes,0,0,/Users/ethan/Documents/GitHub/OpenSesame/Sternberg/experiment_files,0,0,0,no,mono,no,18,no,white,no,no,768,47,3.6.1,legacy,legacy,4 2 6 9,osweb,1.4.0,1,0,n,36,,0,left,,,right,right,right,left,860,,,42840,26321,11977,860,2,legacy,1050,1920,24,1080,24,0,0,1920,1632908744564,4,1024,2,48000,-16,experiment,1,odd,Win32,7,160278,,,157031,39,158055,,38,42881,140196,162293,159062,163159,39,162293,Sternberg_updated,14,9151,14,yes,1024
100,100,654,654,black,no,experiment,Mozilla,Netscape,"5.0 (Windows NT 10.0; Win64; x64) AppleWebKit/537.36 (KHTML, like Gecko) Chrome/94.0.4606.61 Safari/537.36",legacy,legacy,legacy,0,uniform,1,1,right,14,14,14,14,0,0,0,14,14,0,0,0,14,14,14,0,0,14,14,0,29-08-21,29-08-21,11:45:42,Wed Sep 29 2021 11:45:42 GMT+0200 (Central European Summer Time),The main experiment item,yes,0,0,/Users/ethan/Documents/GitHub/OpenSesame/Sternberg/experiment_files,0,0,0,no,mono,no,18,no,white,no,no,768,47,3.6.1,legacy,legacy,3 2 1 4 7,osweb,1.4.0,1,2,y,36,,0,right,,,right,right,right,right,658,,,42840,26321,11977,658,2,legacy,1050,1920,24,1080,24,0,0,1920,1632908744564,5,1024,2,48000,-16,experiment,1,odd,Win32,2,166406,,,163159,39,164183,,38,42881,140196,168421,165190,169087,39,168421,Sternberg_updated,15,9809,15,yes,1024
94,94,648,648,black,no,experiment,Mozilla,Netscape,"5.0 (Windows NT 10.0; Win64; x64) AppleWebKit/537.36 (KHTML, like Gecko) Chrome/94.0.4606.61 Safari/537.36",legacy,legacy,legacy,0,uniform,0,0,right,15,15,15,15,0,0,0,15,15,0,0,0,15,15,15,0,0,15,15,0,29-08-21,29-08-21,11:45:42,Wed Sep 29 2021 11:45:42 GMT+0200 (Central European Summer Time),The main experiment item,yes,0,0,/Users/ethan/Documents/GitHub/OpenSesame/Sternberg/experiment_files,0,0,0,no,mono,no,18,no,white,no,no,768,47,3.6.1,legacy,legacy,6 2,osweb,1.4.0,1,1,y,36,,0,left,,,right,right,right,left,555,,,42840,26321,11977,555,2,legacy,1050,1920,24,1080,24,0,0,1920,1632908744564,2,1024,2,48000,-16,experiment,1,odd,Win32,6,172334,,,169088,39,170111,,38,42881,140196,174349,171118,174915,39,174349,Sternberg_updated,15,10364,16,yes,1024
94,94,651,651,black,no,experiment,Mozilla,Netscape,"5.0 (Windows NT 10.0; Win64; x64) AppleWebKit/537.36 (KHTML, like Gecko) Chrome/94.0.4606.61 Safari/537.36",legacy,legacy,legacy,0,uniform,1,1,right,16,16,16,16,0,0,0,16,16,0,0,0,16,16,16,0,0,16,16,0,29-08-21,29-08-21,11:45:42,Wed Sep 29 2021 11:45:42 GMT+0200 (Central European Summer Time),The main experiment item,yes,0,0,/Users/ethan/Documents/GitHub/OpenSesame/Sternberg/experiment_files,0,0,0,no,mono,no,18,no,white,no,no,768,47,3.6.1,legacy,legacy,8 9 5 7 1 6,osweb,1.4.0,1,4,y,36,,0,right,,,right,right,right,right,697,,,42840,26321,11977,697,2,legacy,1050,1920,24,1080,24,0,0,1920,1632908744564,6,1024,2,48000,-16,experiment,1,odd,Win32,7,178162,,,169088,39,175942,174916,38,42881,140196,180177,176947,180876,39,180177,Sternberg_updated,16,11061,17,yes,1024
94,94,643,643,black,no,experiment,Mozilla,Netscape,"5.0 (Windows NT 10.0; Win64; x64) AppleWebKit/537.36 (KHTML, like Gecko) Chrome/94.0.4606.61 Safari/537.36",legacy,legacy,legacy,0,uniform,1,1,right,17,17,17,17,0,0,0,17,17,0,0,0,17,17,17,0,0,17,17,0,29-08-21,29-08-21,11:45:42,Wed Sep 29 2021 11:45:42 GMT+0200 (Central European Summer Time),The main experiment item,yes,0,0,/Users/ethan/Documents/GitHub/OpenSesame/Sternberg/experiment_files,0,0,0,no,mono,no,18,no,white,no,no,768,47,3.6.1,legacy,legacy,3 5 4 7,osweb,1.4.0,1,1,y,36,,0,right,,,right,right,right,right,516,,,42840,26321,11977,516,2,legacy,1050,1920,24,1080,24,0,0,1920,1632908744564,4,1024,2,48000,-16,experiment,1,odd,Win32,3,184124,,,180877,39,181901,174916,38,42881,140196,186139,182908,186671,39,186139,Sternberg_updated,17,11577,18,yes,1024
95,95,642,642,black,no,experiment,Mozilla,Netscape,"5.0 (Windows NT 10.0; Win64; x64) AppleWebKit/537.36 (KHTML, like Gecko) Chrome/94.0.4606.61 Safari/537.36",legacy,legacy,legacy,0,uniform,1,1,right,18,18,18,18,0,0,0,18,18,0,0,0,18,18,18,0,0,18,18,0,29-08-21,29-08-21,11:45:42,Wed Sep 29 2021 11:45:42 GMT+0200 (Central European Summer Time),The main experiment item,yes,0,0,/Users/ethan/Documents/GitHub/OpenSesame/Sternberg/experiment_files,0,0,0,no,mono,no,18,no,white,no,no,768,47,3.6.1,legacy,legacy,9 6 2 4 1,osweb,1.4.0,1,4,y,36,,0,right,,,right,right,right,right,616,,,42840,26321,11977,616,2,legacy,1050,1920,24,1080,24,0,0,1920,1632908744564,5,1024,2,48000,-16,experiment,1,odd,Win32,4,189919,,,186672,39,187697,174916,38,42881,140196,191934,188703,192566,39,191934,Sternberg_updated,18,12193,19,yes,1024
95,95,634,634,black,no,experiment,Mozilla,Netscape,"5.0 (Windows NT 10.0; Win64; x64) AppleWebKit/537.36 (KHTML, like Gecko) Chrome/94.0.4606.61 Safari/537.36",legacy,legacy,legacy,0,uniform,1,1,right,19,19,19,19,0,0,0,19,19,0,0,0,19,19,19,0,0,19,19,0,29-08-21,29-08-21,11:45:42,Wed Sep 29 2021 11:45:42 GMT+0200 (Central European Summer Time),The main experiment item,yes,0,0,/Users/ethan/Documents/GitHub/OpenSesame/Sternberg/experiment_files,0,0,0,no,mono,no,18,no,white,no,no,768,47,3.6.1,legacy,legacy,6 5,osweb,1.4.0,1,2,y,36,,0,right,,,right,right,right,right,491,,,42840,26321,11977,491,2,legacy,1050,1920,24,1080,24,0,0,1920,1632908744564,2,1024,2,48000,-16,experiment,1,odd,Win32,5,195813,,,192567,39,193591,174916,38,42881,140196,197829,194598,198328,39,197829,Sternberg_updated,19,12684,20,yes,1024
95,95,643,643,black,no,experiment,Mozilla,Netscape,"5.0 (Windows NT 10.0; Win64; x64) AppleWebKit/537.36 (KHTML, like Gecko) Chrome/94.0.4606.61 Safari/537.36",legacy,legacy,legacy,0,uniform,1,1,right,20,20,20,20,0,0,0,20,20,0,0,0,20,20,20,0,0,20,20,0,29-08-21,29-08-21,11:45:42,Wed Sep 29 2021 11:45:42 GMT+0200 (Central European Summer Time),The main experiment item,yes,0,0,/Users/ethan/Documents/GitHub/OpenSesame/Sternberg/experiment_files,0,0,0,no,mono,no,18,no,white,no,no,768,47,3.6.1,legacy,legacy,6 9 7 4 5 1,osweb,1.4.0,1,2,y,36,,0,right,,,right,right,right,right,823,,,42840,26321,11977,823,2,legacy,1050,1920,24,1080,24,0,0,1920,1632908744564,6,1024,2,48000,-16,experiment,1,odd,Win32,9,201575,,,198328,39,199354,174916,38,42881,140196,203590,200360,204422,39,203590,Sternberg_updated,20,13507,21,yes,1024
95,95,643,643,black,no,experiment,Mozilla,Netscape,"5.0 (Windows NT 10.0; Win64; x64) AppleWebKit/537.36 (KHTML, like Gecko) Chrome/94.0.4606.61 Safari/537.36",legacy,legacy,legacy,0,uniform,1,1,right,21,21,21,21,0,0,0,21,21,0,0,0,21,21,21,0,0,21,21,0,29-08-21,29-08-21,11:45:42,Wed Sep 29 2021 11:45:42 GMT+0200 (Central European Summer Time),The main experiment item,yes,0,0,/Users/ethan/Documents/GitHub/OpenSesame/Sternberg/experiment_files,0,0,0,no,mono,no,18,no,white,no,no,768,47,3.6.1,legacy,legacy,8 1 6,osweb,1.4.0,1,3,y,36,,0,right,,,right,right,right,right,645,,,42840,26321,11977,645,2,legacy,1050,1920,24,1080,24,0,0,1920,1632908744564,3,1024,2,48000,-16,experiment,1,odd,Win32,6,207670,,,204423,39,205447,174916,38,42881,140196,209685,206454,210335,39,209685,Sternberg_updated,21,14152,22,yes,1024
96,96,643,643,black,no,experiment,Mozilla,Netscape,"5.0 (Windows NT 10.0; Win64; x64) AppleWebKit/537.36 (KHTML, like Gecko) Chrome/94.0.4606.61 Safari/537.36",legacy,legacy,legacy,0,uniform,1,1,left,22,22,22,22,0,0,0,22,22,0,0,0,22,22,22,0,0,22,22,0,29-08-21,29-08-21,11:45:42,Wed Sep 29 2021 11:45:42 GMT+0200 (Central European Summer Time),The main experiment item,yes,0,0,/Users/ethan/Documents/GitHub/OpenSesame/Sternberg/experiment_files,0,0,0,no,mono,no,18,no,white,no,no,768,47,3.6.1,legacy,legacy,1 4 3 6 5,osweb,1.4.0,1,0,n,36,,0,left,,,right,right,right,left,630,,,42840,26321,11977,630,2,legacy,1050,1920,24,1080,24,0,0,1920,1632908744564,5,1024,2,48000,-16,experiment,1,odd,Win32,8,213581,,,210336,39,211358,174916,38,42881,140196,215596,212366,216229,39,215596,Sternberg_updated,22,14782,23,yes,1024
96,96,638,638,black,no,experiment,Mozilla,Netscape,"5.0 (Windows NT 10.0; Win64; x64) AppleWebKit/537.36 (KHTML, like Gecko) Chrome/94.0.4606.61 Safari/537.36",legacy,legacy,legacy,0,uniform,1,1,left,23,23,23,23,0,0,0,23,23,0,0,0,23,23,23,0,0,23,23,0,29-08-21,29-08-21,11:45:42,Wed Sep 29 2021 11:45:42 GMT+0200 (Central European Summer Time),The main experiment item,yes,0,0,/Users/ethan/Documents/GitHub/OpenSesame/Sternberg/experiment_files,0,0,0,no,mono,no,18,no,white,no,no,768,47,3.6.1,legacy,legacy,6 8,osweb,1.4.0,1,0,n,36,,0,left,,,right,right,right,left,531,,,42840,26321,11977,531,2,legacy,1050,1920,24,1080,24,0,0,1920,1632908744564,2,1024,2,48000,-16,experiment,1,odd,Win32,9,219476,,,216229,39,217253,174916,38,42881,140196,221491,218260,222024,39,221491,Sternberg_updated,23,15313,24,yes,1024
96,96,642,642,black,no,experiment,Mozilla,Netscape,"5.0 (Windows NT 10.0; Win64; x64) AppleWebKit/537.36 (KHTML, like Gecko) Chrome/94.0.4606.61 Safari/537.36",legacy,legacy,legacy,0,uniform,1,1,right,24,24,24,24,0,0,0,24,24,0,0,0,24,24,24,0,0,24,24,0,29-08-21,29-08-21,11:45:42,Wed Sep 29 2021 11:45:42 GMT+0200 (Central European Summer Time),The main experiment item,yes,0,0,/Users/ethan/Documents/GitHub/OpenSesame/Sternberg/experiment_files,0,0,0,no,mono,no,18,no,white,no,no,768,47,3.6.1,legacy,legacy,2 3 7 4,osweb,1.4.0,1,1,y,36,,0,right,,,right,right,right,right,746,,,42840,26321,11977,746,2,legacy,1050,1920,24,1080,24,0,0,1920,1632908744564,4,1024,2,48000,-16,experiment,1,odd,Win32,2,225271,,,222024,39,223049,174916,38,42881,140196,227286,224055,228035,39,227286,Sternberg_updated,24,16059,25,yes,1024
96,96,639,639,black,no,experiment,Mozilla,Netscape,"5.0 (Windows NT 10.0; Win64; x64) AppleWebKit/537.36 (KHTML, like Gecko) Chrome/94.0.4606.61 Safari/537.36",legacy,legacy,legacy,0,uniform,1,1,left,25,25,25,25,0,0,0,25,25,0,0,0,25,25,25,0,0,25,25,0,29-08-21,29-08-21,11:45:42,Wed Sep 29 2021 11:45:42 GMT+0200 (Central European Summer Time),The main experiment item,yes,0,0,/Users/ethan/Documents/GitHub/OpenSesame/Sternberg/experiment_files,0,0,0,no,mono,no,18,no,white,no,no,768,47,3.6.1,legacy,legacy,4 8 1 2,osweb,1.4.0,1,0,n,36,,0,left,,,right,right,right,left,549,,,42840,26321,11977,549,2,legacy,1050,1920,24,1080,24,0,0,1920,1632908744564,4,1024,2,48000,-16,experiment,1,odd,Win32,7,231282,,,228036,39,229059,174916,38,42881,140196,233297,230067,233847,39,233297,Sternberg_updated,25,16608,26,yes,1024
96,96,647,647,black,no,experiment,Mozilla,Netscape,"5.0 (Windows NT 10.0; Win64; x64) AppleWebKit/537.36 (KHTML, like Gecko) Chrome/94.0.4606.61 Safari/537.36",legacy,legacy,legacy,0,uniform,1,1,left,26,26,26,26,0,0,0,26,26,0,0,0,26,26,26,0,0,26,26,0,29-08-21,29-08-21,11:45:42,Wed Sep 29 2021 11:45:42 GMT+0200 (Central European Summer Time),The main experiment item,yes,0,0,/Users/ethan/Documents/GitHub/OpenSesame/Sternberg/experiment_files,0,0,0,no,mono,no,18,no,white,no,no,768,47,3.6.1,legacy,legacy,1 6 4 3 9 7,osweb,1.4.0,1,0,n,36,,0,left,,,right,right,right,left,864,,,42840,26321,11977,864,2,legacy,1050,1920,24,1080,24,0,0,1920,1632908744564,6,1024,2,48000,-16,experiment,1,odd,Win32,8,237094,,,233847,39,234872,174916,38,42881,140196,239109,235878,239975,39,239109,Sternberg_updated,26,17472,27,yes,1024
96,96,655,655,black,no,experiment,Mozilla,Netscape,"5.0 (Windows NT 10.0; Win64; x64) AppleWebKit/537.36 (KHTML, like Gecko) Chrome/94.0.4606.61 Safari/537.36",legacy,legacy,legacy,0,uniform,1,1,left,27,27,27,27,0,0,0,27,27,0,0,0,27,27,27,0,0,27,27,0,29-08-21,29-08-21,11:45:42,Wed Sep 29 2021 11:45:42 GMT+0200 (Central European Summer Time),The main experiment item,yes,0,0,/Users/ethan/Documents/GitHub/OpenSesame/Sternberg/experiment_files,0,0,0,no,mono,no,18,no,white,no,no,768,47,3.6.1,legacy,legacy,5 9 2 3,osweb,1.4.0,1,0,n,36,,0,left,,,right,right,right,left,866,,,42840,26321,11977,866,2,legacy,1050,1920,24,1080,24,0,0,1920,1632908744564,4,1024,2,48000,-16,experiment,1,odd,Win32,8,243222,,,239975,39,240999,174916,38,42881,140196,245237,242006,246103,39,245237,Sternberg_updated,27,18338,28,yes,1024
97,97,660,660,black,no,experiment,Mozilla,Netscape,"5.0 (Windows NT 10.0; Win64; x64) AppleWebKit/537.36 (KHTML, like Gecko) Chrome/94.0.4606.61 Safari/537.36",legacy,legacy,legacy,0,uniform,1,1,right,28,28,28,28,0,0,0,28,28,0,0,0,28,28,28,0,0,28,28,0,29-08-21,29-08-21,11:45:42,Wed Sep 29 2021 11:45:42 GMT+0200 (Central European Summer Time),The main experiment item,yes,0,0,/Users/ethan/Documents/GitHub/OpenSesame/Sternberg/experiment_files,0,0,0,no,mono,no,18,no,white,no,no,768,47,3.6.1,legacy,legacy,2 4 8 5 1 3,osweb,1.4.0,1,1,y,36,,0,right,,,right,right,right,right,796,,,42840,26321,11977,796,2,legacy,1050,1920,24,1080,24,0,0,1920,1632908744564,6,1024,2,48000,-16,experiment,1,odd,Win32,2,249350,,,246103,39,247127,174916,38,42881,140196,251365,248134,252164,39,251365,Sternberg_updated,28,19134,29,yes,1024
97,97,658,658,black,no,experiment,Mozilla,Netscape,"5.0 (Windows NT 10.0; Win64; x64) AppleWebKit/537.36 (KHTML, like Gecko) Chrome/94.0.4606.61 Safari/537.36",legacy,legacy,legacy,0,uniform,1,1,left,29,29,29,29,0,0,0,29,29,0,0,0,29,29,29,0,0,29,29,0,29-08-21,29-08-21,11:45:42,Wed Sep 29 2021 11:45:42 GMT+0200 (Central European Summer Time),The main experiment item,yes,0,0,/Users/ethan/Documents/GitHub/OpenSesame/Sternberg/experiment_files,0,0,0,no,mono,no,18,no,white,no,no,768,47,3.6.1,legacy,legacy,1 3 2 6 9,osweb,1.4.0,1,0,n,36,,0,left,,,right,right,right,left,619,,,42840,26321,11977,619,2,legacy,1050,1920,24,1080,24,0,0,1920,1632908744564,5,1024,2,48000,-16,experiment,1,odd,Win32,5,255412,,,252165,39,253189,174916,38,42881,140196,257426,254196,258059,39,257426,Sternberg_updated,29,19753,30,yes,1024
97,97,666,666,black,no,experiment,Mozilla,Netscape,"5.0 (Windows NT 10.0; Win64; x64) AppleWebKit/537.36 (KHTML, like Gecko) Chrome/94.0.4606.61 Safari/537.36",legacy,legacy,legacy,0,uniform,1,1,right,30,30,30,30,0,0,0,30,30,0,0,0,30,30,30,0,0,30,30,0,29-08-21,29-08-21,11:45:42,Wed Sep 29 2021 11:45:42 GMT+0200 (Central European Summer Time),The main experiment item,yes,0,0,/Users/ethan/Documents/GitHub/OpenSesame/Sternberg/experiment_files,0,0,0,no,mono,no,18,no,white,no,no,768,47,3.6.1,legacy,legacy,6 9 3 1,osweb,1.4.0,1,4,y,36,,0,right,,,right,right,right,right,892,,,42840,26321,11977,892,2,legacy,1050,1920,24,1080,24,0,0,1920,1632908744564,4,1024,2,48000,-16,experiment,1,odd,Win32,1,261306,,,258060,39,259083,174916,38,42881,140196,263321,260091,264220,39,263321,Sternberg_updated,30,20645,31,yes,1024
97,97,663,663,black,no,experiment,Mozilla,Netscape,"5.0 (Windows NT 10.0; Win64; x64) AppleWebKit/537.36 (KHTML, like Gecko) Chrome/94.0.4606.61 Safari/537.36",legacy,legacy,legacy,0,uniform,1,1,right,31,31,31,31,0,0,0,31,31,0,0,0,31,31,31,0,0,31,31,0,29-08-21,29-08-21,11:45:42,Wed Sep 29 2021 11:45:42 GMT+0200 (Central European Summer Time),The main experiment item,yes,0,0,/Users/ethan/Documents/GitHub/OpenSesame/Sternberg/experiment_files,0,0,0,no,mono,no,18,no,white,no,no,768,47,3.6.1,legacy,legacy,8 9 6 1,osweb,1.4.0,1,2,y,36,,0,right,,,right,right,right,right,565,,,42840,26321,11977,565,2,legacy,1050,1920,24,1080,24,0,0,1920,1632908744564,4,1024,2,48000,-16,experiment,1,odd,Win32,9,267467,,,264221,39,265246,174916,38,42881,140196,269482,266252,270048,39,269482,Sternberg_updated,31,21210,32,yes,1024
97,97,664,664,black,no,experiment,Mozilla,Netscape,"5.0 (Windows NT 10.0; Win64; x64) AppleWebKit/537.36 (KHTML, like Gecko) Chrome/94.0.4606.61 Safari/537.36",legacy,legacy,legacy,0,uniform,1,1,right,32,32,32,32,0,0,0,32,32,0,0,0,32,32,32,0,0,32,32,0,29-08-21,29-08-21,11:45:42,Wed Sep 29 2021 11:45:42 GMT+0200 (Central European Summer Time),The main experiment item,yes,0,0,/Users/ethan/Documents/GitHub/OpenSesame/Sternberg/experiment_files,0,0,0,no,mono,no,18,no,white,no,no,768,47,3.6.1,legacy,legacy,6 7 9 3 1 2,osweb,1.4.0,1,1,y,36,,0,right,,,right,right,right,right,711,,,42840,26321,11977,711,2,legacy,1050,1920,24,1080,24,0,0,1920,1632908744564,6,1024,2,48000,-16,experiment,1,odd,Win32,6,273296,,,270049,39,271073,174916,38,42881,140196,275311,272080,276027,39,275311,Sternberg_updated,32,21921,33,yes,1024
97,97,664,664,black,no,experiment,Mozilla,Netscape,"5.0 (Windows NT 10.0; Win64; x64) AppleWebKit/537.36 (KHTML, like Gecko) Chrome/94.0.4606.61 Safari/537.36",legacy,legacy,legacy,0,uniform,1,1,left,33,33,33,33,0,0,0,33,33,0,0,0,33,33,33,0,0,33,33,0,29-08-21,29-08-21,11:45:42,Wed Sep 29 2021 11:45:42 GMT+0200 (Central European Summer Time),The main experiment item,yes,0,0,/Users/ethan/Documents/GitHub/OpenSesame/Sternberg/experiment_files,0,0,0,no,mono,no,18,no,white,no,no,768,47,3.6.1,legacy,legacy,1 4 9 3,osweb,1.4.0,1,0,n,36,,0,left,,,right,right,right,left,650,,,42840,26321,11977,650,2,legacy,1050,1920,24,1080,24,0,0,1920,1632908744564,4,1024,2,48000,-16,experiment,1,odd,Win32,5,279274,,,276027,39,277051,174916,38,42881,140196,281289,278058,281955,39,281289,Sternberg_updated,33,22571,34,yes,1024
97,97,667,667,black,no,experiment,Mozilla,Netscape,"5.0 (Windows NT 10.0; Win64; x64) AppleWebKit/537.36 (KHTML, like Gecko) Chrome/94.0.4606.61 Safari/537.36",legacy,legacy,legacy,0,uniform,1,1,left,34,34,34,34,0,0,0,34,34,0,0,0,34,34,34,0,0,34,34,0,29-08-21,29-08-21,11:45:42,Wed Sep 29 2021 11:45:42 GMT+0200 (Central European Summer Time),The main experiment item,yes,0,0,/Users/ethan/Documents/GitHub/OpenSesame/Sternberg/experiment_files,0,0,0,no,mono,no,18,no,white,no,no,768,47,3.6.1,legacy,legacy,2 5 1 4,osweb,1.4.0,1,0,n,36,,0,left,,,right,right,right,left,766,,,42840,26321,11977,766,2,legacy,1050,1920,24,1080,24,0,0,1920,1632908744564,4,1024,2,48000,-16,experiment,1,odd,Win32,6,285202,,,281955,39,282978,174916,38,42881,140196,287217,283986,287999,39,287217,Sternberg_updated,34,23337,35,yes,1024
97,97,673,673,black,no,experiment,Mozilla,Netscape,"5.0 (Windows NT 10.0; Win64; x64) AppleWebKit/537.36 (KHTML, like Gecko) Chrome/94.0.4606.61 Safari/537.36",legacy,legacy,legacy,0,uniform,1,1,left,35,35,35,35,0,0,0,35,35,0,0,0,35,35,35,0,0,35,35,0,29-08-21,29-08-21,11:45:42,Wed Sep 29 2021 11:45:42 GMT+0200 (Central European Summer Time),The main experiment item,yes,0,0,/Users/ethan/Documents/GitHub/OpenSesame/Sternberg/experiment_files,0,0,0,no,mono,no,18,no,white,no,no,768,47,3.6.1,legacy,legacy,7 1 8 4 9 3,osweb,1.4.0,1,0,n,36,,0,left,,,right,right,right,left,903,,,42840,26321,11977,903,2,legacy,1050,1920,24,1080,24,0,0,1920,1632908744564,6,1024,2,48000,-16,experiment,1,odd,Win32,6,291247,,,288000,39,289024,174916,38,42881,140196,293262,290031,294177,39,293262,Sternberg_updated,35,24240,36,yes,1024
97,97,675,675,black,no,experiment,Mozilla,Netscape,"5.0 (Windows NT 10.0; Win64; x64) AppleWebKit/537.36 (KHTML, like Gecko) Chrome/94.0.4606.61 Safari/537.36",legacy,legacy,legacy,0,uniform,1,1,left,36,36,36,36,0,0,0,36,36,0,0,0,36,36,36,0,0,36,36,0,29-08-21,29-08-21,11:45:42,Wed Sep 29 2021 11:45:42 GMT+0200 (Central European Summer Time),The main experiment item,yes,0,0,/Users/ethan/Documents/GitHub/OpenSesame/Sternberg/experiment_files,0,0,0,no,mono,no,18,no,white,no,no,768,47,3.6.1,legacy,legacy,1 4 9 2 5,osweb,1.4.0,1,0,n,36,,0,left,,,right,right,right,left,728,,,42840,26321,11977,728,2,legacy,1050,1920,24,1080,24,0,0,1920,1632908744564,5,1024,2,48000,-16,experiment,1,odd,Win32,7,297425,,,294178,39,295202,174916,38,42881,140196,299440,296209,300172,39,299440,Sternberg_updated,36,24968,37,yes,1024
97,97,676,676,black,no,experiment,Mozilla,Netscape,"5.0 (Windows NT 10.0; Win64; x64) AppleWebKit/537.36 (KHTML, like Gecko) Chrome/94.0.4606.61 Safari/537.36",legacy,legacy,legacy,0,uniform,1,1,right,37,37,37,37,0,0,0,37,37,0,0,0,37,37,37,0,0,37,37,0,29-08-21,29-08-21,11:45:42,Wed Sep 29 2021 11:45:42 GMT+0200 (Central European Summer Time),The main experiment item,yes,0,0,/Users/ethan/Documents/GitHub/OpenSesame/Sternberg/experiment_files,0,0,0,no,mono,no,18,no,white,no,no,768,47,3.6.1,legacy,legacy,6 8 9 3 4 9,osweb,1.4.0,1,5,y,36,,0,right,,,right,right,right,right,719,,,42840,26321,11977,719,2,legacy,1050,1920,24,1080,24,0,0,1920,1632908744564,6,1024,2,48000,-16,experiment,1,odd,Win32,4,303419,,,300173,39,301198,174916,38,42881,140196,305434,302204,306167,39,305434,Sternberg_updated,37,25687,38,yes,1024
97,97,678,678,black,no,experiment,Mozilla,Netscape,"5.0 (Windows NT 10.0; Win64; x64) AppleWebKit/537.36 (KHTML, like Gecko) Chrome/94.0.4606.61 Safari/537.36",legacy,legacy,legacy,0,uniform,1,1,left,38,38,38,38,0,0,0,38,38,0,0,0,38,38,38,0,0,38,38,0,29-08-21,29-08-21,11:45:42,Wed Sep 29 2021 11:45:42 GMT+0200 (Central European Summer Time),The main experiment item,yes,0,0,/Users/ethan/Documents/GitHub/OpenSesame/Sternberg/experiment_files,0,0,0,no,mono,no,18,no,white,no,no,768,47,3.6.1,legacy,legacy,1 7 8 3 9,osweb,1.4.0,1,0,n,36,,0,left,,,right,right,right,left,756,,,42840,26321,11977,756,2,legacy,1050,1920,24,1080,24,0,0,1920,1632908744564,5,1024,2,48000,-16,experiment,1,odd,Win32,2,309414,,,306168,39,307191,174916,38,42881,140196,311429,308199,312195,39,311429,Sternberg_updated,38,26443,39,yes,1024
98,98,679,679,black,no,experiment,Mozilla,Netscape,"5.0 (Windows NT 10.0; Win64; x64) AppleWebKit/537.36 (KHTML, like Gecko) Chrome/94.0.4606.61 Safari/537.36",legacy,legacy,legacy,0,uniform,1,1,right,39,39,39,39,0,0,0,39,39,0,0,0,39,39,39,0,0,39,39,0,29-08-21,29-08-21,11:45:42,Wed Sep 29 2021 11:45:42 GMT+0200 (Central European Summer Time),The main experiment item,yes,0,0,/Users/ethan/Documents/GitHub/OpenSesame/Sternberg/experiment_files,0,0,0,no,mono,no,18,no,white,no,no,768,47,3.6.1,legacy,legacy,3 9 7 6 4,osweb,1.4.0,1,3,y,36,,0,right,,,right,right,right,right,716,,,42840,26321,11977,716,2,legacy,1050,1920,24,1080,24,0,0,1920,1632908744564,5,1024,2,48000,-16,experiment,1,odd,Win32,7,315442,,,312195,39,313219,174916,38,42881,140196,317457,314227,318190,39,317457,Sternberg_updated,39,27159,40,yes,1024
98,98,676,676,black,no,experiment,Mozilla,Netscape,"5.0 (Windows NT 10.0; Win64; x64) AppleWebKit/537.36 (KHTML, like Gecko) Chrome/94.0.4606.61 Safari/537.36",legacy,legacy,legacy,0,uniform,1,1,right,40,40,40,40,0,0,0,40,40,0,0,0,40,40,40,0,0,40,40,0,29-08-21,29-08-21,11:45:42,Wed Sep 29 2021 11:45:42 GMT+0200 (Central European Summer Time),The main experiment item,yes,0,0,/Users/ethan/Documents/GitHub/OpenSesame/Sternberg/experiment_files,0,0,0,no,mono,no,18,no,white,no,no,768,47,3.6.1,legacy,legacy,8 7 3,osweb,1.4.0,1,1,y,36,,0,right,,,right,right,right,right,561,,,42840,26321,11977,561,2,legacy,1050,1920,24,1080,24,0,0,1920,1632908744564,3,1024,2,48000,-16,experiment,1,odd,Win32,8,321437,,,318190,39,319216,174916,38,42881,140196,323452,320222,324018,39,323452,Sternberg_updated,40,27720,41,yes,1024
98,98,678,678,black,no,experiment,Mozilla,Netscape,"5.0 (Windows NT 10.0; Win64; x64) AppleWebKit/537.36 (KHTML, like Gecko) Chrome/94.0.4606.61 Safari/537.36",legacy,legacy,legacy,0,uniform,1,1,right,41,41,41,41,0,0,0,41,41,0,0,0,41,41,41,0,0,41,41,0,29-08-21,29-08-21,11:45:42,Wed Sep 29 2021 11:45:42 GMT+0200 (Central European Summer Time),The main experiment item,yes,0,0,/Users/ethan/Documents/GitHub/OpenSesame/Sternberg/experiment_files,0,0,0,no,mono,no,18,no,white,no,no,768,47,3.6.1,legacy,legacy,4 6 2 5 1,osweb,1.4.0,1,5,y,36,,0,right,,,right,right,right,right,752,,,42840,26321,11977,752,2,legacy,1050,1920,24,1080,24,0,0,1920,1632908744564,5,1024,2,48000,-16,experiment,1,odd,Win32,1,327265,,,324019,39,325042,174916,38,42881,140196,329280,326050,330046,39,329280,Sternberg_updated,41,28472,42,yes,1024
98,98,681,681,black,no,experiment,Mozilla,Netscape,"5.0 (Windows NT 10.0; Win64; x64) AppleWebKit/537.36 (KHTML, like Gecko) Chrome/94.0.4606.61 Safari/537.36",legacy,legacy,legacy,0,uniform,1,1,left,42,42,42,42,0,0,0,42,42,0,0,0,42,42,42,0,0,42,42,0,29-08-21,29-08-21,11:45:42,Wed Sep 29 2021 11:45:42 GMT+0200 (Central European Summer Time),The main experiment item,yes,0,0,/Users/ethan/Documents/GitHub/OpenSesame/Sternberg/experiment_files,0,0,0,no,mono,no,18,no,white,no,no,768,47,3.6.1,legacy,legacy,9 8 2 7 4,osweb,1.4.0,1,0,n,36,,0,left,,,right,right,right,left,792,,,42840,26321,11977,792,2,legacy,1050,1920,24,1080,24,0,0,1920,1632908744564,5,1024,2,48000,-16,experiment,1,odd,Win32,5,333293,,,330047,39,331071,174916,38,42881,140196,335308,332078,336107,39,335308,Sternberg_updated,42,29264,43,yes,1024
98,98,681,681,black,no,experiment,Mozilla,Netscape,"5.0 (Windows NT 10.0; Win64; x64) AppleWebKit/537.36 (KHTML, like Gecko) Chrome/94.0.4606.61 Safari/537.36",legacy,legacy,legacy,0,uniform,1,1,right,43,43,43,43,0,0,0,43,43,0,0,0,43,43,43,0,0,43,43,0,29-08-21,29-08-21,11:45:42,Wed Sep 29 2021 11:45:42 GMT+0200 (Central European Summer Time),The main experiment item,yes,0,0,/Users/ethan/Documents/GitHub/OpenSesame/Sternberg/experiment_files,0,0,0,no,mono,no,18,no,white,no,no,768,47,3.6.1,legacy,legacy,6 7 8 5,osweb,1.4.0,1,3,y,36,,0,right,,,right,right,right,right,681,,,42840,26321,11977,681,2,legacy,1050,1920,24,1080,24,0,0,1920,1632908744564,4,1024,2,48000,-16,experiment,1,odd,Win32,8,339355,,,336108,39,337131,174916,38,42881,140196,341370,338139,342052,39,341370,Sternberg_updated,43,29945,44,yes,1024
98,98,688,688,black,no,experiment,Mozilla,Netscape,"5.0 (Windows NT 10.0; Win64; x64) AppleWebKit/537.36 (KHTML, like Gecko) Chrome/94.0.4606.61 Safari/537.36",legacy,legacy,legacy,0,uniform,1,1,right,44,44,44,44,0,0,0,44,44,0,0,0,44,44,44,0,0,44,44,0,29-08-21,29-08-21,11:45:42,Wed Sep 29 2021 11:45:42 GMT+0200 (Central European Summer Time),The main experiment item,yes,0,0,/Users/ethan/Documents/GitHub/OpenSesame/Sternberg/experiment_files,0,0,0,no,mono,no,18,no,white,no,no,768,47,3.6.1,legacy,legacy,7 1 8 5 6 2,osweb,1.4.0,1,2,y,36,,0,right,,,right,right,right,right,1015,,,42840,26321,11977,1015,2,legacy,1050,1920,24,1080,24,0,0,1920,1632908744564,6,1024,2,48000,-16,experiment,1,odd,Win32,1,345299,,,342053,39,343077,174916,38,42881,140196,347314,344084,348330,39,347314,Sternberg_updated,44,30960,45,yes,1024
98,98,690,690,black,no,experiment,Mozilla,Netscape,"5.0 (Windows NT 10.0; Win64; x64) AppleWebKit/537.36 (KHTML, like Gecko) Chrome/94.0.4606.61 Safari/537.36",legacy,legacy,legacy,0,uniform,1,1,right,45,45,45,45,0,0,0,45,45,0,0,0,45,45,45,0,0,45,45,0,29-08-21,29-08-21,11:45:42,Wed Sep 29 2021 11:45:42 GMT+0200 (Central European Summer Time),The main experiment item,yes,0,0,/Users/ethan/Documents/GitHub/OpenSesame/Sternberg/experiment_files,0,0,0,no,mono,no,18,no,white,no,no,768,47,3.6.1,legacy,legacy,4 6 5 8,osweb,1.4.0,1,1,y,36,,0,right,,,right,right,right,right,793,,,42840,26321,11977,793,2,legacy,1050,1920,24,1080,24,0,0,1920,1632908744564,4,1024,2,48000,-16,experiment,1,odd,Win32,4,351577,,,348330,39,349354,174916,38,42881,140196,353592,350362,354391,39,353592,Sternberg_updated,45,31753,46,yes,1024
98,98,692,692,black,no,experiment,Mozilla,Netscape,"5.0 (Windows NT 10.0; Win64; x64) AppleWebKit/537.36 (KHTML, like Gecko) Chrome/94.0.4606.61 Safari/537.36",legacy,legacy,legacy,0,uniform,1,1,left,46,46,46,46,0,0,0,46,46,0,0,0,46,46,46,0,0,46,46,0,29-08-21,29-08-21,11:45:42,Wed Sep 29 2021 11:45:42 GMT+0200 (Central European Summer Time),The main experiment item,yes,0,0,/Users/ethan/Documents/GitHub/OpenSesame/Sternberg/experiment_files,0,0,0,no,mono,no,18,no,white,no,no,768,47,3.6.1,legacy,legacy,2 3 8 5 6 7,osweb,1.4.0,1,0,n,36,,0,left,,,right,right,right,left,789,,,42840,26321,11977,789,2,legacy,1050,1920,24,1080,24,0,0,1920,1632908744564,6,1024,2,48000,-16,experiment,1,odd,Win32,1,357639,,,354392,39,355416,174916,38,42881,140196,359654,356423,360453,39,359654,Sternberg_updated,46,32542,47,yes,1024
98,98,689,689,black,no,experiment,Mozilla,Netscape,"5.0 (Windows NT 10.0; Win64; x64) AppleWebKit/537.36 (KHTML, like Gecko) Chrome/94.0.4606.61 Safari/537.36",legacy,legacy,legacy,0,uniform,1,1,right,47,47,47,47,0,0,0,47,47,0,0,0,47,47,47,0,0,47,47,0,29-08-21,29-08-21,11:45:42,Wed Sep 29 2021 11:45:42 GMT+0200 (Central European Summer Time),The main experiment item,yes,0,0,/Users/ethan/Documents/GitHub/OpenSesame/Sternberg/experiment_files,0,0,0,no,mono,no,18,no,white,no,no,768,47,3.6.1,legacy,legacy,7 4 2 6 3 5,osweb,1.4.0,1,6,y,36,,0,right,,,right,right,right,right,544,,,42840,26321,11977,544,2,legacy,1050,1920,24,1080,24,0,0,1920,1632908744564,6,1024,2,48000,-16,experiment,1,odd,Win32,5,363700,,,360453,39,361478,174916,38,42881,140196,365715,362485,366264,39,365715,Sternberg_updated,47,33086,48,yes,1024
98,98,694,694,black,no,experiment,Mozilla,Netscape,"5.0 (Windows NT 10.0; Win64; x64) AppleWebKit/537.36 (KHTML, like Gecko) Chrome/94.0.4606.61 Safari/537.36",legacy,legacy,legacy,0,uniform,1,1,left,48,48,48,48,0,0,0,48,48,0,0,0,48,48,48,0,0,48,48,0,29-08-21,29-08-21,11:45:42,Wed Sep 29 2021 11:45:42 GMT+0200 (Central European Summer Time),The main experiment item,yes,0,0,/Users/ethan/Documents/GitHub/OpenSesame/Sternberg/experiment_files,0,0,0,no,mono,no,18,no,white,no,no,768,47,3.6.1,legacy,legacy,2 8 7 9 5 3,osweb,1.4.0,1,0,n,36,,0,left,,,right,right,right,left,920,,,42840,26321,11977,920,2,legacy,1050,1920,24,1080,24,0,0,1920,1632908744564,6,1024,2,48000,-16,experiment,1,odd,Win32,6,369512,,,366265,39,367288,174916,38,42881,140196,371527,368296,372459,39,371527,Sternberg_updated,48,34006,49,yes,1024
98,98,693,693,black,no,experiment,Mozilla,Netscape,"5.0 (Windows NT 10.0; Win64; x64) AppleWebKit/537.36 (KHTML, like Gecko) Chrome/94.0.4606.61 Safari/537.36",legacy,legacy,legacy,0,uniform,1,1,right,49,49,49,49,0,0,0,49,49,0,0,0,49,49,49,0,0,49,49,0,29-08-21,29-08-21,11:45:42,Wed Sep 29 2021 11:45:42 GMT+0200 (Central European Summer Time),The main experiment item,yes,0,0,/Users/ethan/Documents/GitHub/OpenSesame/Sternberg/experiment_files,0,0,0,no,mono,no,18,no,white,no,no,768,47,3.6.1,legacy,legacy,4 3 2 5 8,osweb,1.4.0,1,2,y,36,,0,right,,,right,right,right,right,668,,,42840,26321,11977,668,2,legacy,1050,1920,24,1080,24,0,0,1920,1632908744564,5,1024,2,48000,-16,experiment,1,odd,Win32,3,375706,,,372459,39,373484,174916,38,42881,140196,377721,374491,378404,39,377721,Sternberg_updated,49,34674,50,yes,1024
98,98,690,690,black,no,experiment,Mozilla,Netscape,"5.0 (Windows NT 10.0; Win64; x64) AppleWebKit/537.36 (KHTML, like Gecko) Chrome/94.0.4606.61 Safari/537.36",legacy,legacy,legacy,0,uniform,1,1,left,50,50,50,50,0,0,0,50,50,0,0,0,50,50,50,0,0,50,50,0,29-08-21,29-08-21,11:45:42,Wed Sep 29 2021 11:45:42 GMT+0200 (Central European Summer Time),The main experiment item,yes,0,0,/Users/ethan/Documents/GitHub/OpenSesame/Sternberg/experiment_files,0,0,0,no,mono,no,18,no,white,no,no,768,47,3.6.1,legacy,legacy,2 7 5,osweb,1.4.0,1,0,n,36,,0,left,,,right,right,right,left,515,,,42840,26321,11977,515,2,legacy,1050,1920,24,1080,24,0,0,1920,1632908744564,3,1024,2,48000,-16,experiment,1,odd,Win32,8,381651,,,378404,39,379427,174916,38,42881,140196,383666,380436,384182,39,383666,Sternberg_updated,50,35189,51,yes,1024
98,98,685,685,black,no,experiment,Mozilla,Netscape,"5.0 (Windows NT 10.0; Win64; x64) AppleWebKit/537.36 (KHTML, like Gecko) Chrome/94.0.4606.61 Safari/537.36",legacy,legacy,legacy,0,uniform,1,1,right,51,51,51,51,0,0,0,51,51,0,0,0,51,51,51,0,0,51,51,0,29-08-21,29-08-21,11:45:42,Wed Sep 29 2021 11:45:42 GMT+0200 (Central European Summer Time),The main experiment item,yes,0,0,/Users/ethan/Documents/GitHub/OpenSesame/Sternberg/experiment_files,0,0,0,no,mono,no,18,no,white,no,no,768,47,3.6.1,legacy,legacy,2 4 6 9,osweb,1.4.0,1,3,y,36,,0,right,,,right,right,right,right,451,,,42840,26321,11977,451,2,legacy,1050,1920,24,1080,24,0,0,1920,1632908744564,4,1024,2,48000,-16,experiment,1,odd,Win32,6,387429,,,384182,39,385208,174916,38,42881,140196,389444,386214,389910,39,389444,Sternberg_updated,51,35640,52,yes,1024
98,98,685,685,black,no,experiment,Mozilla,Netscape,"5.0 (Windows NT 10.0; Win64; x64) AppleWebKit/537.36 (KHTML, like Gecko) Chrome/94.0.4606.61 Safari/537.36",legacy,legacy,legacy,0,uniform,1,1,right,52,52,52,52,0,0,0,52,52,0,0,0,52,52,52,0,0,52,52,0,29-08-21,29-08-21,11:45:42,Wed Sep 29 2021 11:45:42 GMT+0200 (Central European Summer Time),The main experiment item,yes,0,0,/Users/ethan/Documents/GitHub/OpenSesame/Sternberg/experiment_files,0,0,0,no,mono,no,18,no,white,no,no,768,47,3.6.1,legacy,legacy,2 6 1 7 4,osweb,1.4.0,1,2,y,36,,0,right,,,right,right,right,right,651,,,42840,26321,11977,651,2,legacy,1050,1920,24,1080,24,0,0,1920,1632908744564,5,1024,2,48000,-16,experiment,1,odd,Win32,6,393158,,,389911,39,390935,174916,38,42881,140196,395173,391942,395838,39,395173,Sternberg_updated,52,36291,53,yes,1024
98,98,688,688,black,no,experiment,Mozilla,Netscape,"5.0 (Windows NT 10.0; Win64; x64) AppleWebKit/537.36 (KHTML, like Gecko) Chrome/94.0.4606.61 Safari/537.36",legacy,legacy,legacy,0,uniform,1,1,right,53,53,53,53,0,0,0,53,53,0,0,0,53,53,53,0,0,53,53,0,29-08-21,29-08-21,11:45:42,Wed Sep 29 2021 11:45:42 GMT+0200 (Central European Summer Time),The main experiment item,yes,0,0,/Users/ethan/Documents/GitHub/OpenSesame/Sternberg/experiment_files,0,0,0,no,mono,no,18,no,white,no,no,768,47,3.6.1,legacy,legacy,9 1 6 7 8,osweb,1.4.0,1,1,y,36,,0,right,,,right,right,right,right,834,,,42840,26321,11977,834,2,legacy,1050,1920,24,1080,24,0,0,1920,1632908744564,5,1024,2,48000,-16,experiment,1,odd,Win32,9,399086,,,395839,39,396863,174916,38,42881,140196,401101,397870,401950,39,401101,Sternberg_updated,53,37125,54,yes,1024
98,98,689,689,black,no,experiment,Mozilla,Netscape,"5.0 (Windows NT 10.0; Win64; x64) AppleWebKit/537.36 (KHTML, like Gecko) Chrome/94.0.4606.61 Safari/537.36",legacy,legacy,legacy,0,uniform,1,1,left,54,54,54,54,0,0,0,54,54,0,0,0,54,54,54,0,0,54,54,0,29-08-21,29-08-21,11:45:42,Wed Sep 29 2021 11:45:42 GMT+0200 (Central European Summer Time),The main experiment item,yes,0,0,/Users/ethan/Documents/GitHub/OpenSesame/Sternberg/experiment_files,0,0,0,no,mono,no,18,no,white,no,no,768,47,3.6.1,legacy,legacy,9 7 4 5 8,osweb,1.4.0,1,0,n,36,,0,left,,,right,right,right,left,778,,,42840,26321,11977,778,2,legacy,1050,1920,24,1080,24,0,0,1920,1632908744564,5,1024,2,48000,-16,experiment,1,odd,Win32,6,405197,,,401952,39,402974,174916,38,42881,140196,407212,403982,407994,39,407212,Sternberg_updated,54,37903,55,yes,1024
98,98,687,687,black,no,experiment,Mozilla,Netscape,"5.0 (Windows NT 10.0; Win64; x64) AppleWebKit/537.36 (KHTML, like Gecko) Chrome/94.0.4606.61 Safari/537.36",legacy,legacy,legacy,0,uniform,1,1,left,55,55,55,55,0,0,0,55,55,0,0,0,55,55,55,0,0,55,55,0,29-08-21,29-08-21,11:45:42,Wed Sep 29 2021 11:45:42 GMT+0200 (Central European Summer Time),The main experiment item,yes,0,0,/Users/ethan/Documents/GitHub/OpenSesame/Sternberg/experiment_files,0,0,0,no,mono,no,18,no,white,no,no,768,47,3.6.1,legacy,legacy,1 7 5 2,osweb,1.4.0,1,0,n,36,,0,left,right,,right,right,right,left,569,44900,,42840,26321,11977,569,2,legacy,1050,1920,24,1080,24,0,0,1920,1632908744564,4,1024,2,48000,-16,experiment,1,odd,Win32,3,456152,409011,,407995,39,453929,174916,38,42881,140196,458168,454937,458750,39,458167,Sternberg_updated,55,38472,56,yes,1024
98,98,688,688,black,no,experiment,Mozilla,Netscape,"5.0 (Windows NT 10.0; Win64; x64) AppleWebKit/537.36 (KHTML, like Gecko) Chrome/94.0.4606.61 Safari/537.36",legacy,legacy,legacy,0,uniform,1,1,left,56,56,56,56,0,0,0,56,56,0,0,0,56,56,56,0,0,56,56,0,29-08-21,29-08-21,11:45:42,Wed Sep 29 2021 11:45:42 GMT+0200 (Central European Summer Time),The main experiment item,yes,0,0,/Users/ethan/Documents/GitHub/OpenSesame/Sternberg/experiment_files,0,0,0,no,mono,no,18,no,white,no,no,768,47,3.6.1,legacy,legacy,7 6 4 8 1 2,osweb,1.4.0,1,0,n,36,,0,left,right,,right,right,right,left,762,44900,,42840,26321,11977,762,2,legacy,1050,1920,24,1080,24,0,0,1920,1632908744564,6,1024,2,48000,-16,experiment,1,odd,Win32,9,461997,409011,,458750,39,459774,174916,38,42881,140196,464012,460782,464778,39,464012,Sternberg_updated,56,39234,57,yes,1024
97,97,694,694,black,no,experiment,Mozilla,Netscape,"5.0 (Windows NT 10.0; Win64; x64) AppleWebKit/537.36 (KHTML, like Gecko) Chrome/94.0.4606.61 Safari/537.36",legacy,legacy,legacy,0,uniform,0,0,right,57,57,57,57,0,0,0,57,57,0,0,0,57,57,57,0,0,57,57,0,29-08-21,29-08-21,11:45:42,Wed Sep 29 2021 11:45:42 GMT+0200 (Central European Summer Time),The main experiment item,yes,0,0,/Users/ethan/Documents/GitHub/OpenSesame/Sternberg/experiment_files,0,0,0,no,mono,no,18,no,white,no,no,768,47,3.6.1,legacy,legacy,8 5 3 7 4 6,osweb,1.4.0,1,6,y,36,,0,left,right,,right,right,right,left,995,44900,,42840,26321,11977,995,2,legacy,1050,1920,24,1080,24,0,0,1920,1632908744564,6,1024,2,48000,-16,experiment,1,odd,Win32,6,468025,409011,,464779,39,465803,174916,38,42881,140196,470040,466810,471039,39,470040,Sternberg_updated,56,40229,58,yes,1024
97,97,692,692,black,no,experiment,Mozilla,Netscape,"5.0 (Windows NT 10.0; Win64; x64) AppleWebKit/537.36 (KHTML, like Gecko) Chrome/94.0.4606.61 Safari/537.36",legacy,legacy,legacy,0,uniform,1,1,left,58,58,58,58,0,0,0,58,58,0,0,0,58,58,58,0,0,58,58,0,29-08-21,29-08-21,11:45:42,Wed Sep 29 2021 11:45:42 GMT+0200 (Central European Summer Time),The main experiment item,yes,0,0,/Users/ethan/Documents/GitHub/OpenSesame/Sternberg/experiment_files,0,0,0,no,mono,no,18,no,white,no,no,768,47,3.6.1,legacy,legacy,5 7 3,osweb,1.4.0,1,0,n,36,,0,left,right,,right,right,right,left,588,44900,,42840,26321,11977,588,2,legacy,1050,1920,24,1080,24,0,0,1920,1632908744564,3,1024,2,48000,-16,experiment,1,odd,Win32,9,474287,409011,,464779,39,472064,471040,38,42881,140196,476302,473071,476901,39,476302,Sternberg_updated,57,40817,59,yes,1024
97,97,696,696,black,no,experiment,Mozilla,Netscape,"5.0 (Windows NT 10.0; Win64; x64) AppleWebKit/537.36 (KHTML, like Gecko) Chrome/94.0.4606.61 Safari/537.36",legacy,legacy,legacy,0,uniform,1,1,left,59,59,59,59,0,0,0,59,59,0,0,0,59,59,59,0,0,59,59,0,29-08-21,29-08-21,11:45:42,Wed Sep 29 2021 11:45:42 GMT+0200 (Central European Summer Time),The main experiment item,yes,0,0,/Users/ethan/Documents/GitHub/OpenSesame/Sternberg/experiment_files,0,0,0,no,mono,no,18,no,white,no,no,768,47,3.6.1,legacy,legacy,1 8 7,osweb,1.4.0,1,0,n,36,,0,left,right,,right,right,right,left,969,44900,,42840,26321,11977,969,2,legacy,1050,1920,24,1080,24,0,0,1920,1632908744564,3,1024,2,48000,-16,experiment,1,odd,Win32,4,480148,409011,,476901,39,477926,471040,38,42881,140196,482163,478933,483146,39,482163,Sternberg_updated,58,41786,60,yes,1024
97,97,696,696,black,no,experiment,Mozilla,Netscape,"5.0 (Windows NT 10.0; Win64; x64) AppleWebKit/537.36 (KHTML, like Gecko) Chrome/94.0.4606.61 Safari/537.36",legacy,legacy,legacy,0,uniform,1,1,left,60,60,60,60,0,0,0,60,60,0,0,0,60,60,60,0,0,60,60,0,29-08-21,29-08-21,11:45:42,Wed Sep 29 2021 11:45:42 GMT+0200 (Central European Summer Time),The main experiment item,yes,0,0,/Users/ethan/Documents/GitHub/OpenSesame/Sternberg/experiment_files,0,0,0,no,mono,no,18,no,white,no,no,768,47,3.6.1,legacy,legacy,7 8 6 1,osweb,1.4.0,1,0,n,36,,0,left,right,,right,right,right,left,682,44900,,42840,26321,11977,682,2,legacy,1050,1920,24,1080,24,0,0,1920,1632908744564,4,1024,2,48000,-16,experiment,1,odd,Win32,3,486393,409011,,483146,39,484169,471040,38,42881,140196,488408,485177,489090,39,488408,Sternberg_updated,59,42468,61,yes,1024
97,97,698,698,black,no,experiment,Mozilla,Netscape,"5.0 (Windows NT 10.0; Win64; x64) AppleWebKit/537.36 (KHTML, like Gecko) Chrome/94.0.4606.61 Safari/537.36",legacy,legacy,legacy,0,uniform,1,1,right,61,61,61,61,0,0,0,61,61,0,0,0,61,61,61,0,0,61,61,0,29-08-21,29-08-21,11:45:42,Wed Sep 29 2021 11:45:42 GMT+0200 (Central European Summer Time),The main experiment item,yes,0,0,/Users/ethan/Documents/GitHub/OpenSesame/Sternberg/experiment_files,0,0,0,no,mono,no,18,no,white,no,no,768,47,3.6.1,legacy,legacy,9 5 3 8 4,osweb,1.4.0,1,1,y,36,,0,right,right,,right,right,right,right,785,44900,,42840,26321,11977,785,2,legacy,1050,1920,24,1080,24,0,0,1920,1632908744564,5,1024,2,48000,-16,experiment,1,odd,Win32,9,492338,409011,,489091,39,490115,471040,38,42881,140196,494353,491122,495152,39,494353,Sternberg_updated,60,43253,62,yes,1024
97,97,700,700,black,no,experiment,Mozilla,Netscape,"5.0 (Windows NT 10.0; Win64; x64) AppleWebKit/537.36 (KHTML, like Gecko) Chrome/94.0.4606.61 Safari/537.36",legacy,legacy,legacy,0,uniform,1,1,right,62,62,62,62,0,0,0,62,62,0,0,0,62,62,62,0,0,62,62,0,29-08-21,29-08-21,11:45:42,Wed Sep 29 2021 11:45:42 GMT+0200 (Central European Summer Time),The main experiment item,yes,0,0,/Users/ethan/Documents/GitHub/OpenSesame/Sternberg/experiment_files,0,0,0,no,mono,no,18,no,white,no,no,768,47,3.6.1,legacy,legacy,4 9 7 8 5 3,osweb,1.4.0,1,4,y,36,,0,right,right,,right,right,right,right,841,44900,,42840,26321,11977,841,2,legacy,1050,1920,24,1080,24,0,0,1920,1632908744564,6,1024,2,48000,-16,experiment,1,odd,Win32,8,498399,409011,,495152,39,496177,471040,38,42881,140196,500414,497184,501263,39,500414,Sternberg_updated,61,44094,63,yes,1024
97,97,702,702,black,no,experiment,Mozilla,Netscape,"5.0 (Windows NT 10.0; Win64; x64) AppleWebKit/537.36 (KHTML, like Gecko) Chrome/94.0.4606.61 Safari/537.36",legacy,legacy,legacy,0,uniform,1,1,right,63,63,63,63,0,0,0,63,63,0,0,0,63,63,63,0,0,63,63,0,29-08-21,29-08-21,11:45:42,Wed Sep 29 2021 11:45:42 GMT+0200 (Central European Summer Time),The main experiment item,yes,0,0,/Users/ethan/Documents/GitHub/OpenSesame/Sternberg/experiment_files,0,0,0,no,mono,no,18,no,white,no,no,768,47,3.6.1,legacy,legacy,5 7 3 6 2,osweb,1.4.0,1,5,y,36,,0,right,right,,right,right,right,right,860,44900,,42840,26321,11977,860,2,legacy,1050,1920,24,1080,24,0,0,1920,1632908744564,5,1024,2,48000,-16,experiment,1,odd,Win32,2,504510,409011,,501264,39,502287,471040,38,42881,140196,506525,503295,507391,39,506525,Sternberg_updated,62,44954,64,yes,1024
97,97,700,700,black,no,experiment,Mozilla,Netscape,"5.0 (Windows NT 10.0; Win64; x64) AppleWebKit/537.36 (KHTML, like Gecko) Chrome/94.0.4606.61 Safari/537.36",legacy,legacy,legacy,0,uniform,1,1,right,64,64,64,64,0,0,0,64,64,0,0,0,64,64,64,0,0,64,64,0,29-08-21,29-08-21,11:45:42,Wed Sep 29 2021 11:45:42 GMT+0200 (Central European Summer Time),The main experiment item,yes,0,0,/Users/ethan/Documents/GitHub/OpenSesame/Sternberg/experiment_files,0,0,0,no,mono,no,18,no,white,no,no,768,47,3.6.1,legacy,legacy,8 3,osweb,1.4.0,1,2,y,36,,0,right,right,,right,right,right,right,538,44900,,42840,26321,11977,538,2,legacy,1050,1920,24,1080,24,0,0,1920,1632908744564,2,1024,2,48000,-16,experiment,1,odd,Win32,3,510638,409011,,507392,39,508415,471040,38,42881,140196,512653,509423,513203,39,512653,Sternberg_updated,63,45492,65,yes,1024
97,97,698,698,black,no,experiment,Mozilla,Netscape,"5.0 (Windows NT 10.0; Win64; x64) AppleWebKit/537.36 (KHTML, like Gecko) Chrome/94.0.4606.61 Safari/537.36",legacy,legacy,legacy,0,uniform,1,1,left,65,65,65,65,0,0,0,65,65,0,0,0,65,65,65,0,0,65,65,0,29-08-21,29-08-21,11:45:42,Wed Sep 29 2021 11:45:42 GMT+0200 (Central European Summer Time),The main experiment item,yes,0,0,/Users/ethan/Documents/GitHub/OpenSesame/Sternberg/experiment_files,0,0,0,no,mono,no,18,no,white,no,no,768,47,3.6.1,legacy,legacy,2 8 9 4 1,osweb,1.4.0,1,0,n,36,,0,left,right,,right,right,right,left,587,44900,,42840,26321,11977,587,2,legacy,1050,1920,24,1080,24,0,0,1920,1632908744564,5,1024,2,48000,-16,experiment,1,odd,Win32,5,516450,409011,,513204,39,514226,471040,38,42881,140196,518465,515234,519064,39,518465,Sternberg_updated,64,46079,66,yes,1024
97,97,699,699,black,no,experiment,Mozilla,Netscape,"5.0 (Windows NT 10.0; Win64; x64) AppleWebKit/537.36 (KHTML, like Gecko) Chrome/94.0.4606.61 Safari/537.36",legacy,legacy,legacy,0,uniform,1,1,left,66,66,66,66,0,0,0,66,66,0,0,0,66,66,66,0,0,66,66,0,29-08-21,29-08-21,11:45:42,Wed Sep 29 2021 11:45:42 GMT+0200 (Central European Summer Time),The main experiment item,yes,0,0,/Users/ethan/Documents/GitHub/OpenSesame/Sternberg/experiment_files,0,0,0,no,mono,no,18,no,white,no,no,768,47,3.6.1,legacy,legacy,8 4 3 9,osweb,1.4.0,1,0,n,36,,0,left,right,,right,right,right,left,756,44900,,42840,26321,11977,756,2,legacy,1050,1920,24,1080,24,0,0,1920,1632908744564,4,1024,2,48000,-16,experiment,1,odd,Win32,5,522311,409011,,519065,39,520088,471040,38,42881,140196,524326,521096,525092,39,524326,Sternberg_updated,65,46835,67,yes,1024
97,97,698,698,black,no,experiment,Mozilla,Netscape,"5.0 (Windows NT 10.0; Win64; x64) AppleWebKit/537.36 (KHTML, like Gecko) Chrome/94.0.4606.61 Safari/537.36",legacy,legacy,legacy,0,uniform,1,1,right,67,67,67,67,0,0,0,67,67,0,0,0,67,67,67,0,0,67,67,0,29-08-21,29-08-21,11:45:42,Wed Sep 29 2021 11:45:42 GMT+0200 (Central European Summer Time),The main experiment item,yes,0,0,/Users/ethan/Documents/GitHub/OpenSesame/Sternberg/experiment_files,0,0,0,no,mono,no,18,no,white,no,no,768,47,3.6.1,legacy,legacy,4 1 8 7 5,osweb,1.4.0,1,3,y,36,,0,right,right,,right,right,right,right,614,44900,,42840,26321,11977,614,2,legacy,1050,1920,24,1080,24,0,0,1920,1632908744564,5,1024,2,48000,-16,experiment,1,odd,Win32,8,528339,409011,,525093,39,526117,471040,38,42881,140196,530355,527124,530970,39,530355,Sternberg_updated,66,47449,68,yes,1024
97,97,699,699,black,no,experiment,Mozilla,Netscape,"5.0 (Windows NT 10.0; Win64; x64) AppleWebKit/537.36 (KHTML, like Gecko) Chrome/94.0.4606.61 Safari/537.36",legacy,legacy,legacy,0,uniform,1,1,left,68,68,68,68,0,0,0,68,68,0,0,0,68,68,68,0,0,68,68,0,29-08-21,29-08-21,11:45:42,Wed Sep 29 2021 11:45:42 GMT+0200 (Central European Summer Time),The main experiment item,yes,0,0,/Users/ethan/Documents/GitHub/OpenSesame/Sternberg/experiment_files,0,0,0,no,mono,no,18,no,white,no,no,768,47,3.6.1,legacy,legacy,6 7 5 9,osweb,1.4.0,1,0,n,36,,0,left,right,,right,right,right,left,761,44900,,42840,26321,11977,761,2,legacy,1050,1920,24,1080,24,0,0,1920,1632908744564,4,1024,2,48000,-16,experiment,1,odd,Win32,2,534218,409011,,530971,39,531997,471040,38,42881,140196,536233,533002,536999,39,536233,Sternberg_updated,67,48210,69,yes,1024
97,97,697,697,black,no,experiment,Mozilla,Netscape,"5.0 (Windows NT 10.0; Win64; x64) AppleWebKit/537.36 (KHTML, like Gecko) Chrome/94.0.4606.61 Safari/537.36",legacy,legacy,legacy,0,uniform,1,1,right,69,69,69,69,0,0,0,69,69,0,0,0,69,69,69,0,0,69,69,0,29-08-21,29-08-21,11:45:42,Wed Sep 29 2021 11:45:42 GMT+0200 (Central European Summer Time),The main experiment item,yes,0,0,/Users/ethan/Documents/GitHub/OpenSesame/Sternberg/experiment_files,0,0,0,no,mono,no,18,no,white,no,no,768,47,3.6.1,legacy,legacy,7 8 6 3 1,osweb,1.4.0,1,5,y,36,,0,right,right,,right,right,right,right,576,44900,,42840,26321,11977,576,2,legacy,1050,1920,24,1080,24,0,0,1920,1632908744564,5,1024,2,48000,-16,experiment,1,odd,Win32,1,540246,409011,,536999,39,538023,471040,38,42881,140196,542261,539030,542843,39,542261,Sternberg_updated,68,48786,70,yes,1024
97,97,697,697,black,no,experiment,Mozilla,Netscape,"5.0 (Windows NT 10.0; Win64; x64) AppleWebKit/537.36 (KHTML, like Gecko) Chrome/94.0.4606.61 Safari/537.36",legacy,legacy,legacy,0,uniform,1,1,right,70,70,70,70,0,0,0,70,70,0,0,0,70,70,70,0,0,70,70,0,29-08-21,29-08-21,11:45:42,Wed Sep 29 2021 11:45:42 GMT+0200 (Central European Summer Time),The main experiment item,yes,0,0,/Users/ethan/Documents/GitHub/OpenSesame/Sternberg/experiment_files,0,0,0,no,mono,no,18,no,white,no,no,768,47,3.6.1,legacy,legacy,4 7 6 8 2 3,osweb,1.4.0,1,6,y,36,,0,right,right,,right,right,right,right,726,44900,,42840,26321,11977,726,2,legacy,1050,1920,24,1080,24,0,0,1920,1632908744564,6,1024,2,48000,-16,experiment,1,odd,Win32,3,546091,409011,,542844,39,543868,471040,38,42881,140196,548106,544875,548838,39,548106,Sternberg_updated,69,49512,71,yes,1024
97,97,697,697,black,no,experiment,Mozilla,Netscape,"5.0 (Windows NT 10.0; Win64; x64) AppleWebKit/537.36 (KHTML, like Gecko) Chrome/94.0.4606.61 Safari/537.36",legacy,legacy,legacy,0,uniform,1,1,left,71,71,71,71,0,0,0,71,71,0,0,0,71,71,71,0,0,71,71,0,29-08-21,29-08-21,11:45:42,Wed Sep 29 2021 11:45:42 GMT+0200 (Central European Summer Time),The main experiment item,yes,0,0,/Users/ethan/Documents/GitHub/OpenSesame/Sternberg/experiment_files,0,0,0,no,mono,no,18,no,white,no,no,768,47,3.6.1,legacy,legacy,7 3 2 8,osweb,1.4.0,1,0,n,36,,0,left,right,,right,right,right,left,674,44900,,42840,26321,11977,674,2,legacy,1050,1920,24,1080,24,0,0,1920,1632908744564,4,1024,2,48000,-16,experiment,1,odd,Win32,4,552085,409011,,548839,39,549862,471040,38,42881,140196,554100,550870,554783,39,554100,Sternberg_updated,70,50186,72,yes,1024
97,97,694,694,black,no,experiment,Mozilla,Netscape,"5.0 (Windows NT 10.0; Win64; x64) AppleWebKit/537.36 (KHTML, like Gecko) Chrome/94.0.4606.61 Safari/537.36",legacy,legacy,legacy,0,uniform,1,1,right,72,72,72,72,0,0,0,72,72,0,0,0,72,72,72,0,0,72,72,0,29-08-21,29-08-21,11:45:42,Wed Sep 29 2021 11:45:42 GMT+0200 (Central European Summer Time),The main experiment item,yes,0,0,/Users/ethan/Documents/GitHub/OpenSesame/Sternberg/experiment_files,0,0,0,no,mono,no,18,no,white,no,no,768,47,3.6.1,legacy,legacy,4 1 5,osweb,1.4.0,1,2,y,36,,0,right,right,,right,right,right,right,507,44900,,42840,26321,11977,507,2,legacy,1050,1920,24,1080,24,0,0,1920,1632908744564,3,1024,2,48000,-16,experiment,1,odd,Win32,1,558030,409011,,554783,39,555807,471040,38,42881,140196,560045,556815,560561,39,560045,Sternberg_updated,71,50693,73,yes,1024
97,97,693,693,black,no,experiment,Mozilla,Netscape,"5.0 (Windows NT 10.0; Win64; x64) AppleWebKit/537.36 (KHTML, like Gecko) Chrome/94.0.4606.61 Safari/537.36",legacy,legacy,legacy,0,uniform,1,1,left,73,73,73,73,0,0,0,73,73,0,0,0,73,73,73,0,0,73,73,0,29-08-21,29-08-21,11:45:42,Wed Sep 29 2021 11:45:42 GMT+0200 (Central European Summer Time),The main experiment item,yes,0,0,/Users/ethan/Documents/GitHub/OpenSesame/Sternberg/experiment_files,0,0,0,no,mono,no,18,no,white,no,no,768,47,3.6.1,legacy,legacy,2 8 6 3 1,osweb,1.4.0,1,0,n,36,,0,left,right,,right,right,right,left,609,44900,,42840,26321,11977,609,2,legacy,1050,1920,24,1080,24,0,0,1920,1632908744564,5,1024,2,48000,-16,experiment,1,odd,Win32,7,563808,409011,,560562,39,561585,471040,38,42881,140196,565824,562593,566439,39,565824,Sternberg_updated,72,51302,74,yes,1024
97,97,690,690,black,no,experiment,Mozilla,Netscape,"5.0 (Windows NT 10.0; Win64; x64) AppleWebKit/537.36 (KHTML, like Gecko) Chrome/94.0.4606.61 Safari/537.36",legacy,legacy,legacy,0,uniform,1,1,right,74,74,74,74,0,0,0,74,74,0,0,0,74,74,74,0,0,74,74,0,29-08-21,29-08-21,11:45:42,Wed Sep 29 2021 11:45:42 GMT+0200 (Central European Summer Time),The main experiment item,yes,0,0,/Users/ethan/Documents/GitHub/OpenSesame/Sternberg/experiment_files,0,0,0,no,mono,no,18,no,white,no,no,768,47,3.6.1,legacy,legacy,2 3,osweb,1.4.0,1,1,y,36,,0,right,right,,right,right,right,right,456,44900,,42840,26321,11977,456,2,legacy,1050,1920,24,1080,24,0,0,1920,1632908744564,2,1024,2,48000,-16,experiment,1,odd,Win32,2,569687,409011,,566440,39,567465,471040,38,42881,140196,571702,568471,572168,39,571702,Sternberg_updated,73,51758,75,yes,1024
97,97,692,692,black,no,experiment,Mozilla,Netscape,"5.0 (Windows NT 10.0; Win64; x64) AppleWebKit/537.36 (KHTML, like Gecko) Chrome/94.0.4606.61 Safari/537.36",legacy,legacy,legacy,0,uniform,1,1,left,75,75,75,75,0,0,0,75,75,0,0,0,75,75,75,0,0,75,75,0,29-08-21,29-08-21,11:45:42,Wed Sep 29 2021 11:45:42 GMT+0200 (Central European Summer Time),The main experiment item,yes,0,0,/Users/ethan/Documents/GitHub/OpenSesame/Sternberg/experiment_files,0,0,0,no,mono,no,18,no,white,no,no,768,47,3.6.1,legacy,legacy,6 9 7 3 8 2,osweb,1.4.0,1,0,n,36,,0,left,right,,right,right,right,left,803,44900,,42840,26321,11977,803,2,legacy,1050,1920,24,1080,24,0,0,1920,1632908744564,6,1024,2,48000,-16,experiment,1,odd,Win32,5,575415,409011,,572168,39,573192,471040,38,42881,140196,577430,574199,578246,39,577430,Sternberg_updated,74,52561,76,yes,1024
97,97,689,689,black,no,experiment,Mozilla,Netscape,"5.0 (Windows NT 10.0; Win64; x64) AppleWebKit/537.36 (KHTML, like Gecko) Chrome/94.0.4606.61 Safari/537.36",legacy,legacy,legacy,0,uniform,1,1,right,76,76,76,76,0,0,0,76,76,0,0,0,76,76,76,0,0,76,76,0,29-08-21,29-08-21,11:45:42,Wed Sep 29 2021 11:45:42 GMT+0200 (Central European Summer Time),The main experiment item,yes,0,0,/Users/ethan/Documents/GitHub/OpenSesame/Sternberg/experiment_files,0,0,0,no,mono,no,18,no,white,no,no,768,47,3.6.1,legacy,legacy,9 4 2,osweb,1.4.0,1,1,y,36,,0,right,right,,right,right,right,right,502,44900,,42840,26321,11977,502,2,legacy,1050,1920,24,1080,24,0,0,1920,1632908744564,3,1024,2,48000,-16,experiment,1,odd,Win32,9,581493,409011,,578246,39,579270,471040,38,42881,140196,583508,580278,584024,39,583508,Sternberg_updated,75,53063,77,yes,1024
97,97,687,687,black,no,experiment,Mozilla,Netscape,"5.0 (Windows NT 10.0; Win64; x64) AppleWebKit/537.36 (KHTML, like Gecko) Chrome/94.0.4606.61 Safari/537.36",legacy,legacy,legacy,0,uniform,1,1,left,77,77,77,77,0,0,0,77,77,0,0,0,77,77,77,0,0,77,77,0,29-08-21,29-08-21,11:45:42,Wed Sep 29 2021 11:45:42 GMT+0200 (Central European Summer Time),The main experiment item,yes,0,0,/Users/ethan/Documents/GitHub/OpenSesame/Sternberg/experiment_files,0,0,0,no,mono,no,18,no,white,no,no,768,47,3.6.1,legacy,legacy,3 4 2,osweb,1.4.0,1,0,n,36,,0,left,right,,right,right,right,left,525,44900,,42840,26321,11977,525,2,legacy,1050,1920,24,1080,24,0,0,1920,1632908744564,3,1024,2,48000,-16,experiment,1,odd,Win32,5,587271,409011,,584024,39,585049,471040,38,42881,140196,589287,586056,589819,39,589286,Sternberg_updated,76,53588,78,yes,1024
97,97,686,686,black,no,experiment,Mozilla,Netscape,"5.0 (Windows NT 10.0; Win64; x64) AppleWebKit/537.36 (KHTML, like Gecko) Chrome/94.0.4606.61 Safari/537.36",legacy,legacy,legacy,0,uniform,1,1,right,78,78,78,78,0,0,0,78,78,0,0,0,78,78,78,0,0,78,78,0,29-08-21,29-08-21,11:45:42,Wed Sep 29 2021 11:45:42 GMT+0200 (Central European Summer Time),The main experiment item,yes,0,0,/Users/ethan/Documents/GitHub/OpenSesame/Sternberg/experiment_files,0,0,0,no,mono,no,18,no,white,no,no,768,47,3.6.1,legacy,legacy,7 6,osweb,1.4.0,1,2,y,36,,0,right,right,,right,right,right,right,580,44900,,42840,26321,11977,580,2,legacy,1050,1920,24,1080,24,0,0,1920,1632908744564,2,1024,2,48000,-16,experiment,1,odd,Win32,6,593066,409011,,589820,39,590842,471040,38,42881,140196,595081,591851,595664,39,595081,Sternberg_updated,77,54168,79,yes,1024
98,98,685,685,black,no,experiment,Mozilla,Netscape,"5.0 (Windows NT 10.0; Win64; x64) AppleWebKit/537.36 (KHTML, like Gecko) Chrome/94.0.4606.61 Safari/537.36",legacy,legacy,legacy,0,uniform,1,1,left,79,79,79,79,0,0,0,79,79,0,0,0,79,79,79,0,0,79,79,0,29-08-21,29-08-21,11:45:42,Wed Sep 29 2021 11:45:42 GMT+0200 (Central European Summer Time),The main experiment item,yes,0,0,/Users/ethan/Documents/GitHub/OpenSesame/Sternberg/experiment_files,0,0,0,no,mono,no,18,no,white,no,no,768,47,3.6.1,legacy,legacy,3 9 8 1 6 4,osweb,1.4.0,1,0,n,36,,0,left,right,,right,right,right,left,669,44900,,42840,26321,11977,669,2,legacy,1050,1920,24,1080,24,0,0,1920,1632908744564,6,1024,2,48000,-16,experiment,1,odd,Win32,7,598911,409011,,595665,39,596690,471040,38,42881,140196,600926,597696,601609,39,600926,Sternberg_updated,78,54837,80,yes,1024
98,98,687,687,black,no,experiment,Mozilla,Netscape,"5.0 (Windows NT 10.0; Win64; x64) AppleWebKit/537.36 (KHTML, like Gecko) Chrome/94.0.4606.61 Safari/537.36",legacy,legacy,legacy,0,uniform,1,1,left,80,80,80,80,0,0,0,80,80,0,0,0,80,80,80,0,0,80,80,0,29-08-21,29-08-21,11:45:42,Wed Sep 29 2021 11:45:42 GMT+0200 (Central European Summer Time),The main experiment item,yes,0,0,/Users/ethan/Documents/GitHub/OpenSesame/Sternberg/experiment_files,0,0,0,no,mono,no,18,no,white,no,no,768,47,3.6.1,legacy,legacy,7 4 2 8 1 9,osweb,1.4.0,1,0,n,36,,0,left,right,,right,right,right,left,782,44900,,42840,26321,11977,782,2,legacy,1050,1920,24,1080,24,0,0,1920,1632908744564,6,1024,2,48000,-16,experiment,1,odd,Win32,5,604856,409011,,601609,39,602634,471040,38,42881,140196,606871,603640,607653,39,606871,Sternberg_updated,79,55619,81,yes,1024
98,98,685,685,black,no,experiment,Mozilla,Netscape,"5.0 (Windows NT 10.0; Win64; x64) AppleWebKit/537.36 (KHTML, like Gecko) Chrome/94.0.4606.61 Safari/537.36",legacy,legacy,legacy,0,uniform,1,1,right,81,81,81,81,0,0,0,81,81,0,0,0,81,81,81,0,0,81,81,0,29-08-21,29-08-21,11:45:42,Wed Sep 29 2021 11:45:42 GMT+0200 (Central European Summer Time),The main experiment item,yes,0,0,/Users/ethan/Documents/GitHub/OpenSesame/Sternberg/experiment_files,0,0,0,no,mono,no,18,no,white,no,no,768,47,3.6.1,legacy,legacy,1 4 9 3 2 5,osweb,1.4.0,1,3,y,36,,0,right,right,,right,right,right,right,535,44900,,42840,26321,11977,535,2,legacy,1050,1920,24,1080,24,0,0,1920,1632908744564,6,1024,2,48000,-16,experiment,1,odd,Win32,9,610901,409011,,607654,39,608678,471040,38,42881,140196,612916,609685,613465,39,612916,Sternberg_updated,80,56154,82,yes,1024
98,98,684,684,black,no,experiment,Mozilla,Netscape,"5.0 (Windows NT 10.0; Win64; x64) AppleWebKit/537.36 (KHTML, like Gecko) Chrome/94.0.4606.61 Safari/537.36",legacy,legacy,legacy,0,uniform,1,1,left,82,82,82,82,0,0,0,82,82,0,0,0,82,82,82,0,0,82,82,0,29-08-21,29-08-21,11:45:42,Wed Sep 29 2021 11:45:42 GMT+0200 (Central European Summer Time),The main experiment item,yes,0,0,/Users/ethan/Documents/GitHub/OpenSesame/Sternberg/experiment_files,0,0,0,no,mono,no,18,no,white,no,no,768,47,3.6.1,legacy,legacy,8 5 7 3 6,osweb,1.4.0,1,0,n,36,,0,left,right,,right,right,right,left,646,44900,,42840,26321,11977,646,2,legacy,1050,1920,24,1080,24,0,0,1920,1632908744564,5,1024,2,48000,-16,experiment,1,odd,Win32,9,616712,409011,,613466,39,614489,471040,38,42881,140196,618727,615497,619376,39,618727,Sternberg_updated,81,56800,83,yes,1024
98,98,685,685,black,no,experiment,Mozilla,Netscape,"5.0 (Windows NT 10.0; Win64; x64) AppleWebKit/537.36 (KHTML, like Gecko) Chrome/94.0.4606.61 Safari/537.36",legacy,legacy,legacy,0,uniform,1,1,left,83,83,83,83,0,0,0,83,83,0,0,0,83,83,83,0,0,83,83,0,29-08-21,29-08-21,11:45:42,Wed Sep 29 2021 11:45:42 GMT+0200 (Central European Summer Time),The main experiment item,yes,0,0,/Users/ethan/Documents/GitHub/OpenSesame/Sternberg/experiment_files,0,0,0,no,mono,no,18,no,white,no,no,768,47,3.6.1,legacy,legacy,1 7 5 2 9,osweb,1.4.0,1,0,n,36,,0,left,right,,right,right,right,left,704,44900,,42840,26321,11977,704,2,legacy,1050,1920,24,1080,24,0,0,1920,1632908744564,5,1024,2,48000,-16,experiment,1,odd,Win32,3,622624,409011,,619377,39,620401,471040,38,42881,140196,624639,621408,625355,39,624639,Sternberg_updated,82,57504,84,yes,1024
98,98,685,685,black,no,experiment,Mozilla,Netscape,"5.0 (Windows NT 10.0; Win64; x64) AppleWebKit/537.36 (KHTML, like Gecko) Chrome/94.0.4606.61 Safari/537.36",legacy,legacy,legacy,0,uniform,1,1,right,84,84,84,84,0,0,0,84,84,0,0,0,84,84,84,0,0,84,84,0,29-08-21,29-08-21,11:45:42,Wed Sep 29 2021 11:45:42 GMT+0200 (Central European Summer Time),The main experiment item,yes,0,0,/Users/ethan/Documents/GitHub/OpenSesame/Sternberg/experiment_files,0,0,0,no,mono,no,18,no,white,no,no,768,47,3.6.1,legacy,legacy,7,osweb,1.4.0,1,1,y,36,,0,right,right,,right,right,right,right,726,44900,,42840,26321,11977,726,2,legacy,1050,1920,24,1080,24,0,0,1920,1632908744564,1,1024,2,48000,-16,experiment,1,odd,Win32,7,628602,409011,,625355,39,626379,471040,38,42881,140196,630617,627386,631349,39,630617,Sternberg_updated,83,58230,85,yes,1024
98,98,684,684,black,no,experiment,Mozilla,Netscape,"5.0 (Windows NT 10.0; Win64; x64) AppleWebKit/537.36 (KHTML, like Gecko) Chrome/94.0.4606.61 Safari/537.36",legacy,legacy,legacy,0,uniform,1,1,right,85,85,85,85,0,0,0,85,85,0,0,0,85,85,85,0,0,85,85,0,29-08-21,29-08-21,11:45:42,Wed Sep 29 2021 11:45:42 GMT+0200 (Central European Summer Time),The main experiment item,yes,0,0,/Users/ethan/Documents/GitHub/OpenSesame/Sternberg/experiment_files,0,0,0,no,mono,no,18,no,white,no,no,768,47,3.6.1,legacy,legacy,5 7 8 2 3 8,osweb,1.4.0,1,5,y,36,,0,right,right,,right,right,right,right,553,44900,,42840,26321,11977,553,2,legacy,1050,1920,24,1080,24,0,0,1920,1632908744564,6,1024,2,48000,-16,experiment,1,odd,Win32,3,634597,409011,,631350,39,632374,471040,38,42881,140196,636612,633381,637179,39,636612,Sternberg_updated,84,58783,86,yes,1024
98,98,684,684,black,no,experiment,Mozilla,Netscape,"5.0 (Windows NT 10.0; Win64; x64) AppleWebKit/537.36 (KHTML, like Gecko) Chrome/94.0.4606.61 Safari/537.36",legacy,legacy,legacy,0,uniform,1,1,left,86,86,86,86,0,0,0,86,86,0,0,0,86,86,86,0,0,86,86,0,29-08-21,29-08-21,11:45:42,Wed Sep 29 2021 11:45:42 GMT+0200 (Central European Summer Time),The main experiment item,yes,0,0,/Users/ethan/Documents/GitHub/OpenSesame/Sternberg/experiment_files,0,0,0,no,mono,no,18,no,white,no,no,768,47,3.6.1,legacy,legacy,9 5 3 2 8 6,osweb,1.4.0,1,0,n,36,,0,left,right,,right,right,right,left,692,44900,,42840,26321,11977,692,2,legacy,1050,1920,24,1080,24,0,0,1920,1632908744564,6,1024,2,48000,-16,experiment,1,odd,Win32,7,640425,409011,,637180,39,638203,471040,38,42881,140196,642440,639209,643139,39,642440,Sternberg_updated,85,59475,87,yes,1024
98,98,683,683,black,no,experiment,Mozilla,Netscape,"5.0 (Windows NT 10.0; Win64; x64) AppleWebKit/537.36 (KHTML, like Gecko) Chrome/94.0.4606.61 Safari/537.36",legacy,legacy,legacy,0,uniform,1,1,right,87,87,87,87,0,0,0,87,87,0,0,0,87,87,87,0,0,87,87,0,29-08-21,29-08-21,11:45:42,Wed Sep 29 2021 11:45:42 GMT+0200 (Central European Summer Time),The main experiment item,yes,0,0,/Users/ethan/Documents/GitHub/OpenSesame/Sternberg/experiment_files,0,0,0,no,mono,no,18,no,white,no,no,768,47,3.6.1,legacy,legacy,2 5 4 8 7,osweb,1.4.0,1,3,y,36,,0,right,right,,right,right,right,right,658,44900,,42840,26321,11977,658,2,legacy,1050,1920,24,1080,24,0,0,1920,1632908744564,5,1024,2,48000,-16,experiment,1,odd,Win32,4,646386,409011,,643140,39,644163,471040,38,42881,140196,648401,645171,649067,39,648401,Sternberg_updated,86,60133,88,yes,1024
98,98,685,685,black,no,experiment,Mozilla,Netscape,"5.0 (Windows NT 10.0; Win64; x64) AppleWebKit/537.36 (KHTML, like Gecko) Chrome/94.0.4606.61 Safari/537.36",legacy,legacy,legacy,0,uniform,1,1,right,88,88,88,88,0,0,0,88,88,0,0,0,88,88,88,0,0,88,88,0,29-08-21,29-08-21,11:45:42,Wed Sep 29 2021 11:45:42 GMT+0200 (Central European Summer Time),The main experiment item,yes,0,0,/Users/ethan/Documents/GitHub/OpenSesame/Sternberg/experiment_files,0,0,0,no,mono,no,18,no,white,no,no,768,47,3.6.1,legacy,legacy,9 3 1 2 5,osweb,1.4.0,1,4,y,36,,0,right,right,,right,right,right,right,848,44900,,42840,26321,11977,848,2,legacy,1050,1920,24,1080,24,0,0,1920,1632908744564,5,1024,2,48000,-16,experiment,1,odd,Win32,2,652315,409011,,649068,39,650091,471040,38,42881,140196,654330,651100,655178,39,654330,Sternberg_updated,87,60981,89,yes,1024
98,98,684,684,black,no,experiment,Mozilla,Netscape,"5.0 (Windows NT 10.0; Win64; x64) AppleWebKit/537.36 (KHTML, like Gecko) Chrome/94.0.4606.61 Safari/537.36",legacy,legacy,legacy,0,uniform,1,1,left,89,89,89,89,0,0,0,89,89,0,0,0,89,89,89,0,0,89,89,0,29-08-21,29-08-21,11:45:42,Wed Sep 29 2021 11:45:42 GMT+0200 (Central European Summer Time),The main experiment item,yes,0,0,/Users/ethan/Documents/GitHub/OpenSesame/Sternberg/experiment_files,0,0,0,no,mono,no,18,no,white,no,no,768,47,3.6.1,legacy,legacy,7 1 5 6 3,osweb,1.4.0,1,0,n,36,,0,left,right,,right,right,right,left,614,44900,,42840,26321,11977,614,2,legacy,1050,1920,24,1080,24,0,0,1920,1632908744564,5,1024,2,48000,-16,experiment,1,odd,Win32,8,658426,409011,,655181,39,656204,471040,38,42881,140196,660441,657210,661057,39,660441,Sternberg_updated,88,61595,90,yes,1024
98,98,688,688,black,no,experiment,Mozilla,Netscape,"5.0 (Windows NT 10.0; Win64; x64) AppleWebKit/537.36 (KHTML, like Gecko) Chrome/94.0.4606.61 Safari/537.36",legacy,legacy,legacy,0,uniform,1,1,left,90,90,90,90,0,0,0,90,90,0,0,0,90,90,90,0,0,90,90,0,29-08-21,29-08-21,11:45:42,Wed Sep 29 2021 11:45:42 GMT+0200 (Central European Summer Time),The main experiment item,yes,0,0,/Users/ethan/Documents/GitHub/OpenSesame/Sternberg/experiment_files,0,0,0,no,mono,no,18,no,white,no,no,768,47,3.6.1,legacy,legacy,8 6 3 4 7,osweb,1.4.0,1,0,n,36,,0,left,right,,right,right,right,left,1049,44900,,42840,26321,11977,1049,2,legacy,1050,1920,24,1080,24,0,0,1920,1632908744564,5,1024,2,48000,-16,experiment,1,odd,Win32,1,664304,409011,,661057,39,662081,471040,38,42881,140196,666319,663088,667384,39,666319,Sternberg_updated,89,62644,91,yes,1024
98,98,687,687,black,no,experiment,Mozilla,Netscape,"5.0 (Windows NT 10.0; Win64; x64) AppleWebKit/537.36 (KHTML, like Gecko) Chrome/94.0.4606.61 Safari/537.36",legacy,legacy,legacy,0,uniform,1,1,left,91,91,91,91,0,0,0,91,91,0,0,0,91,91,91,0,0,91,91,0,29-08-21,29-08-21,11:45:42,Wed Sep 29 2021 11:45:42 GMT+0200 (Central European Summer Time),The main experiment item,yes,0,0,/Users/ethan/Documents/GitHub/OpenSesame/Sternberg/experiment_files,0,0,0,no,mono,no,18,no,white,no,no,768,47,3.6.1,legacy,legacy,8 2 1 4 5 9,osweb,1.4.0,1,0,n,36,,0,left,right,,right,right,right,left,573,44900,,42840,26321,11977,573,2,legacy,1050,1920,24,1080,24,0,0,1920,1632908744564,6,1024,2,48000,-16,experiment,1,odd,Win32,7,670632,409011,,667385,39,668413,471040,38,42881,140196,672647,669416,673229,39,672647,Sternberg_updated,90,63217,92,yes,1024
98,98,687,687,black,no,experiment,Mozilla,Netscape,"5.0 (Windows NT 10.0; Win64; x64) AppleWebKit/537.36 (KHTML, like Gecko) Chrome/94.0.4606.61 Safari/537.36",legacy,legacy,legacy,0,uniform,1,1,left,92,92,92,92,0,0,0,92,92,0,0,0,92,92,92,0,0,92,92,0,29-08-21,29-08-21,11:45:42,Wed Sep 29 2021 11:45:42 GMT+0200 (Central European Summer Time),The main experiment item,yes,0,0,/Users/ethan/Documents/GitHub/OpenSesame/Sternberg/experiment_files,0,0,0,no,mono,no,18,no,white,no,no,768,47,3.6.1,legacy,legacy,8 4 3 5,osweb,1.4.0,1,0,n,36,,0,left,right,,right,right,right,left,694,44900,,42840,26321,11977,694,2,legacy,1050,1920,24,1080,24,0,0,1920,1632908744564,4,1024,2,48000,-16,experiment,1,odd,Win32,6,676477,409011,,673230,39,674254,471040,38,42881,140196,678492,675261,679191,39,678492,Sternberg_updated,91,63911,93,yes,1024
98,98,687,687,black,no,experiment,Mozilla,Netscape,"5.0 (Windows NT 10.0; Win64; x64) AppleWebKit/537.36 (KHTML, like Gecko) Chrome/94.0.4606.61 Safari/537.36",legacy,legacy,legacy,0,uniform,1,1,right,93,93,93,93,0,0,0,93,93,0,0,0,93,93,93,0,0,93,93,0,29-08-21,29-08-21,11:45:42,Wed Sep 29 2021 11:45:42 GMT+0200 (Central European Summer Time),The main experiment item,yes,0,0,/Users/ethan/Documents/GitHub/OpenSesame/Sternberg/experiment_files,0,0,0,no,mono,no,18,no,white,no,no,768,47,3.6.1,legacy,legacy,5 2 6,osweb,1.4.0,1,2,y,36,,0,right,right,,right,right,right,right,708,44900,,42840,26321,11977,708,2,legacy,1050,1920,24,1080,24,0,0,1920,1632908744564,3,1024,2,48000,-16,experiment,1,odd,Win32,2,682438,409011,,679192,39,680215,471040,38,42881,140196,684453,681223,685169,39,684453,Sternberg_updated,92,64619,94,yes,1024
98,98,686,686,black,no,experiment,Mozilla,Netscape,"5.0 (Windows NT 10.0; Win64; x64) AppleWebKit/537.36 (KHTML, like Gecko) Chrome/94.0.4606.61 Safari/537.36",legacy,legacy,legacy,0,uniform,1,1,right,94,94,94,94,0,0,0,94,94,0,0,0,94,94,94,0,0,94,94,0,29-08-21,29-08-21,11:45:42,Wed Sep 29 2021 11:45:42 GMT+0200 (Central European Summer Time),The main experiment item,yes,0,0,/Users/ethan/Documents/GitHub/OpenSesame/Sternberg/experiment_files,0,0,0,no,mono,no,18,no,white,no,no,768,47,3.6.1,legacy,legacy,3 5 9 6 2 4,osweb,1.4.0,1,1,y,36,,0,right,right,,right,right,right,right,545,44900,,42840,26321,11977,545,2,legacy,1050,1920,24,1080,24,0,0,1920,1632908744564,6,1024,2,48000,-16,experiment,1,odd,Win32,3,688416,409011,,685169,39,686193,471040,38,42881,140196,690431,687201,690981,39,690431,Sternberg_updated,93,65164,95,yes,1024
98,98,684,684,black,no,experiment,Mozilla,Netscape,"5.0 (Windows NT 10.0; Win64; x64) AppleWebKit/537.36 (KHTML, like Gecko) Chrome/94.0.4606.61 Safari/537.36",legacy,legacy,legacy,0,uniform,1,1,right,95,95,95,95,0,0,0,95,95,0,0,0,95,95,95,0,0,95,95,0,29-08-21,29-08-21,11:45:42,Wed Sep 29 2021 11:45:42 GMT+0200 (Central European Summer Time),The main experiment item,yes,0,0,/Users/ethan/Documents/GitHub/OpenSesame/Sternberg/experiment_files,0,0,0,no,mono,no,18,no,white,no,no,768,47,3.6.1,legacy,legacy,7 8 4 6 9 5,osweb,1.4.0,1,4,y,36,,0,right,right,,right,right,right,right,504,44900,,42840,26321,11977,504,2,legacy,1050,1920,24,1080,24,0,0,1920,1632908744564,6,1024,2,48000,-16,experiment,1,odd,Win32,6,694228,409011,,690981,39,692005,471040,38,42881,140196,696243,693012,696759,39,696243,Sternberg_updated,94,65668,96,yes,1024
98,98,683,683,black,no,experiment,Mozilla,Netscape,"5.0 (Windows NT 10.0; Win64; x64) AppleWebKit/537.36 (KHTML, like Gecko) Chrome/94.0.4606.61 Safari/537.36",legacy,legacy,legacy,0,uniform,1,1,right,96,96,96,96,0,0,0,96,96,0,0,0,96,96,96,0,0,96,96,0,29-08-21,29-08-21,11:45:42,Wed Sep 29 2021 11:45:42 GMT+0200 (Central European Summer Time),The main experiment item,yes,0,0,/Users/ethan/Documents/GitHub/OpenSesame/Sternberg/experiment_files,0,0,0,no,mono,no,18,no,white,no,no,768,47,3.6.1,legacy,legacy,3 4,osweb,1.4.0,1,1,y,36,,0,right,right,,right,right,right,right,538,44900,,42840,26321,11977,538,2,legacy,1050,1920,24,1080,24,0,0,1920,1632908744564,2,1024,2,48000,-16,experiment,1,odd,Win32,3,700006,409011,,696759,39,697786,471040,38,42881,140196,702022,698791,702571,39,702022,Sternberg_updated,95,66206,97,yes,1024
97,97,686,686,black,no,experiment,Mozilla,Netscape,"5.0 (Windows NT 10.0; Win64; x64) AppleWebKit/537.36 (KHTML, like Gecko) Chrome/94.0.4606.61 Safari/537.36",legacy,legacy,legacy,0,uniform,0,0,right,97,97,97,97,0,0,0,97,97,0,0,0,97,97,97,0,0,97,97,0,29-08-21,29-08-21,11:45:42,Wed Sep 29 2021 11:45:42 GMT+0200 (Central European Summer Time),The main experiment item,yes,0,0,/Users/ethan/Documents/GitHub/OpenSesame/Sternberg/experiment_files,0,0,0,no,mono,no,18,no,white,no,no,768,47,3.6.1,legacy,legacy,3 4 9 6 2 9,osweb,1.4.0,1,5,y,36,,0,left,right,right,right,right,right,left,1012,44900,32219,42840,26321,11977,1012,2,legacy,1050,1920,24,1080,24,0,0,1920,1632908744564,6,1024,2,48000,-16,experiment,1,odd,Win32,2,738040,409011,703587,702571,39,735816,471040,38,42881,140196,740055,736824,741070,39,740054,Sternberg_updated,95,67218,98,yes,1024
97,97,685,685,black,no,experiment,Mozilla,Netscape,"5.0 (Windows NT 10.0; Win64; x64) AppleWebKit/537.36 (KHTML, like Gecko) Chrome/94.0.4606.61 Safari/537.36",legacy,legacy,legacy,0,uniform,1,1,right,98,98,98,98,0,0,0,98,98,0,0,0,98,98,98,0,0,98,98,0,29-08-21,29-08-21,11:45:42,Wed Sep 29 2021 11:45:42 GMT+0200 (Central European Summer Time),The main experiment item,yes,0,0,/Users/ethan/Documents/GitHub/OpenSesame/Sternberg/experiment_files,0,0,0,no,mono,no,18,no,white,no,no,768,47,3.6.1,legacy,legacy,8 5 4 7 3 1,osweb,1.4.0,1,2,y,36,,0,right,right,right,right,right,right,right,601,44900,32219,42840,26321,11977,601,2,legacy,1050,1920,24,1080,24,0,0,1920,1632908744564,6,1024,2,48000,-16,experiment,1,odd,Win32,5,744317,409011,703587,702571,39,742097,741070,38,42881,140196,746332,743102,746948,39,746332,Sternberg_updated,96,67819,99,yes,1024
97,97,684,684,black,no,experiment,Mozilla,Netscape,"5.0 (Windows NT 10.0; Win64; x64) AppleWebKit/537.36 (KHTML, like Gecko) Chrome/94.0.4606.61 Safari/537.36",legacy,legacy,legacy,0,uniform,1,1,left,99,99,99,99,0,0,0,99,99,0,0,0,99,99,99,0,0,99,99,0,29-08-21,29-08-21,11:45:42,Wed Sep 29 2021 11:45:42 GMT+0200 (Central European Summer Time),The main experiment item,yes,0,0,/Users/ethan/Documents/GitHub/OpenSesame/Sternberg/experiment_files,0,0,0,no,mono,no,18,no,white,no,no,768,47,3.6.1,legacy,legacy,6 9 4 5 3 2,osweb,1.4.0,1,0,n,36,,0,left,right,right,right,right,right,left,586,44900,32219,42840,26321,11977,586,2,legacy,1050,1920,24,1080,24,0,0,1920,1632908744564,6,1024,2,48000,-16,experiment,1,odd,Win32,8,750196,409011,703587,746949,39,747974,741070,38,42881,140196,752211,748980,752810,39,752211,Sternberg_updated,97,68405,100,yes,1024
97,97,684,684,black,no,experiment,Mozilla,Netscape,"5.0 (Windows NT 10.0; Win64; x64) AppleWebKit/537.36 (KHTML, like Gecko) Chrome/94.0.4606.61 Safari/537.36",legacy,legacy,legacy,0,uniform,1,1,right,100,100,100,100,0,0,0,100,100,0,0,0,100,100,100,0,0,100,100,0,29-08-21,29-08-21,11:45:42,Wed Sep 29 2021 11:45:42 GMT+0200 (Central European Summer Time),The main experiment item,yes,0,0,/Users/ethan/Documents/GitHub/OpenSesame/Sternberg/experiment_files,0,0,0,no,mono,no,18,no,white,no,no,768,47,3.6.1,legacy,legacy,3 5 7 1,osweb,1.4.0,1,3,y,36,,0,right,right,right,right,right,right,right,679,44900,32219,42840,26321,11977,679,2,legacy,1050,1920,24,1080,24,0,0,1920,1632908744564,4,1024,2,48000,-16,experiment,1,odd,Win32,7,756057,409011,703587,752811,39,753834,741070,38,42881,140196,758072,754842,758755,39,758072,Sternberg_updated,98,69084,101,yes,1024
97,97,682,682,black,no,experiment,Mozilla,Netscape,"5.0 (Windows NT 10.0; Win64; x64) AppleWebKit/537.36 (KHTML, like Gecko) Chrome/94.0.4606.61 Safari/537.36",legacy,legacy,legacy,0,uniform,1,1,left,101,101,101,101,0,0,0,101,101,0,0,0,101,101,101,0,0,101,101,0,29-08-21,29-08-21,11:45:42,Wed Sep 29 2021 11:45:42 GMT+0200 (Central European Summer Time),The main experiment item,yes,0,0,/Users/ethan/Documents/GitHub/OpenSesame/Sternberg/experiment_files,0,0,0,no,mono,no,18,no,white,no,no,768,47,3.6.1,legacy,legacy,7 1,osweb,1.4.0,1,0,n,36,,0,left,right,right,right,right,right,left,507,44900,32219,42840,26321,11977,507,2,legacy,1050,1920,24,1080,24,0,0,1920,1632908744564,2,1024,2,48000,-16,experiment,1,odd,Win32,8,762002,409011,703587,758755,39,759780,741070,38,42881,140196,764017,760786,764533,39,764017,Sternberg_updated,99,69591,102,yes,1024
97,97,681,681,black,no,experiment,Mozilla,Netscape,"5.0 (Windows NT 10.0; Win64; x64) AppleWebKit/537.36 (KHTML, like Gecko) Chrome/94.0.4606.61 Safari/537.36",legacy,legacy,legacy,0,uniform,1,1,left,102,102,102,102,0,0,0,102,102,0,0,0,102,102,102,0,0,102,102,0,29-08-21,29-08-21,11:45:42,Wed Sep 29 2021 11:45:42 GMT+0200 (Central European Summer Time),The main experiment item,yes,0,0,/Users/ethan/Documents/GitHub/OpenSesame/Sternberg/experiment_files,0,0,0,no,mono,no,18,no,white,no,no,768,47,3.6.1,legacy,legacy,6 9 5,osweb,1.4.0,1,0,n,36,,0,left,right,right,right,right,right,left,549,44900,32219,42840,26321,11977,549,2,legacy,1050,1920,24,1080,24,0,0,1920,1632908744564,3,1024,2,48000,-16,experiment,1,odd,Win32,8,767780,409011,703587,764533,39,765558,741070,38,42881,140196,769795,766565,770344,39,769795,Sternberg_updated,100,70140,103,yes,1024
97,97,683,683,black,no,experiment,Mozilla,Netscape,"5.0 (Windows NT 10.0; Win64; x64) AppleWebKit/537.36 (KHTML, like Gecko) Chrome/94.0.4606.61 Safari/537.36",legacy,legacy,legacy,0,uniform,1,1,right,103,103,103,103,0,0,0,103,103,0,0,0,103,103,103,0,0,103,103,0,29-08-21,29-08-21,11:45:42,Wed Sep 29 2021 11:45:42 GMT+0200 (Central European Summer Time),The main experiment item,yes,0,0,/Users/ethan/Documents/GitHub/OpenSesame/Sternberg/experiment_files,0,0,0,no,mono,no,18,no,white,no,no,768,47,3.6.1,legacy,legacy,2 8 5 1,osweb,1.4.0,1,4,y,36,,0,right,right,right,right,right,right,right,842,44900,32219,42840,26321,11977,842,2,legacy,1050,1920,24,1080,24,0,0,1920,1632908744564,4,1024,2,48000,-16,experiment,1,odd,Win32,1,773592,409011,703587,770345,39,771369,741070,38,42881,140196,775607,772376,776456,39,775607,Sternberg_updated,101,70982,104,yes,1024
97,97,681,681,black,no,experiment,Mozilla,Netscape,"5.0 (Windows NT 10.0; Win64; x64) AppleWebKit/537.36 (KHTML, like Gecko) Chrome/94.0.4606.61 Safari/537.36",legacy,legacy,legacy,0,uniform,1,1,right,104,104,104,104,0,0,0,104,104,0,0,0,104,104,104,0,0,104,104,0,29-08-21,29-08-21,11:45:42,Wed Sep 29 2021 11:45:42 GMT+0200 (Central European Summer Time),The main experiment item,yes,0,0,/Users/ethan/Documents/GitHub/OpenSesame/Sternberg/experiment_files,0,0,0,no,mono,no,18,no,white,no,no,768,47,3.6.1,legacy,legacy,7 1 3,osweb,1.4.0,1,2,y,36,,0,right,right,right,right,right,right,right,552,44900,32219,42840,26321,11977,552,2,legacy,1050,1920,24,1080,24,0,0,1920,1632908744564,3,1024,2,48000,-16,experiment,1,odd,Win32,1,779703,409011,703587,776457,39,777480,741070,38,42881,140196,781718,778488,782284,39,781718,Sternberg_updated,102,71534,105,yes,1024
96,96,682,682,black,no,experiment,Mozilla,Netscape,"5.0 (Windows NT 10.0; Win64; x64) AppleWebKit/537.36 (KHTML, like Gecko) Chrome/94.0.4606.61 Safari/537.36",legacy,legacy,legacy,0,uniform,0,0,right,105,105,105,105,0,0,0,105,105,0,0,0,105,105,105,0,0,105,105,0,29-08-21,29-08-21,11:45:42,Wed Sep 29 2021 11:45:42 GMT+0200 (Central European Summer Time),The main experiment item,yes,0,0,/Users/ethan/Documents/GitHub/OpenSesame/Sternberg/experiment_files,0,0,0,no,mono,no,18,no,white,no,no,768,47,3.6.1,legacy,legacy,5 2 9 6 1 7,osweb,1.4.0,1,3,y,36,,0,left,right,right,right,right,right,left,805,44900,32219,42840,26321,11977,805,2,legacy,1050,1920,24,1080,24,0,0,1920,1632908744564,6,1024,2,48000,-16,experiment,1,odd,Win32,9,785531,409011,703587,782285,39,783310,741070,38,42881,140196,787546,784316,788362,39,787546,Sternberg_updated,102,72339,106,yes,1024
96,96,684,684,black,no,experiment,Mozilla,Netscape,"5.0 (Windows NT 10.0; Win64; x64) AppleWebKit/537.36 (KHTML, like Gecko) Chrome/94.0.4606.61 Safari/537.36",legacy,legacy,legacy,0,uniform,1,1,left,106,106,106,106,0,0,0,106,106,0,0,0,106,106,106,0,0,106,106,0,29-08-21,29-08-21,11:45:42,Wed Sep 29 2021 11:45:42 GMT+0200 (Central European Summer Time),The main experiment item,yes,0,0,/Users/ethan/Documents/GitHub/OpenSesame/Sternberg/experiment_files,0,0,0,no,mono,no,18,no,white,no,no,768,47,3.6.1,legacy,legacy,1 6 4,osweb,1.4.0,1,0,n,36,,0,left,right,right,right,right,right,left,873,44900,32219,42840,26321,11977,873,2,legacy,1050,1920,24,1080,24,0,0,1920,1632908744564,3,1024,2,48000,-16,experiment,1,odd,Win32,7,791609,409011,703587,782285,39,789386,788363,38,42881,140196,793624,790394,794507,39,793624,Sternberg_updated,103,73212,107,yes,1024
96,96,685,685,black,no,experiment,Mozilla,Netscape,"5.0 (Windows NT 10.0; Win64; x64) AppleWebKit/537.36 (KHTML, like Gecko) Chrome/94.0.4606.61 Safari/537.36",legacy,legacy,legacy,0,uniform,1,1,left,107,107,107,107,0,0,0,107,107,0,0,0,107,107,107,0,0,107,107,0,29-08-21,29-08-21,11:45:42,Wed Sep 29 2021 11:45:42 GMT+0200 (Central European Summer Time),The main experiment item,yes,0,0,/Users/ethan/Documents/GitHub/OpenSesame/Sternberg/experiment_files,0,0,0,no,mono,no,18,no,white,no,no,768,47,3.6.1,legacy,legacy,5 3 8 7 2 4,osweb,1.4.0,1,0,n,36,,0,left,right,right,right,right,right,left,760,44900,32219,42840,26321,11977,760,2,legacy,1050,1920,24,1080,24,0,0,1920,1632908744564,6,1024,2,48000,-16,experiment,1,odd,Win32,9,797754,409011,703587,794508,39,795532,788363,38,42881,140196,799769,796538,800535,39,799769,Sternberg_updated,104,73972,108,yes,1024
96,96,683,683,black,no,experiment,Mozilla,Netscape,"5.0 (Windows NT 10.0; Win64; x64) AppleWebKit/537.36 (KHTML, like Gecko) Chrome/94.0.4606.61 Safari/537.36",legacy,legacy,legacy,0,uniform,1,1,left,108,108,108,108,0,0,0,108,108,0,0,0,108,108,108,0,0,108,108,0,29-08-21,29-08-21,11:45:42,Wed Sep 29 2021 11:45:42 GMT+0200 (Central European Summer Time),The main experiment item,yes,0,0,/Users/ethan/Documents/GitHub/OpenSesame/Sternberg/experiment_files,0,0,0,no,mono,no,18,no,white,no,no,768,47,3.6.1,legacy,legacy,9,osweb,1.4.0,1,0,n,36,,0,left,right,right,right,right,right,left,526,44900,32219,42840,26321,11977,526,2,legacy,1050,1920,24,1080,24,0,0,1920,1632908744564,1,1024,2,48000,-16,experiment,1,odd,Win32,6,803782,409011,703587,800536,39,801559,788363,38,42881,140196,805797,802567,806330,39,805797,Sternberg_updated,105,74498,109,yes,1024
96,96,683,683,black,no,experiment,Mozilla,Netscape,"5.0 (Windows NT 10.0; Win64; x64) AppleWebKit/537.36 (KHTML, like Gecko) Chrome/94.0.4606.61 Safari/537.36",legacy,legacy,legacy,0,uniform,1,1,right,109,109,109,109,0,0,0,109,109,0,0,0,109,109,109,0,0,109,109,0,29-08-21,29-08-21,11:45:42,Wed Sep 29 2021 11:45:42 GMT+0200 (Central European Summer Time),The main experiment item,yes,0,0,/Users/ethan/Documents/GitHub/OpenSesame/Sternberg/experiment_files,0,0,0,no,mono,no,18,no,white,no,no,768,47,3.6.1,legacy,legacy,3 9 6 2,osweb,1.4.0,1,4,y,36,,0,right,right,right,right,right,right,right,628,44900,32219,42840,26321,11977,628,2,legacy,1050,1920,24,1080,24,0,0,1920,1632908744564,4,1024,2,48000,-16,experiment,1,odd,Win32,2,809577,409011,703587,806330,39,807354,788363,38,42881,140196,811592,808361,812225,39,811592,Sternberg_updated,106,75126,110,yes,1024
96,96,684,684,black,no,experiment,Mozilla,Netscape,"5.0 (Windows NT 10.0; Win64; x64) AppleWebKit/537.36 (KHTML, like Gecko) Chrome/94.0.4606.61 Safari/537.36",legacy,legacy,legacy,0,uniform,1,1,right,110,110,110,110,0,0,0,110,110,0,0,0,110,110,110,0,0,110,110,0,29-08-21,29-08-21,11:45:42,Wed Sep 29 2021 11:45:42 GMT+0200 (Central European Summer Time),The main experiment item,yes,0,0,/Users/ethan/Documents/GitHub/OpenSesame/Sternberg/experiment_files,0,0,0,no,mono,no,18,no,white,no,no,768,47,3.6.1,legacy,legacy,9 1 7 2,osweb,1.4.0,1,2,y,36,,0,right,right,right,right,right,right,right,808,44900,32219,42840,26321,11977,808,2,legacy,1050,1920,24,1080,24,0,0,1920,1632908744564,4,1024,2,48000,-16,experiment,1,odd,Win32,1,815472,409011,703587,812225,39,813248,788363,38,42881,140196,817487,814256,818303,39,817487,Sternberg_updated,107,75934,111,yes,1024
96,96,683,683,black,no,experiment,Mozilla,Netscape,"5.0 (Windows NT 10.0; Win64; x64) AppleWebKit/537.36 (KHTML, like Gecko) Chrome/94.0.4606.61 Safari/537.36",legacy,legacy,legacy,0,uniform,1,1,right,111,111,111,111,0,0,0,111,111,0,0,0,111,111,111,0,0,111,111,0,29-08-21,29-08-21,11:45:42,Wed Sep 29 2021 11:45:42 GMT+0200 (Central European Summer Time),The main experiment item,yes,0,0,/Users/ethan/Documents/GitHub/OpenSesame/Sternberg/experiment_files,0,0,0,no,mono,no,18,no,white,no,no,768,47,3.6.1,legacy,legacy,6 1 2,osweb,1.4.0,1,3,y,36,,0,right,right,right,right,right,right,right,515,44900,32219,42840,26321,11977,515,2,legacy,1050,1920,24,1080,24,0,0,1920,1632908744564,3,1024,2,48000,-16,experiment,1,odd,Win32,2,821550,409011,703587,818303,39,819327,788363,38,42881,140196,823565,820335,824081,39,823565,Sternberg_updated,108,76449,112,yes,1024
96,96,680,680,black,no,experiment,Mozilla,Netscape,"5.0 (Windows NT 10.0; Win64; x64) AppleWebKit/537.36 (KHTML, like Gecko) Chrome/94.0.4606.61 Safari/537.36",legacy,legacy,legacy,0,uniform,1,1,right,112,112,112,112,0,0,0,112,112,0,0,0,112,112,112,0,0,112,112,0,29-08-21,29-08-21,11:45:42,Wed Sep 29 2021 11:45:42 GMT+0200 (Central European Summer Time),The main experiment item,yes,0,0,/Users/ethan/Documents/GitHub/OpenSesame/Sternberg/experiment_files,0,0,0,no,mono,no,18,no,white,no,no,768,47,3.6.1,legacy,legacy,4,osweb,1.4.0,1,1,y,36,,0,right,right,right,right,right,right,right,440,44900,32219,42840,26321,11977,440,2,legacy,1050,1920,24,1080,24,0,0,1920,1632908744564,1,1024,2,48000,-16,experiment,1,odd,Win32,4,827328,409011,703587,824081,39,825104,788363,38,42881,140196,829343,826113,829793,39,829343,Sternberg_updated,109,76889,113,yes,1024
96,96,680,680,black,no,experiment,Mozilla,Netscape,"5.0 (Windows NT 10.0; Win64; x64) AppleWebKit/537.36 (KHTML, like Gecko) Chrome/94.0.4606.61 Safari/537.36",legacy,legacy,legacy,0,uniform,1,1,left,113,113,113,113,0,0,0,113,113,0,0,0,113,113,113,0,0,113,113,0,29-08-21,29-08-21,11:45:42,Wed Sep 29 2021 11:45:42 GMT+0200 (Central European Summer Time),The main experiment item,yes,0,0,/Users/ethan/Documents/GitHub/OpenSesame/Sternberg/experiment_files,0,0,0,no,mono,no,18,no,white,no,no,768,47,3.6.1,legacy,legacy,5 2,osweb,1.4.0,1,0,n,36,,0,left,right,right,right,right,right,left,618,44900,32219,42840,26321,11977,618,2,legacy,1050,1920,24,1080,24,0,0,1920,1632908744564,2,1024,2,48000,-16,experiment,1,odd,Win32,7,833040,409011,703587,829793,39,830816,788363,38,42881,140196,835055,831824,835687,39,835055,Sternberg_updated,110,77507,114,yes,1024
97,97,680,680,black,no,experiment,Mozilla,Netscape,"5.0 (Windows NT 10.0; Win64; x64) AppleWebKit/537.36 (KHTML, like Gecko) Chrome/94.0.4606.61 Safari/537.36",legacy,legacy,legacy,0,uniform,1,1,right,114,114,114,114,0,0,0,114,114,0,0,0,114,114,114,0,0,114,114,0,29-08-21,29-08-21,11:45:42,Wed Sep 29 2021 11:45:42 GMT+0200 (Central European Summer Time),The main experiment item,yes,0,0,/Users/ethan/Documents/GitHub/OpenSesame/Sternberg/experiment_files,0,0,0,no,mono,no,18,no,white,no,no,768,47,3.6.1,legacy,legacy,8,osweb,1.4.0,1,1,y,36,,0,right,right,right,right,right,right,right,717,44900,32219,42840,26321,11977,717,2,legacy,1050,1920,24,1080,24,0,0,1920,1632908744564,1,1024,2,48000,-16,experiment,1,odd,Win32,8,838935,409011,703587,835688,39,836711,788363,38,42881,140196,840950,837719,841682,39,840950,Sternberg_updated,111,78224,115,yes,1024
97,97,679,679,black,no,experiment,Mozilla,Netscape,"5.0 (Windows NT 10.0; Win64; x64) AppleWebKit/537.36 (KHTML, like Gecko) Chrome/94.0.4606.61 Safari/537.36",legacy,legacy,legacy,0,uniform,1,1,left,115,115,115,115,0,0,0,115,115,0,0,0,115,115,115,0,0,115,115,0,29-08-21,29-08-21,11:45:42,Wed Sep 29 2021 11:45:42 GMT+0200 (Central European Summer Time),The main experiment item,yes,0,0,/Users/ethan/Documents/GitHub/OpenSesame/Sternberg/experiment_files,0,0,0,no,mono,no,18,no,white,no,no,768,47,3.6.1,legacy,legacy,8 9,osweb,1.4.0,1,0,n,36,,0,left,right,right,right,right,right,left,524,44900,32219,42840,26321,11977,524,2,legacy,1050,1920,24,1080,24,0,0,1920,1632908744564,2,1024,2,48000,-16,experiment,1,odd,Win32,5,844929,409011,703587,841683,39,842706,788363,38,42881,140196,846944,843714,847477,39,846944,Sternberg_updated,112,78748,116,yes,1024
97,97,679,679,black,no,experiment,Mozilla,Netscape,"5.0 (Windows NT 10.0; Win64; x64) AppleWebKit/537.36 (KHTML, like Gecko) Chrome/94.0.4606.61 Safari/537.36",legacy,legacy,legacy,0,uniform,1,1,left,116,116,116,116,0,0,0,116,116,0,0,0,116,116,116,0,0,116,116,0,29-08-21,29-08-21,11:45:42,Wed Sep 29 2021 11:45:42 GMT+0200 (Central European Summer Time),The main experiment item,yes,0,0,/Users/ethan/Documents/GitHub/OpenSesame/Sternberg/experiment_files,0,0,0,no,mono,no,18,no,white,no,no,768,47,3.6.1,legacy,legacy,6 3 1 7 9 8,osweb,1.4.0,1,0,n,36,,0,left,right,right,right,right,right,left,700,44900,32219,42840,26321,11977,700,2,legacy,1050,1920,24,1080,24,0,0,1920,1632908744564,6,1024,2,48000,-16,experiment,1,odd,Win32,4,850724,409011,703587,847478,39,848503,788363,38,42881,140196,852743,849509,853455,39,852743,Sternberg_updated,113,79448,117,yes,1024
97,97,681,681,black,no,experiment,Mozilla,Netscape,"5.0 (Windows NT 10.0; Win64; x64) AppleWebKit/537.36 (KHTML, like Gecko) Chrome/94.0.4606.61 Safari/537.36",legacy,legacy,legacy,0,uniform,1,1,left,117,117,117,117,0,0,0,117,117,0,0,0,117,117,117,0,0,117,117,0,29-08-21,29-08-21,11:45:42,Wed Sep 29 2021 11:45:42 GMT+0200 (Central European Summer Time),The main experiment item,yes,0,0,/Users/ethan/Documents/GitHub/OpenSesame/Sternberg/experiment_files,0,0,0,no,mono,no,18,no,white,no,no,768,47,3.6.1,legacy,legacy,3 4 9 6 7 8,osweb,1.4.0,1,0,n,36,,0,left,right,right,right,right,right,left,873,44900,32219,42840,26321,11977,873,2,legacy,1050,1920,24,1080,24,0,0,1920,1632908744564,6,1024,2,48000,-16,experiment,1,odd,Win32,2,856702,409011,703587,853456,39,854482,788363,38,42881,140196,858718,855487,859600,39,858718,Sternberg_updated,114,80321,118,yes,1024
