acc,accuracy,average_response_time,avg_rt,background,bidi,block,browser_codename,browser_name,browser_version,canvas_backend,clock_backend,color_backend,compensation,coordinates,correct,correct_keyboard_response,correct_response,count_ISI,count_break1,count_break_2,count_correct_feedback,count_credits,count_experiment,count_experimentLoop,count_fixation,count_incorrect_feedback,count_instructions1a,count_instructions1b,count_instructions2,count_keyboard_response,count_memory_set,count_new_logger,count_osweb,count_practiceLoop,count_practiceSequence,count_probe,count_thankYou,date_startdate,date_startdateUTC,date_starttime,datetime,description,disable_garbage_collection,experiment_debug,experiment_parameters,experiment_path,experiment_pilot,experiment_taskname,experiment_taskversion,font_bold,font_family,font_italic,font_size,font_underline,foreground,form_clicks,fullscreen,height,jatosStudyResultId,jatosVersion,keyboard_backend,mouse_backend,numberSet,opensesame_codename,opensesame_version,penwidth,posInSet,present,queryParams_batchId,queryParams_generalMultiple,repeat_cycle,response,response_break1,response_break_2,response_instructions1a,response_instructions1b,response_instructions2,response_keyboard_response,response_time,response_time_break1,response_time_break_2,response_time_instructions1a,response_time_instructions1b,response_time_instructions2,response_time_keyboard_response,round_decimals,sampler_backend,screen_availableHeight,screen_availableWidth,screen_colorDepth,screen_height,screen_pixelDepth,screen_screenX,screen_screenY,screen_width,sessionid,setSize,sound_buf_size,sound_channels,sound_freq,sound_sample_size,start,subject_nr,subject_parity,system_os,target,time_ISI,time_break1,time_break_2,time_correct_feedback,time_experimentLoop,time_fixation,time_incorrect_feedback,time_instructions1a,time_instructions1b,time_instructions2,time_keyboard_response,time_memory_set,time_new_logger,time_practiceLoop,time_probe,title,total_correct,total_response_time,total_responses,uniform_coordinates,width
100,100,657,657,black,no,practice,Mozilla,Netscape,"5.0 (Macintosh; Intel Mac OS X 10_15_7) AppleWebKit/605.1.15 (KHTML, like Gecko) Version/14.1.2 Safari/605.1.15",legacy,legacy,legacy,0,uniform,1,1,left,0,0,0,0,0,0,0,0,0,0,0,0,0,0,0,0,0,0,0,0,29-08-21,29-08-21,11:45:38,Wed Sep 29 2021 11:45:38 GMT+0200 (CEST),The main experiment item,yes,0,0,/Users/ethan/Documents/GitHub/OpenSesame/Sternberg/experiment_files,0,0,0,no,mono,no,18,no,white,no,no,768,48,3.6.1,legacy,legacy,9 6 7 4 5,osweb,1.4.0,1,0,n,36,,0,left,,,right,right,,left,657,,,31654,11733,,657,2,legacy,900,1440,24,900,24,0,0,1440,1632908780728,5,1024,2,48000,-16,experiment,0,even,MacIntel,3,45764,,,,75,43538,,74,31746,,47784,44550,48447,75,47784,Sternberg_updated,1,657,1,yes,1024
100,100,638,638,black,no,practice,Mozilla,Netscape,"5.0 (Macintosh; Intel Mac OS X 10_15_7) AppleWebKit/605.1.15 (KHTML, like Gecko) Version/14.1.2 Safari/605.1.15",legacy,legacy,legacy,0,uniform,1,1,left,1,1,1,1,0,0,0,1,1,0,0,0,1,1,1,0,0,1,1,0,29-08-21,29-08-21,11:45:38,Wed Sep 29 2021 11:45:38 GMT+0200 (CEST),The main experiment item,yes,0,0,/Users/ethan/Documents/GitHub/OpenSesame/Sternberg/experiment_files,0,0,0,no,mono,no,18,no,white,no,no,768,48,3.6.1,legacy,legacy,5,osweb,1.4.0,1,0,n,36,,0,left,,,right,right,,left,619,,,31654,11733,,619,2,legacy,900,1440,24,900,24,0,0,1440,1632908780728,1,1024,2,48000,-16,experiment,0,even,MacIntel,3,51714,,,48454,75,49492,,74,31746,,53733,50499,54364,75,53733,Sternberg_updated,2,1276,2,yes,1024
100,100,581,581,black,no,practice,Mozilla,Netscape,"5.0 (Macintosh; Intel Mac OS X 10_15_7) AppleWebKit/605.1.15 (KHTML, like Gecko) Version/14.1.2 Safari/605.1.15",legacy,legacy,legacy,0,uniform,1,1,right,2,2,2,2,0,0,0,2,2,0,0,0,2,2,2,0,0,2,2,0,29-08-21,29-08-21,11:45:38,Wed Sep 29 2021 11:45:38 GMT+0200 (CEST),The main experiment item,yes,0,0,/Users/ethan/Documents/GitHub/OpenSesame/Sternberg/experiment_files,0,0,0,no,mono,no,18,no,white,no,no,768,48,3.6.1,legacy,legacy,1 5 2 9,osweb,1.4.0,1,2,y,36,,0,right,,,right,right,,right,468,,,31654,11733,,468,2,legacy,900,1440,24,900,24,0,0,1440,1632908780728,4,1024,2,48000,-16,experiment,0,even,MacIntel,5,57631,,,54368,75,55409,,74,31746,,59650,56416,60131,75,59650,Sternberg_updated,3,1744,3,yes,1024
100,100,555,555,black,no,practice,Mozilla,Netscape,"5.0 (Macintosh; Intel Mac OS X 10_15_7) AppleWebKit/605.1.15 (KHTML, like Gecko) Version/14.1.2 Safari/605.1.15",legacy,legacy,legacy,0,uniform,1,1,left,3,3,3,3,0,0,0,3,3,0,0,0,3,3,3,0,0,3,3,0,29-08-21,29-08-21,11:45:38,Wed Sep 29 2021 11:45:38 GMT+0200 (CEST),The main experiment item,yes,0,0,/Users/ethan/Documents/GitHub/OpenSesame/Sternberg/experiment_files,0,0,0,no,mono,no,18,no,white,no,no,768,48,3.6.1,legacy,legacy,4 1 5,osweb,1.4.0,1,0,n,36,,0,left,,,right,right,,left,474,,,31654,11733,,474,2,legacy,900,1440,24,900,24,0,0,1440,1632908780728,3,1024,2,48000,-16,experiment,0,even,MacIntel,2,63398,,,60134,75,61175,,74,31746,,65416,62183,65897,75,65416,Sternberg_updated,4,2218,4,yes,1024
80,80,572,572,black,no,practice,Mozilla,Netscape,"5.0 (Macintosh; Intel Mac OS X 10_15_7) AppleWebKit/605.1.15 (KHTML, like Gecko) Version/14.1.2 Safari/605.1.15",legacy,legacy,legacy,0,uniform,0,0,right,4,4,4,4,0,0,0,4,4,0,0,0,4,4,4,0,0,4,4,0,29-08-21,29-08-21,11:45:38,Wed Sep 29 2021 11:45:38 GMT+0200 (CEST),The main experiment item,yes,0,0,/Users/ethan/Documents/GitHub/OpenSesame/Sternberg/experiment_files,0,0,0,no,mono,no,18,no,white,no,no,768,48,3.6.1,legacy,legacy,4 3 1 7 9 8,osweb,1.4.0,1,1,y,36,,0,left,,,right,right,,left,642,,,31654,11733,,642,2,legacy,900,1440,24,900,24,0,0,1440,1632908780728,6,1024,2,48000,-16,experiment,0,even,MacIntel,4,69165,,,65899,75,66940,,74,31746,,71184,67951,71831,75,71184,Sternberg_updated,4,2860,5,yes,1024
83,83,589,589,black,no,practice,Mozilla,Netscape,"5.0 (Macintosh; Intel Mac OS X 10_15_7) AppleWebKit/605.1.15 (KHTML, like Gecko) Version/14.1.2 Safari/605.1.15",legacy,legacy,legacy,0,uniform,1,1,right,5,5,5,5,0,0,0,5,5,0,0,0,5,5,5,0,0,5,5,0,29-08-21,29-08-21,11:45:38,Wed Sep 29 2021 11:45:38 GMT+0200 (CEST),The main experiment item,yes,0,0,/Users/ethan/Documents/GitHub/OpenSesame/Sternberg/experiment_files,0,0,0,no,mono,no,18,no,white,no,no,768,48,3.6.1,legacy,legacy,4 8,osweb,1.4.0,1,1,y,36,,0,right,,,right,right,,right,672,,,31654,11733,,672,2,legacy,900,1440,24,900,24,0,0,1440,1632908780728,2,1024,2,48000,-16,experiment,0,even,MacIntel,4,75099,,,65899,75,72874,71835,74,31746,,77117,73884,77798,75,77116,Sternberg_updated,5,3532,6,yes,1024
86,86,648,648,black,no,practice,Mozilla,Netscape,"5.0 (Macintosh; Intel Mac OS X 10_15_7) AppleWebKit/605.1.15 (KHTML, like Gecko) Version/14.1.2 Safari/605.1.15",legacy,legacy,legacy,0,uniform,1,1,right,6,6,6,6,0,0,0,6,6,0,0,0,6,6,6,0,0,6,6,0,29-08-21,29-08-21,11:45:38,Wed Sep 29 2021 11:45:38 GMT+0200 (CEST),The main experiment item,yes,0,0,/Users/ethan/Documents/GitHub/OpenSesame/Sternberg/experiment_files,0,0,0,no,mono,no,18,no,white,no,no,768,48,3.6.1,legacy,legacy,1 7 9 8 5,osweb,1.4.0,1,4,y,36,,0,right,,,right,right,,right,1002,,,31654,11733,,1002,2,legacy,900,1440,24,900,24,0,0,1440,1632908780728,5,1024,2,48000,-16,experiment,0,even,MacIntel,8,81066,,,77801,75,78842,71835,74,31746,,83085,79850,84099,75,83085,Sternberg_updated,6,4534,7,yes,1024
88,88,645,645,black,no,practice,Mozilla,Netscape,"5.0 (Macintosh; Intel Mac OS X 10_15_7) AppleWebKit/605.1.15 (KHTML, like Gecko) Version/14.1.2 Safari/605.1.15",legacy,legacy,legacy,0,uniform,1,1,right,7,7,7,7,0,0,0,7,7,0,0,0,7,7,7,0,0,7,7,0,29-08-21,29-08-21,11:45:38,Wed Sep 29 2021 11:45:38 GMT+0200 (CEST),The main experiment item,yes,0,0,/Users/ethan/Documents/GitHub/OpenSesame/Sternberg/experiment_files,0,0,0,no,mono,no,18,no,white,no,no,768,48,3.6.1,legacy,legacy,2 9 4,osweb,1.4.0,1,3,y,36,,0,right,,,right,right,,right,625,,,31654,11733,,625,2,legacy,900,1440,24,900,24,0,0,1440,1632908780728,3,1024,2,48000,-16,experiment,0,even,MacIntel,4,87366,,,84101,75,85142,71835,74,31746,,89386,86151,90016,75,89386,Sternberg_updated,7,5159,8,yes,1024
89,89,653,653,black,no,practice,Mozilla,Netscape,"5.0 (Macintosh; Intel Mac OS X 10_15_7) AppleWebKit/605.1.15 (KHTML, like Gecko) Version/14.1.2 Safari/605.1.15",legacy,legacy,legacy,0,uniform,1,1,left,8,8,8,8,0,0,0,8,8,0,0,0,8,8,8,0,0,8,8,0,29-08-21,29-08-21,11:45:38,Wed Sep 29 2021 11:45:38 GMT+0200 (CEST),The main experiment item,yes,0,0,/Users/ethan/Documents/GitHub/OpenSesame/Sternberg/experiment_files,0,0,0,no,mono,no,18,no,white,no,no,768,48,3.6.1,legacy,legacy,3 1 9 4,osweb,1.4.0,1,0,n,36,,0,left,,,right,right,,left,715,,,31654,11733,,715,2,legacy,900,1440,24,900,24,0,0,1440,1632908780728,4,1024,2,48000,-16,experiment,0,even,MacIntel,6,93284,,,90020,75,91058,71835,74,31746,,95302,92069,96033,75,95302,Sternberg_updated,8,5874,9,yes,1024
90,90,643,643,black,no,practice,Mozilla,Netscape,"5.0 (Macintosh; Intel Mac OS X 10_15_7) AppleWebKit/605.1.15 (KHTML, like Gecko) Version/14.1.2 Safari/605.1.15",legacy,legacy,legacy,0,uniform,1,1,right,9,9,9,9,0,0,0,9,9,0,0,0,9,9,9,0,0,9,9,0,29-08-21,29-08-21,11:45:38,Wed Sep 29 2021 11:45:38 GMT+0200 (CEST),The main experiment item,yes,0,0,/Users/ethan/Documents/GitHub/OpenSesame/Sternberg/experiment_files,0,0,0,no,mono,no,18,no,white,no,no,768,48,3.6.1,legacy,legacy,6,osweb,1.4.0,1,1,y,36,,0,right,,,right,right,,right,558,,,31654,11733,,558,2,legacy,900,1440,24,900,24,0,0,1440,1632908780728,1,1024,2,48000,-16,experiment,0,even,MacIntel,6,99300,,,96037,75,97076,71835,74,31746,,101319,98086,101883,75,101319,Sternberg_updated,9,6432,10,yes,1024
91,91,642,642,black,no,practice,Mozilla,Netscape,"5.0 (Macintosh; Intel Mac OS X 10_15_7) AppleWebKit/605.1.15 (KHTML, like Gecko) Version/14.1.2 Safari/605.1.15",legacy,legacy,legacy,0,uniform,1,1,left,10,10,10,10,0,0,0,10,10,0,0,0,10,10,10,0,0,10,10,0,29-08-21,29-08-21,11:45:38,Wed Sep 29 2021 11:45:38 GMT+0200 (CEST),The main experiment item,yes,0,0,/Users/ethan/Documents/GitHub/OpenSesame/Sternberg/experiment_files,0,0,0,no,mono,no,18,no,white,no,no,768,48,3.6.1,legacy,legacy,5 7 8 4 1 2,osweb,1.4.0,1,0,n,36,,0,left,,,right,right,,left,634,,,31654,11733,,634,2,legacy,900,1440,24,900,24,0,0,1440,1632908780728,6,1024,2,48000,-16,experiment,0,even,MacIntel,6,105151,,,101886,75,102926,71835,74,31746,,107170,103936,107817,75,107170,Sternberg_updated,10,7066,11,yes,1024
92,92,623,623,black,no,practice,Mozilla,Netscape,"5.0 (Macintosh; Intel Mac OS X 10_15_7) AppleWebKit/605.1.15 (KHTML, like Gecko) Version/14.1.2 Safari/605.1.15",legacy,legacy,legacy,0,uniform,1,1,left,11,11,11,11,0,0,0,11,11,0,0,0,11,11,11,0,0,11,11,0,29-08-21,29-08-21,11:45:38,Wed Sep 29 2021 11:45:38 GMT+0200 (CEST),The main experiment item,yes,0,0,/Users/ethan/Documents/GitHub/OpenSesame/Sternberg/experiment_files,0,0,0,no,mono,no,18,no,white,no,no,768,48,3.6.1,legacy,legacy,2 1,osweb,1.4.0,1,0,n,36,,0,left,,,right,right,,left,407,,,31654,11733,,407,2,legacy,900,1440,24,900,24,0,0,1440,1632908780728,2,1024,2,48000,-16,experiment,0,even,MacIntel,5,111085,,,107820,75,108860,71835,74,31746,,113104,109870,113517,75,113104,Sternberg_updated,11,7473,12,yes,1024
92,92,616,616,black,no,experiment,Mozilla,Netscape,"5.0 (Macintosh; Intel Mac OS X 10_15_7) AppleWebKit/605.1.15 (KHTML, like Gecko) Version/14.1.2 Safari/605.1.15",legacy,legacy,legacy,0,uniform,1,1,right,12,12,12,12,0,0,0,12,12,0,0,0,12,12,12,0,0,12,12,0,29-08-21,29-08-21,11:45:38,Wed Sep 29 2021 11:45:38 GMT+0200 (CEST),The main experiment item,yes,0,0,/Users/ethan/Documents/GitHub/OpenSesame/Sternberg/experiment_files,0,0,0,no,mono,no,18,no,white,no,no,768,48,3.6.1,legacy,legacy,9 3 8 2 1 4,osweb,1.4.0,1,3,y,36,,0,right,,,right,right,right,right,535,,,31654,11733,14337,535,2,legacy,900,1440,24,900,24,0,0,1440,1632908780728,6,1024,2,48000,-16,experiment,0,even,MacIntel,8,131153,,,113520,75,128929,71835,74,31746,114553,133172,129939,133719,75,133172,Sternberg_updated,12,8008,13,yes,1024
93,93,623,623,black,no,experiment,Mozilla,Netscape,"5.0 (Macintosh; Intel Mac OS X 10_15_7) AppleWebKit/605.1.15 (KHTML, like Gecko) Version/14.1.2 Safari/605.1.15",legacy,legacy,legacy,0,uniform,1,1,right,13,13,13,13,0,0,0,13,13,0,0,0,13,13,13,0,0,13,13,0,29-08-21,29-08-21,11:45:38,Wed Sep 29 2021 11:45:38 GMT+0200 (CEST),The main experiment item,yes,0,0,/Users/ethan/Documents/GitHub/OpenSesame/Sternberg/experiment_files,0,0,0,no,mono,no,18,no,white,no,no,768,48,3.6.1,legacy,legacy,8 9 5 7 1 6,osweb,1.4.0,1,4,y,36,,0,right,,,right,right,right,right,717,,,31654,11733,14337,717,2,legacy,900,1440,24,900,24,0,0,1440,1632908780728,6,1024,2,48000,-16,experiment,0,even,MacIntel,7,136987,,,133723,75,134764,71835,74,31746,114553,139006,135772,139736,75,139006,Sternberg_updated,13,8725,14,yes,1024
93,93,619,619,black,no,experiment,Mozilla,Netscape,"5.0 (Macintosh; Intel Mac OS X 10_15_7) AppleWebKit/605.1.15 (KHTML, like Gecko) Version/14.1.2 Safari/605.1.15",legacy,legacy,legacy,0,uniform,1,1,right,14,14,14,14,0,0,0,14,14,0,0,0,14,14,14,0,0,14,14,0,29-08-21,29-08-21,11:45:38,Wed Sep 29 2021 11:45:38 GMT+0200 (CEST),The main experiment item,yes,0,0,/Users/ethan/Documents/GitHub/OpenSesame/Sternberg/experiment_files,0,0,0,no,mono,no,18,no,white,no,no,768,48,3.6.1,legacy,legacy,2 6 1 7 4,osweb,1.4.0,1,2,y,36,,0,right,,,right,right,right,right,553,,,31654,11733,14337,553,2,legacy,900,1440,24,900,24,0,0,1440,1632908780728,5,1024,2,48000,-16,experiment,0,even,MacIntel,6,143004,,,139740,75,140779,71835,74,31746,114553,145023,141789,145587,75,145022,Sternberg_updated,14,9278,15,yes,1024
94,94,611,611,black,no,experiment,Mozilla,Netscape,"5.0 (Macintosh; Intel Mac OS X 10_15_7) AppleWebKit/605.1.15 (KHTML, like Gecko) Version/14.1.2 Safari/605.1.15",legacy,legacy,legacy,0,uniform,1,1,left,15,15,15,15,0,0,0,15,15,0,0,0,15,15,15,0,0,15,15,0,29-08-21,29-08-21,11:45:38,Wed Sep 29 2021 11:45:38 GMT+0200 (CEST),The main experiment item,yes,0,0,/Users/ethan/Documents/GitHub/OpenSesame/Sternberg/experiment_files,0,0,0,no,mono,no,18,no,white,no,no,768,48,3.6.1,legacy,legacy,4 1,osweb,1.4.0,1,0,n,36,,0,left,,,right,right,right,left,504,,,31654,11733,14337,504,2,legacy,900,1440,24,900,24,0,0,1440,1632908780728,2,1024,2,48000,-16,experiment,0,even,MacIntel,6,148854,,,145590,75,146627,71835,74,31746,114553,150873,147639,151386,75,150873,Sternberg_updated,15,9782,16,yes,1024
94,94,607,607,black,no,experiment,Mozilla,Netscape,"5.0 (Macintosh; Intel Mac OS X 10_15_7) AppleWebKit/605.1.15 (KHTML, like Gecko) Version/14.1.2 Safari/605.1.15",legacy,legacy,legacy,0,uniform,1,1,right,16,16,16,16,0,0,0,16,16,0,0,0,16,16,16,0,0,16,16,0,29-08-21,29-08-21,11:45:38,Wed Sep 29 2021 11:45:38 GMT+0200 (CEST),The main experiment item,yes,0,0,/Users/ethan/Documents/GitHub/OpenSesame/Sternberg/experiment_files,0,0,0,no,mono,no,18,no,white,no,no,768,48,3.6.1,legacy,legacy,6 5,osweb,1.4.0,1,2,y,36,,0,right,,,right,right,right,right,536,,,31654,11733,14337,536,2,legacy,900,1440,24,900,24,0,0,1440,1632908780728,2,1024,2,48000,-16,experiment,0,even,MacIntel,5,154654,,,151389,75,152430,71835,74,31746,114553,156673,153439,157220,75,156673,Sternberg_updated,16,10318,17,yes,1024
94,94,602,602,black,no,experiment,Mozilla,Netscape,"5.0 (Macintosh; Intel Mac OS X 10_15_7) AppleWebKit/605.1.15 (KHTML, like Gecko) Version/14.1.2 Safari/605.1.15",legacy,legacy,legacy,0,uniform,1,1,left,17,17,17,17,0,0,0,17,17,0,0,0,17,17,17,0,0,17,17,0,29-08-21,29-08-21,11:45:38,Wed Sep 29 2021 11:45:38 GMT+0200 (CEST),The main experiment item,yes,0,0,/Users/ethan/Documents/GitHub/OpenSesame/Sternberg/experiment_files,0,0,0,no,mono,no,18,no,white,no,no,768,48,3.6.1,legacy,legacy,3 4 9 6 7 8,osweb,1.4.0,1,0,n,36,,0,left,,,right,right,right,left,513,,,31654,11733,14337,513,2,legacy,900,1440,24,900,24,0,0,1440,1632908780728,6,1024,2,48000,-16,experiment,0,even,MacIntel,2,160488,,,157222,75,158261,71835,74,31746,114553,162507,159273,163038,75,162507,Sternberg_updated,17,10831,18,yes,1024
95,95,597,597,black,no,experiment,Mozilla,Netscape,"5.0 (Macintosh; Intel Mac OS X 10_15_7) AppleWebKit/605.1.15 (KHTML, like Gecko) Version/14.1.2 Safari/605.1.15",legacy,legacy,legacy,0,uniform,1,1,right,18,18,18,18,0,0,0,18,18,0,0,0,18,18,18,0,0,18,18,0,29-08-21,29-08-21,11:45:38,Wed Sep 29 2021 11:45:38 GMT+0200 (CEST),The main experiment item,yes,0,0,/Users/ethan/Documents/GitHub/OpenSesame/Sternberg/experiment_files,0,0,0,no,mono,no,18,no,white,no,no,768,48,3.6.1,legacy,legacy,2 4 6 9,osweb,1.4.0,1,3,y,36,,0,right,,,right,right,right,right,507,,,31654,11733,14337,507,2,legacy,900,1440,24,900,24,0,0,1440,1632908780728,4,1024,2,48000,-16,experiment,0,even,MacIntel,6,166305,,,163041,75,164077,71835,74,31746,114553,168324,165091,168838,75,168324,Sternberg_updated,18,11338,19,yes,1024
95,95,607,607,black,no,experiment,Mozilla,Netscape,"5.0 (Macintosh; Intel Mac OS X 10_15_7) AppleWebKit/605.1.15 (KHTML, like Gecko) Version/14.1.2 Safari/605.1.15",legacy,legacy,legacy,0,uniform,1,1,left,19,19,19,19,0,0,0,19,19,0,0,0,19,19,19,0,0,19,19,0,29-08-21,29-08-21,11:45:38,Wed Sep 29 2021 11:45:38 GMT+0200 (CEST),The main experiment item,yes,0,0,/Users/ethan/Documents/GitHub/OpenSesame/Sternberg/experiment_files,0,0,0,no,mono,no,18,no,white,no,no,768,48,3.6.1,legacy,legacy,5 3 2 6 9 8,osweb,1.4.0,1,0,n,36,,0,left,,,right,right,right,left,808,,,31654,11733,14337,808,2,legacy,900,1440,24,900,24,0,0,1440,1632908780728,6,1024,2,48000,-16,experiment,0,even,MacIntel,4,172105,,,168841,75,169881,71835,74,31746,114553,174124,170891,174938,75,174124,Sternberg_updated,19,12146,20,yes,1024
95,95,603,603,black,no,experiment,Mozilla,Netscape,"5.0 (Macintosh; Intel Mac OS X 10_15_7) AppleWebKit/605.1.15 (KHTML, like Gecko) Version/14.1.2 Safari/605.1.15",legacy,legacy,legacy,0,uniform,1,1,left,20,20,20,20,0,0,0,20,20,0,0,0,20,20,20,0,0,20,20,0,29-08-21,29-08-21,11:45:38,Wed Sep 29 2021 11:45:38 GMT+0200 (CEST),The main experiment item,yes,0,0,/Users/ethan/Documents/GitHub/OpenSesame/Sternberg/experiment_files,0,0,0,no,mono,no,18,no,white,no,no,768,48,3.6.1,legacy,legacy,3 9 8 1 6 4,osweb,1.4.0,1,0,n,36,,0,left,,,right,right,right,left,508,,,31654,11733,14337,508,2,legacy,900,1440,24,900,24,0,0,1440,1632908780728,6,1024,2,48000,-16,experiment,0,even,MacIntel,7,178206,,,174941,75,175979,71835,74,31746,114553,180226,176991,180738,75,180225,Sternberg_updated,20,12654,21,yes,1024
91,91,601,601,black,no,experiment,Mozilla,Netscape,"5.0 (Macintosh; Intel Mac OS X 10_15_7) AppleWebKit/605.1.15 (KHTML, like Gecko) Version/14.1.2 Safari/605.1.15",legacy,legacy,legacy,0,uniform,0,0,right,21,21,21,21,0,0,0,21,21,0,0,0,21,21,21,0,0,21,21,0,29-08-21,29-08-21,11:45:38,Wed Sep 29 2021 11:45:38 GMT+0200 (CEST),The main experiment item,yes,0,0,/Users/ethan/Documents/GitHub/OpenSesame/Sternberg/experiment_files,0,0,0,no,mono,no,18,no,white,no,no,768,48,3.6.1,legacy,legacy,3 2 1 4 7,osweb,1.4.0,1,2,y,36,,0,left,,,right,right,right,left,568,,,31654,11733,14337,568,2,legacy,900,1440,24,900,24,0,0,1440,1632908780728,5,1024,2,48000,-16,experiment,0,even,MacIntel,2,184006,,,180741,75,181779,71835,74,31746,114553,186025,182792,186606,75,186025,Sternberg_updated,20,13222,22,yes,1024
87,87,595,595,black,no,experiment,Mozilla,Netscape,"5.0 (Macintosh; Intel Mac OS X 10_15_7) AppleWebKit/605.1.15 (KHTML, like Gecko) Version/14.1.2 Safari/605.1.15",legacy,legacy,legacy,0,uniform,0,0,right,22,22,22,22,0,0,0,22,22,0,0,0,22,22,22,0,0,22,22,0,29-08-21,29-08-21,11:45:38,Wed Sep 29 2021 11:45:38 GMT+0200 (CEST),The main experiment item,yes,0,0,/Users/ethan/Documents/GitHub/OpenSesame/Sternberg/experiment_files,0,0,0,no,mono,no,18,no,white,no,no,768,48,3.6.1,legacy,legacy,2 8 5 1,osweb,1.4.0,1,4,y,36,,0,left,,,right,right,right,left,453,,,31654,11733,14337,453,2,legacy,900,1440,24,900,24,0,0,1440,1632908780728,4,1024,2,48000,-16,experiment,0,even,MacIntel,1,189873,,,180741,75,187646,186609,74,31746,114553,191893,188659,192356,75,191893,Sternberg_updated,20,13675,23,yes,1024
88,88,595,595,black,no,experiment,Mozilla,Netscape,"5.0 (Macintosh; Intel Mac OS X 10_15_7) AppleWebKit/605.1.15 (KHTML, like Gecko) Version/14.1.2 Safari/605.1.15",legacy,legacy,legacy,0,uniform,1,1,left,23,23,23,23,0,0,0,23,23,0,0,0,23,23,23,0,0,23,23,0,29-08-21,29-08-21,11:45:38,Wed Sep 29 2021 11:45:38 GMT+0200 (CEST),The main experiment item,yes,0,0,/Users/ethan/Documents/GitHub/OpenSesame/Sternberg/experiment_files,0,0,0,no,mono,no,18,no,white,no,no,768,48,3.6.1,legacy,legacy,1 4 9 3,osweb,1.4.0,1,0,n,36,,0,left,,,right,right,right,left,604,,,31654,11733,14337,604,2,legacy,900,1440,24,900,24,0,0,1440,1632908780728,4,1024,2,48000,-16,experiment,0,even,MacIntel,5,195624,,,180741,75,193396,192360,74,31746,114553,197643,194409,198257,75,197643,Sternberg_updated,21,14279,24,yes,1024
88,88,607,607,black,no,experiment,Mozilla,Netscape,"5.0 (Macintosh; Intel Mac OS X 10_15_7) AppleWebKit/605.1.15 (KHTML, like Gecko) Version/14.1.2 Safari/605.1.15",legacy,legacy,legacy,0,uniform,1,1,right,24,24,24,24,0,0,0,24,24,0,0,0,24,24,24,0,0,24,24,0,29-08-21,29-08-21,11:45:38,Wed Sep 29 2021 11:45:38 GMT+0200 (CEST),The main experiment item,yes,0,0,/Users/ethan/Documents/GitHub/OpenSesame/Sternberg/experiment_files,0,0,0,no,mono,no,18,no,white,no,no,768,48,3.6.1,legacy,legacy,7 8 6 3 1,osweb,1.4.0,1,5,y,36,,0,right,,,right,right,right,right,899,,,31654,11733,14337,899,2,legacy,900,1440,24,900,24,0,0,1440,1632908780728,5,1024,2,48000,-16,experiment,0,even,MacIntel,1,201524,,,198260,75,199295,192360,74,31746,114553,203543,200310,204457,75,203543,Sternberg_updated,22,15178,25,yes,1024
88,88,604,604,black,no,experiment,Mozilla,Netscape,"5.0 (Macintosh; Intel Mac OS X 10_15_7) AppleWebKit/605.1.15 (KHTML, like Gecko) Version/14.1.2 Safari/605.1.15",legacy,legacy,legacy,0,uniform,1,1,right,25,25,25,25,0,0,0,25,25,0,0,0,25,25,25,0,0,25,25,0,29-08-21,29-08-21,11:45:38,Wed Sep 29 2021 11:45:38 GMT+0200 (CEST),The main experiment item,yes,0,0,/Users/ethan/Documents/GitHub/OpenSesame/Sternberg/experiment_files,0,0,0,no,mono,no,18,no,white,no,no,768,48,3.6.1,legacy,legacy,7 2 3,osweb,1.4.0,1,3,y,36,,0,right,,,right,right,right,right,516,,,31654,11733,14337,516,2,legacy,900,1440,24,900,24,0,0,1440,1632908780728,3,1024,2,48000,-16,experiment,0,even,MacIntel,3,207725,,,204461,75,205498,192360,74,31746,114553,209743,206511,210274,75,209743,Sternberg_updated,23,15694,26,yes,1024
89,89,603,603,black,no,experiment,Mozilla,Netscape,"5.0 (Macintosh; Intel Mac OS X 10_15_7) AppleWebKit/605.1.15 (KHTML, like Gecko) Version/14.1.2 Safari/605.1.15",legacy,legacy,legacy,0,uniform,1,1,left,26,26,26,26,0,0,0,26,26,0,0,0,26,26,26,0,0,26,26,0,29-08-21,29-08-21,11:45:38,Wed Sep 29 2021 11:45:38 GMT+0200 (CEST),The main experiment item,yes,0,0,/Users/ethan/Documents/GitHub/OpenSesame/Sternberg/experiment_files,0,0,0,no,mono,no,18,no,white,no,no,768,48,3.6.1,legacy,legacy,6 9 4 5 3 2,osweb,1.4.0,1,0,n,36,,0,left,,,right,right,right,left,592,,,31654,11733,14337,592,2,legacy,900,1440,24,900,24,0,0,1440,1632908780728,6,1024,2,48000,-16,experiment,0,even,MacIntel,8,213542,,,210278,75,211314,192360,74,31746,114553,215561,212327,216158,75,215560,Sternberg_updated,24,16286,27,yes,1024
89,89,602,602,black,no,experiment,Mozilla,Netscape,"5.0 (Macintosh; Intel Mac OS X 10_15_7) AppleWebKit/605.1.15 (KHTML, like Gecko) Version/14.1.2 Safari/605.1.15",legacy,legacy,legacy,0,uniform,1,1,left,27,27,27,27,0,0,0,27,27,0,0,0,27,27,27,0,0,27,27,0,29-08-21,29-08-21,11:45:38,Wed Sep 29 2021 11:45:38 GMT+0200 (CEST),The main experiment item,yes,0,0,/Users/ethan/Documents/GitHub/OpenSesame/Sternberg/experiment_files,0,0,0,no,mono,no,18,no,white,no,no,768,48,3.6.1,legacy,legacy,8 5 7 3 6,osweb,1.4.0,1,0,n,36,,0,left,,,right,right,right,left,576,,,31654,11733,14337,576,2,legacy,900,1440,24,900,24,0,0,1440,1632908780728,5,1024,2,48000,-16,experiment,0,even,MacIntel,9,219426,,,216161,75,217198,192360,74,31746,114553,221443,218211,222025,75,221443,Sternberg_updated,25,16862,28,yes,1024
90,90,603,603,black,no,experiment,Mozilla,Netscape,"5.0 (Macintosh; Intel Mac OS X 10_15_7) AppleWebKit/605.1.15 (KHTML, like Gecko) Version/14.1.2 Safari/605.1.15",legacy,legacy,legacy,0,uniform,1,1,left,28,28,28,28,0,0,0,28,28,0,0,0,28,28,28,0,0,28,28,0,29-08-21,29-08-21,11:45:38,Wed Sep 29 2021 11:45:38 GMT+0200 (CEST),The main experiment item,yes,0,0,/Users/ethan/Documents/GitHub/OpenSesame/Sternberg/experiment_files,0,0,0,no,mono,no,18,no,white,no,no,768,48,3.6.1,legacy,legacy,3 4 2,osweb,1.4.0,1,0,n,36,,0,left,,,right,right,right,left,637,,,31654,11733,14337,637,2,legacy,900,1440,24,900,24,0,0,1440,1632908780728,3,1024,2,48000,-16,experiment,0,even,MacIntel,5,225293,,,222028,75,223064,192360,74,31746,114553,227312,224078,227959,75,227312,Sternberg_updated,26,17499,29,yes,1024
87,87,601,601,black,no,experiment,Mozilla,Netscape,"5.0 (Macintosh; Intel Mac OS X 10_15_7) AppleWebKit/605.1.15 (KHTML, like Gecko) Version/14.1.2 Safari/605.1.15",legacy,legacy,legacy,0,uniform,0,0,right,29,29,29,29,0,0,0,29,29,0,0,0,29,29,29,0,0,29,29,0,29-08-21,29-08-21,11:45:38,Wed Sep 29 2021 11:45:38 GMT+0200 (CEST),The main experiment item,yes,0,0,/Users/ethan/Documents/GitHub/OpenSesame/Sternberg/experiment_files,0,0,0,no,mono,no,18,no,white,no,no,768,48,3.6.1,legacy,legacy,4 6 2 5 1,osweb,1.4.0,1,5,y,36,,0,left,,,right,right,right,left,537,,,31654,11733,14337,537,2,legacy,900,1440,24,900,24,0,0,1440,1632908780728,5,1024,2,48000,-16,experiment,0,even,MacIntel,1,231226,,,227962,75,229006,192360,74,31746,114553,233245,230012,233793,75,233245,Sternberg_updated,26,18036,30,yes,1024
87,87,606,606,black,no,experiment,Mozilla,Netscape,"5.0 (Macintosh; Intel Mac OS X 10_15_7) AppleWebKit/605.1.15 (KHTML, like Gecko) Version/14.1.2 Safari/605.1.15",legacy,legacy,legacy,0,uniform,1,1,right,30,30,30,30,0,0,0,30,30,0,0,0,30,30,30,0,0,30,30,0,29-08-21,29-08-21,11:45:38,Wed Sep 29 2021 11:45:38 GMT+0200 (CEST),The main experiment item,yes,0,0,/Users/ethan/Documents/GitHub/OpenSesame/Sternberg/experiment_files,0,0,0,no,mono,no,18,no,white,no,no,768,48,3.6.1,legacy,legacy,7 1 8 5 6 2,osweb,1.4.0,1,2,y,36,,0,right,,,right,right,right,right,764,,,31654,11733,14337,764,2,legacy,900,1440,24,900,24,0,0,1440,1632908780728,6,1024,2,48000,-16,experiment,0,even,MacIntel,1,237061,,,227962,75,234832,233797,74,31746,114553,239080,235850,239860,75,239079,Sternberg_updated,27,18800,31,yes,1024
88,88,610,610,black,no,experiment,Mozilla,Netscape,"5.0 (Macintosh; Intel Mac OS X 10_15_7) AppleWebKit/605.1.15 (KHTML, like Gecko) Version/14.1.2 Safari/605.1.15",legacy,legacy,legacy,0,uniform,1,1,left,31,31,31,31,0,0,0,31,31,0,0,0,31,31,31,0,0,31,31,0,29-08-21,29-08-21,11:45:38,Wed Sep 29 2021 11:45:38 GMT+0200 (CEST),The main experiment item,yes,0,0,/Users/ethan/Documents/GitHub/OpenSesame/Sternberg/experiment_files,0,0,0,no,mono,no,18,no,white,no,no,768,48,3.6.1,legacy,legacy,8 2 1 4 5 9,osweb,1.4.0,1,0,n,36,,0,left,,,right,right,right,left,727,,,31654,11733,14337,727,2,legacy,900,1440,24,900,24,0,0,1440,1632908780728,6,1024,2,48000,-16,experiment,0,even,MacIntel,7,243127,,,239864,75,240901,233797,74,31746,114553,245146,241912,245876,75,245146,Sternberg_updated,28,19527,32,yes,1024
88,88,607,607,black,no,experiment,Mozilla,Netscape,"5.0 (Macintosh; Intel Mac OS X 10_15_7) AppleWebKit/605.1.15 (KHTML, like Gecko) Version/14.1.2 Safari/605.1.15",legacy,legacy,legacy,0,uniform,1,1,right,32,32,32,32,0,0,0,32,32,0,0,0,32,32,32,0,0,32,32,0,29-08-21,29-08-21,11:45:38,Wed Sep 29 2021 11:45:38 GMT+0200 (CEST),The main experiment item,yes,0,0,/Users/ethan/Documents/GitHub/OpenSesame/Sternberg/experiment_files,0,0,0,no,mono,no,18,no,white,no,no,768,48,3.6.1,legacy,legacy,4,osweb,1.4.0,1,1,y,36,,0,right,,,right,right,right,right,510,,,31654,11733,14337,510,2,legacy,900,1440,24,900,24,0,0,1440,1632908780728,1,1024,2,48000,-16,experiment,0,even,MacIntel,4,249144,,,245879,75,246917,233797,74,31746,114553,251163,247929,251677,75,251163,Sternberg_updated,29,20037,33,yes,1024
88,88,603,603,black,no,experiment,Mozilla,Netscape,"5.0 (Macintosh; Intel Mac OS X 10_15_7) AppleWebKit/605.1.15 (KHTML, like Gecko) Version/14.1.2 Safari/605.1.15",legacy,legacy,legacy,0,uniform,1,1,right,33,33,33,33,0,0,0,33,33,0,0,0,33,33,33,0,0,33,33,0,29-08-21,29-08-21,11:45:38,Wed Sep 29 2021 11:45:38 GMT+0200 (CEST),The main experiment item,yes,0,0,/Users/ethan/Documents/GitHub/OpenSesame/Sternberg/experiment_files,0,0,0,no,mono,no,18,no,white,no,no,768,48,3.6.1,legacy,legacy,3 5 7 1,osweb,1.4.0,1,3,y,36,,0,right,,,right,right,right,right,452,,,31654,11733,14337,452,2,legacy,900,1440,24,900,24,0,0,1440,1632908780728,4,1024,2,48000,-16,experiment,0,even,MacIntel,7,254945,,,251680,75,252716,233797,74,31746,114553,256963,253730,257428,75,256963,Sternberg_updated,30,20489,34,yes,1024
89,89,600,600,black,no,experiment,Mozilla,Netscape,"5.0 (Macintosh; Intel Mac OS X 10_15_7) AppleWebKit/605.1.15 (KHTML, like Gecko) Version/14.1.2 Safari/605.1.15",legacy,legacy,legacy,0,uniform,1,1,left,34,34,34,34,0,0,0,34,34,0,0,0,34,34,34,0,0,34,34,0,29-08-21,29-08-21,11:45:38,Wed Sep 29 2021 11:45:38 GMT+0200 (CEST),The main experiment item,yes,0,0,/Users/ethan/Documents/GitHub/OpenSesame/Sternberg/experiment_files,0,0,0,no,mono,no,18,no,white,no,no,768,48,3.6.1,legacy,legacy,4 2 6 9,osweb,1.4.0,1,0,n,36,,0,left,,,right,right,right,left,500,,,31654,11733,14337,500,2,legacy,900,1440,24,900,24,0,0,1440,1632908780728,4,1024,2,48000,-16,experiment,0,even,MacIntel,7,260695,,,257431,75,258467,233797,74,31746,114553,262714,259480,263228,75,262714,Sternberg_updated,31,20989,35,yes,1024
89,89,597,597,black,no,experiment,Mozilla,Netscape,"5.0 (Macintosh; Intel Mac OS X 10_15_7) AppleWebKit/605.1.15 (KHTML, like Gecko) Version/14.1.2 Safari/605.1.15",legacy,legacy,legacy,0,uniform,1,1,left,35,35,35,35,0,0,0,35,35,0,0,0,35,35,35,0,0,35,35,0,29-08-21,29-08-21,11:45:38,Wed Sep 29 2021 11:45:38 GMT+0200 (CEST),The main experiment item,yes,0,0,/Users/ethan/Documents/GitHub/OpenSesame/Sternberg/experiment_files,0,0,0,no,mono,no,18,no,white,no,no,768,48,3.6.1,legacy,legacy,4 8 1 2,osweb,1.4.0,1,0,n,36,,0,left,,,right,right,right,left,512,,,31654,11733,14337,512,2,legacy,900,1440,24,900,24,0,0,1440,1632908780728,4,1024,2,48000,-16,experiment,0,even,MacIntel,7,266495,,,263231,75,264267,233797,74,31746,114553,268514,265281,269028,75,268514,Sternberg_updated,32,21501,36,yes,1024
89,89,593,593,black,no,experiment,Mozilla,Netscape,"5.0 (Macintosh; Intel Mac OS X 10_15_7) AppleWebKit/605.1.15 (KHTML, like Gecko) Version/14.1.2 Safari/605.1.15",legacy,legacy,legacy,0,uniform,1,1,right,36,36,36,36,0,0,0,36,36,0,0,0,36,36,36,0,0,36,36,0,29-08-21,29-08-21,11:45:38,Wed Sep 29 2021 11:45:38 GMT+0200 (CEST),The main experiment item,yes,0,0,/Users/ethan/Documents/GitHub/OpenSesame/Sternberg/experiment_files,0,0,0,no,mono,no,18,no,white,no,no,768,48,3.6.1,legacy,legacy,9 8 4,osweb,1.4.0,1,1,y,36,,0,right,,,right,right,right,right,454,,,31654,11733,14337,454,2,legacy,900,1440,24,900,24,0,0,1440,1632908780728,3,1024,2,48000,-16,experiment,0,even,MacIntel,9,272296,,,269031,75,270067,233797,74,31746,114553,274314,271081,274779,75,274314,Sternberg_updated,33,21955,37,yes,1024
89,89,590,590,black,no,experiment,Mozilla,Netscape,"5.0 (Macintosh; Intel Mac OS X 10_15_7) AppleWebKit/605.1.15 (KHTML, like Gecko) Version/14.1.2 Safari/605.1.15",legacy,legacy,legacy,0,uniform,1,1,right,37,37,37,37,0,0,0,37,37,0,0,0,37,37,37,0,0,37,37,0,29-08-21,29-08-21,11:45:38,Wed Sep 29 2021 11:45:38 GMT+0200 (CEST),The main experiment item,yes,0,0,/Users/ethan/Documents/GitHub/OpenSesame/Sternberg/experiment_files,0,0,0,no,mono,no,18,no,white,no,no,768,48,3.6.1,legacy,legacy,9 5 3 8 4,osweb,1.4.0,1,1,y,36,,0,right,,,right,right,right,right,470,,,31654,11733,14337,470,2,legacy,900,1440,24,900,24,0,0,1440,1632908780728,5,1024,2,48000,-16,experiment,0,even,MacIntel,9,278046,,,274781,75,275818,233797,74,31746,114553,280065,276831,280546,75,280065,Sternberg_updated,34,22425,38,yes,1024
90,90,590,590,black,no,experiment,Mozilla,Netscape,"5.0 (Macintosh; Intel Mac OS X 10_15_7) AppleWebKit/605.1.15 (KHTML, like Gecko) Version/14.1.2 Safari/605.1.15",legacy,legacy,legacy,0,uniform,1,1,right,38,38,38,38,0,0,0,38,38,0,0,0,38,38,38,0,0,38,38,0,29-08-21,29-08-21,11:45:38,Wed Sep 29 2021 11:45:38 GMT+0200 (CEST),The main experiment item,yes,0,0,/Users/ethan/Documents/GitHub/OpenSesame/Sternberg/experiment_files,0,0,0,no,mono,no,18,no,white,no,no,768,48,3.6.1,legacy,legacy,5 2 9 6 1 7,osweb,1.4.0,1,3,y,36,,0,right,,,right,right,right,right,584,,,31654,11733,14337,584,2,legacy,900,1440,24,900,24,0,0,1440,1632908780728,6,1024,2,48000,-16,experiment,0,even,MacIntel,9,283813,,,280549,75,281585,233797,74,31746,114553,285832,282599,286430,75,285832,Sternberg_updated,35,23009,39,yes,1024
90,90,589,589,black,no,experiment,Mozilla,Netscape,"5.0 (Macintosh; Intel Mac OS X 10_15_7) AppleWebKit/605.1.15 (KHTML, like Gecko) Version/14.1.2 Safari/605.1.15",legacy,legacy,legacy,0,uniform,1,1,left,39,39,39,39,0,0,0,39,39,0,0,0,39,39,39,0,0,39,39,0,29-08-21,29-08-21,11:45:38,Wed Sep 29 2021 11:45:38 GMT+0200 (CEST),The main experiment item,yes,0,0,/Users/ethan/Documents/GitHub/OpenSesame/Sternberg/experiment_files,0,0,0,no,mono,no,18,no,white,no,no,768,48,3.6.1,legacy,legacy,8 5 4 2 9 6,osweb,1.4.0,1,0,n,36,,0,left,,,right,right,right,left,558,,,31654,11733,14337,558,2,legacy,900,1440,24,900,24,0,0,1440,1632908780728,6,1024,2,48000,-16,experiment,0,even,MacIntel,3,289697,,,286433,75,287470,233797,74,31746,114553,291715,288482,292280,75,291714,Sternberg_updated,36,23567,40,yes,1024
90,90,591,591,black,no,experiment,Mozilla,Netscape,"5.0 (Macintosh; Intel Mac OS X 10_15_7) AppleWebKit/605.1.15 (KHTML, like Gecko) Version/14.1.2 Safari/605.1.15",legacy,legacy,legacy,0,uniform,1,1,left,40,40,40,40,0,0,0,40,40,0,0,0,40,40,40,0,0,40,40,0,29-08-21,29-08-21,11:45:38,Wed Sep 29 2021 11:45:38 GMT+0200 (CEST),The main experiment item,yes,0,0,/Users/ethan/Documents/GitHub/OpenSesame/Sternberg/experiment_files,0,0,0,no,mono,no,18,no,white,no,no,768,48,3.6.1,legacy,legacy,9 5 3 2 8 6,osweb,1.4.0,1,0,n,36,,0,left,,,right,right,right,left,663,,,31654,11733,14337,663,2,legacy,900,1440,24,900,24,0,0,1440,1632908780728,6,1024,2,48000,-16,experiment,0,even,MacIntel,7,295547,,,292283,75,293319,233797,74,31746,114553,297566,294333,298230,75,297566,Sternberg_updated,37,24230,41,yes,1024
90,90,592,592,black,no,experiment,Mozilla,Netscape,"5.0 (Macintosh; Intel Mac OS X 10_15_7) AppleWebKit/605.1.15 (KHTML, like Gecko) Version/14.1.2 Safari/605.1.15",legacy,legacy,legacy,0,uniform,1,1,right,41,41,41,41,0,0,0,41,41,0,0,0,41,41,41,0,0,41,41,0,29-08-21,29-08-21,11:45:38,Wed Sep 29 2021 11:45:38 GMT+0200 (CEST),The main experiment item,yes,0,0,/Users/ethan/Documents/GitHub/OpenSesame/Sternberg/experiment_files,0,0,0,no,mono,no,18,no,white,no,no,768,48,3.6.1,legacy,legacy,6 1 2,osweb,1.4.0,1,3,y,36,,0,right,,,right,right,right,right,634,,,31654,11733,14337,634,2,legacy,900,1440,24,900,24,0,0,1440,1632908780728,3,1024,2,48000,-16,experiment,0,even,MacIntel,2,301498,,,298234,75,299277,233797,74,31746,114553,303517,300283,304164,75,303517,Sternberg_updated,38,24864,42,yes,1024
91,91,591,591,black,no,experiment,Mozilla,Netscape,"5.0 (Macintosh; Intel Mac OS X 10_15_7) AppleWebKit/605.1.15 (KHTML, like Gecko) Version/14.1.2 Safari/605.1.15",legacy,legacy,legacy,0,uniform,1,1,right,42,42,42,42,0,0,0,42,42,0,0,0,42,42,42,0,0,42,42,0,29-08-21,29-08-21,11:45:38,Wed Sep 29 2021 11:45:38 GMT+0200 (CEST),The main experiment item,yes,0,0,/Users/ethan/Documents/GitHub/OpenSesame/Sternberg/experiment_files,0,0,0,no,mono,no,18,no,white,no,no,768,48,3.6.1,legacy,legacy,9 1 7 2,osweb,1.4.0,1,2,y,36,,0,right,,,right,right,right,right,547,,,31654,11733,14337,547,2,legacy,900,1440,24,900,24,0,0,1440,1632908780728,4,1024,2,48000,-16,experiment,0,even,MacIntel,1,307432,,,304168,75,305204,233797,74,31746,114553,309451,306217,310015,75,309450,Sternberg_updated,39,25411,43,yes,1024
91,91,594,594,black,no,experiment,Mozilla,Netscape,"5.0 (Macintosh; Intel Mac OS X 10_15_7) AppleWebKit/605.1.15 (KHTML, like Gecko) Version/14.1.2 Safari/605.1.15",legacy,legacy,legacy,0,uniform,1,1,right,43,43,43,43,0,0,0,43,43,0,0,0,43,43,43,0,0,43,43,0,29-08-21,29-08-21,11:45:38,Wed Sep 29 2021 11:45:38 GMT+0200 (CEST),The main experiment item,yes,0,0,/Users/ethan/Documents/GitHub/OpenSesame/Sternberg/experiment_files,0,0,0,no,mono,no,18,no,white,no,no,768,48,3.6.1,legacy,legacy,4 9 7 8 5 3,osweb,1.4.0,1,4,y,36,,0,right,,,right,right,right,right,743,,,31654,11733,14337,743,2,legacy,900,1440,24,900,24,0,0,1440,1632908780728,6,1024,2,48000,-16,experiment,0,even,MacIntel,8,313282,,,310018,75,311055,233797,74,31746,114553,315301,312068,316047,75,315301,Sternberg_updated,40,26154,44,yes,1024
91,91,591,591,black,no,experiment,Mozilla,Netscape,"5.0 (Macintosh; Intel Mac OS X 10_15_7) AppleWebKit/605.1.15 (KHTML, like Gecko) Version/14.1.2 Safari/605.1.15",legacy,legacy,legacy,0,uniform,1,1,right,44,44,44,44,0,0,0,44,44,0,0,0,44,44,44,0,0,44,44,0,29-08-21,29-08-21,11:45:38,Wed Sep 29 2021 11:45:38 GMT+0200 (CEST),The main experiment item,yes,0,0,/Users/ethan/Documents/GitHub/OpenSesame/Sternberg/experiment_files,0,0,0,no,mono,no,18,no,white,no,no,768,48,3.6.1,legacy,legacy,8,osweb,1.4.0,1,1,y,36,,0,right,,,right,right,right,right,420,,,31654,11733,14337,420,2,legacy,900,1440,24,900,24,0,0,1440,1632908780728,1,1024,2,48000,-16,experiment,0,even,MacIntel,8,319316,,,316051,75,317088,233797,74,31746,114553,321335,318101,321765,75,321334,Sternberg_updated,41,26574,45,yes,1024
91,91,588,588,black,no,experiment,Mozilla,Netscape,"5.0 (Macintosh; Intel Mac OS X 10_15_7) AppleWebKit/605.1.15 (KHTML, like Gecko) Version/14.1.2 Safari/605.1.15",legacy,legacy,legacy,0,uniform,1,1,right,45,45,45,45,0,0,0,45,45,0,0,0,45,45,45,0,0,45,45,0,29-08-21,29-08-21,11:45:38,Wed Sep 29 2021 11:45:38 GMT+0200 (CEST),The main experiment item,yes,0,0,/Users/ethan/Documents/GitHub/OpenSesame/Sternberg/experiment_files,0,0,0,no,mono,no,18,no,white,no,no,768,48,3.6.1,legacy,legacy,4 1 8 7 5,osweb,1.4.0,1,3,y,36,,0,right,,,right,right,right,right,458,,,31654,11733,14337,458,2,legacy,900,1440,24,900,24,0,0,1440,1632908780728,5,1024,2,48000,-16,experiment,0,even,MacIntel,8,325033,,,321769,75,322803,233797,74,31746,114553,327051,323818,327516,75,327051,Sternberg_updated,42,27032,46,yes,1024
91,91,584,584,black,no,experiment,Mozilla,Netscape,"5.0 (Macintosh; Intel Mac OS X 10_15_7) AppleWebKit/605.1.15 (KHTML, like Gecko) Version/14.1.2 Safari/605.1.15",legacy,legacy,legacy,0,uniform,1,1,left,46,46,46,46,0,0,0,46,46,0,0,0,46,46,46,0,0,46,46,0,29-08-21,29-08-21,11:45:38,Wed Sep 29 2021 11:45:38 GMT+0200 (CEST),The main experiment item,yes,0,0,/Users/ethan/Documents/GitHub/OpenSesame/Sternberg/experiment_files,0,0,0,no,mono,no,18,no,white,no,no,768,48,3.6.1,legacy,legacy,1 8 7,osweb,1.4.0,1,0,n,36,,0,left,,,right,right,right,left,438,,,31654,11733,14337,438,2,legacy,900,1440,24,900,24,0,0,1440,1632908780728,3,1024,2,48000,-16,experiment,0,even,MacIntel,4,330783,,,327525,75,328556,233797,74,31746,114553,332802,329568,333249,75,332802,Sternberg_updated,43,27470,47,yes,1024
92,92,585,585,black,no,experiment,Mozilla,Netscape,"5.0 (Macintosh; Intel Mac OS X 10_15_7) AppleWebKit/605.1.15 (KHTML, like Gecko) Version/14.1.2 Safari/605.1.15",legacy,legacy,legacy,0,uniform,1,1,right,47,47,47,47,0,0,0,47,47,0,0,0,47,47,47,0,0,47,47,0,29-08-21,29-08-21,11:45:38,Wed Sep 29 2021 11:45:38 GMT+0200 (CEST),The main experiment item,yes,0,0,/Users/ethan/Documents/GitHub/OpenSesame/Sternberg/experiment_files,0,0,0,no,mono,no,18,no,white,no,no,768,48,3.6.1,legacy,legacy,4 7 6 8 2 3,osweb,1.4.0,1,6,y,36,,0,right,,,right,right,right,right,609,,,31654,11733,14337,609,2,legacy,900,1440,24,900,24,0,0,1440,1632908780728,6,1024,2,48000,-16,experiment,0,even,MacIntel,3,336516,,,333253,75,334289,233797,74,31746,114553,338521,335302,339132,75,338520,Sternberg_updated,44,28079,48,yes,1024
92,92,594,594,black,no,experiment,Mozilla,Netscape,"5.0 (Macintosh; Intel Mac OS X 10_15_7) AppleWebKit/605.1.15 (KHTML, like Gecko) Version/14.1.2 Safari/605.1.15",legacy,legacy,legacy,0,uniform,1,1,left,48,48,48,48,0,0,0,48,48,0,0,0,48,48,48,0,0,48,48,0,29-08-21,29-08-21,11:45:38,Wed Sep 29 2021 11:45:38 GMT+0200 (CEST),The main experiment item,yes,0,0,/Users/ethan/Documents/GitHub/OpenSesame/Sternberg/experiment_files,0,0,0,no,mono,no,18,no,white,no,no,768,48,3.6.1,legacy,legacy,1 4 3 6 5,osweb,1.4.0,1,0,n,36,,0,left,,,right,right,right,left,1042,,,31654,11733,14337,1042,2,legacy,900,1440,24,900,24,0,0,1440,1632908780728,5,1024,2,48000,-16,experiment,0,even,MacIntel,8,342401,,,339135,75,340174,233797,74,31746,114553,344420,341186,345467,75,344419,Sternberg_updated,45,29121,49,yes,1024
92,92,600,600,black,no,experiment,Mozilla,Netscape,"5.0 (Macintosh; Intel Mac OS X 10_15_7) AppleWebKit/605.1.15 (KHTML, like Gecko) Version/14.1.2 Safari/605.1.15",legacy,legacy,legacy,0,uniform,1,1,right,49,49,49,49,0,0,0,49,49,0,0,0,49,49,49,0,0,49,49,0,29-08-21,29-08-21,11:45:38,Wed Sep 29 2021 11:45:38 GMT+0200 (CEST),The main experiment item,yes,0,0,/Users/ethan/Documents/GitHub/OpenSesame/Sternberg/experiment_files,0,0,0,no,mono,no,18,no,white,no,no,768,48,3.6.1,legacy,legacy,8 9 6 1,osweb,1.4.0,1,2,y,36,,0,right,,,right,right,right,right,895,,,31654,11733,14337,895,2,legacy,900,1440,24,900,24,0,0,1440,1632908780728,4,1024,2,48000,-16,experiment,0,even,MacIntel,9,348734,,,345469,75,346509,233797,74,31746,114553,350753,347520,351650,75,350753,Sternberg_updated,46,30016,50,yes,1024
92,92,598,598,black,no,experiment,Mozilla,Netscape,"5.0 (Macintosh; Intel Mac OS X 10_15_7) AppleWebKit/605.1.15 (KHTML, like Gecko) Version/14.1.2 Safari/605.1.15",legacy,legacy,legacy,0,uniform,1,1,right,50,50,50,50,0,0,0,50,50,0,0,0,50,50,50,0,0,50,50,0,29-08-21,29-08-21,11:45:38,Wed Sep 29 2021 11:45:38 GMT+0200 (CEST),The main experiment item,yes,0,0,/Users/ethan/Documents/GitHub/OpenSesame/Sternberg/experiment_files,0,0,0,no,mono,no,18,no,white,no,no,768,48,3.6.1,legacy,legacy,6 2,osweb,1.4.0,1,1,y,36,,0,right,,,right,right,right,right,491,,,31654,11733,14337,491,2,legacy,900,1440,24,900,24,0,0,1440,1632908780728,2,1024,2,48000,-16,experiment,0,even,MacIntel,6,354918,,,351653,75,352689,233797,74,31746,114553,356937,353703,357434,75,356937,Sternberg_updated,47,30507,51,yes,1024
92,92,598,598,black,no,experiment,Mozilla,Netscape,"5.0 (Macintosh; Intel Mac OS X 10_15_7) AppleWebKit/605.1.15 (KHTML, like Gecko) Version/14.1.2 Safari/605.1.15",legacy,legacy,legacy,0,uniform,1,1,right,51,51,51,51,0,0,0,51,51,0,0,0,51,51,51,0,0,51,51,0,29-08-21,29-08-21,11:45:38,Wed Sep 29 2021 11:45:38 GMT+0200 (CEST),The main experiment item,yes,0,0,/Users/ethan/Documents/GitHub/OpenSesame/Sternberg/experiment_files,0,0,0,no,mono,no,18,no,white,no,no,768,48,3.6.1,legacy,legacy,8 5 3 7 4 6,osweb,1.4.0,1,6,y,36,,0,right,,,right,right,right,right,584,,,31654,11733,14337,584,2,legacy,900,1440,24,900,24,0,0,1440,1632908780728,6,1024,2,48000,-16,experiment,0,even,MacIntel,6,360702,,,357436,75,358473,233797,74,31746,114553,362721,359488,363318,75,362721,Sternberg_updated,48,31091,52,yes,1024
91,91,597,597,black,no,experiment,Mozilla,Netscape,"5.0 (Macintosh; Intel Mac OS X 10_15_7) AppleWebKit/605.1.15 (KHTML, like Gecko) Version/14.1.2 Safari/605.1.15",legacy,legacy,legacy,0,uniform,0,0,left,52,52,52,52,0,0,0,52,52,0,0,0,52,52,52,0,0,52,52,0,29-08-21,29-08-21,11:45:38,Wed Sep 29 2021 11:45:38 GMT+0200 (CEST),The main experiment item,yes,0,0,/Users/ethan/Documents/GitHub/OpenSesame/Sternberg/experiment_files,0,0,0,no,mono,no,18,no,white,no,no,768,48,3.6.1,legacy,legacy,9 7 4 5 8,osweb,1.4.0,1,0,n,36,,0,right,,,right,right,right,right,530,,,31654,11733,14337,530,2,legacy,900,1440,24,900,24,0,0,1440,1632908780728,5,1024,2,48000,-16,experiment,0,even,MacIntel,6,366586,,,363322,75,364359,233797,74,31746,114553,368604,365371,369134,75,368604,Sternberg_updated,48,31621,53,yes,1024
91,91,594,594,black,no,experiment,Mozilla,Netscape,"5.0 (Macintosh; Intel Mac OS X 10_15_7) AppleWebKit/605.1.15 (KHTML, like Gecko) Version/14.1.2 Safari/605.1.15",legacy,legacy,legacy,0,uniform,1,1,right,53,53,53,53,0,0,0,53,53,0,0,0,53,53,53,0,0,53,53,0,29-08-21,29-08-21,11:45:38,Wed Sep 29 2021 11:45:38 GMT+0200 (CEST),The main experiment item,yes,0,0,/Users/ethan/Documents/GitHub/OpenSesame/Sternberg/experiment_files,0,0,0,no,mono,no,18,no,white,no,no,768,48,3.6.1,legacy,legacy,3 5 4 7,osweb,1.4.0,1,1,y,36,,0,right,,,right,right,right,right,476,,,31654,11733,14337,476,2,legacy,900,1440,24,900,24,0,0,1440,1632908780728,4,1024,2,48000,-16,experiment,0,even,MacIntel,3,372403,,,363322,75,370174,369138,74,31746,114553,374422,371188,374902,75,374421,Sternberg_updated,49,32097,54,yes,1024
91,91,595,595,black,no,experiment,Mozilla,Netscape,"5.0 (Macintosh; Intel Mac OS X 10_15_7) AppleWebKit/605.1.15 (KHTML, like Gecko) Version/14.1.2 Safari/605.1.15",legacy,legacy,legacy,0,uniform,1,1,left,54,54,54,54,0,0,0,54,54,0,0,0,54,54,54,0,0,54,54,0,29-08-21,29-08-21,11:45:38,Wed Sep 29 2021 11:45:38 GMT+0200 (CEST),The main experiment item,yes,0,0,/Users/ethan/Documents/GitHub/OpenSesame/Sternberg/experiment_files,0,0,0,no,mono,no,18,no,white,no,no,768,48,3.6.1,legacy,legacy,3 9 1,osweb,1.4.0,1,0,n,36,,0,left,,,right,right,right,left,601,,,31654,11733,14337,601,2,legacy,900,1440,24,900,24,0,0,1440,1632908780728,3,1024,2,48000,-16,experiment,0,even,MacIntel,7,378170,,,374905,75,375941,369138,74,31746,114553,380189,376955,380803,75,380188,Sternberg_updated,50,32698,55,yes,1024
91,91,596,596,black,no,experiment,Mozilla,Netscape,"5.0 (Macintosh; Intel Mac OS X 10_15_7) AppleWebKit/605.1.15 (KHTML, like Gecko) Version/14.1.2 Safari/605.1.15",legacy,legacy,legacy,0,uniform,1,1,left,55,55,55,55,0,0,0,55,55,0,0,0,55,55,55,0,0,55,55,0,29-08-21,29-08-21,11:45:38,Wed Sep 29 2021 11:45:38 GMT+0200 (CEST),The main experiment item,yes,0,0,/Users/ethan/Documents/GitHub/OpenSesame/Sternberg/experiment_files,0,0,0,no,mono,no,18,no,white,no,no,768,48,3.6.1,legacy,legacy,5 9 2 3,osweb,1.4.0,1,0,n,36,,0,left,right,,right,right,right,left,668,17007,,31654,11733,14337,668,2,legacy,900,1440,24,900,24,0,0,1440,1632908780728,4,1024,2,48000,-16,experiment,0,even,MacIntel,8,401088,381825,,380807,75,398860,369138,74,31746,114553,403107,399874,403788,75,403107,Sternberg_updated,51,33366,56,yes,1024
91,91,596,596,black,no,experiment,Mozilla,Netscape,"5.0 (Macintosh; Intel Mac OS X 10_15_7) AppleWebKit/605.1.15 (KHTML, like Gecko) Version/14.1.2 Safari/605.1.15",legacy,legacy,legacy,0,uniform,1,1,right,56,56,56,56,0,0,0,56,56,0,0,0,56,56,56,0,0,56,56,0,29-08-21,29-08-21,11:45:38,Wed Sep 29 2021 11:45:38 GMT+0200 (CEST),The main experiment item,yes,0,0,/Users/ethan/Documents/GitHub/OpenSesame/Sternberg/experiment_files,0,0,0,no,mono,no,18,no,white,no,no,768,48,3.6.1,legacy,legacy,9 4 2,osweb,1.4.0,1,1,y,36,,0,right,right,,right,right,right,right,626,17007,,31654,11733,14337,626,2,legacy,900,1440,24,900,24,0,0,1440,1632908780728,3,1024,2,48000,-16,experiment,0,even,MacIntel,9,407055,381825,,403792,75,404827,369138,74,31746,114553,409074,405840,409705,75,409074,Sternberg_updated,52,33992,57,yes,1024
91,91,596,596,black,no,experiment,Mozilla,Netscape,"5.0 (Macintosh; Intel Mac OS X 10_15_7) AppleWebKit/605.1.15 (KHTML, like Gecko) Version/14.1.2 Safari/605.1.15",legacy,legacy,legacy,0,uniform,1,1,left,57,57,57,57,0,0,0,57,57,0,0,0,57,57,57,0,0,57,57,0,29-08-21,29-08-21,11:45:38,Wed Sep 29 2021 11:45:38 GMT+0200 (CEST),The main experiment item,yes,0,0,/Users/ethan/Documents/GitHub/OpenSesame/Sternberg/experiment_files,0,0,0,no,mono,no,18,no,white,no,no,768,48,3.6.1,legacy,legacy,1 6 4,osweb,1.4.0,1,0,n,36,,0,left,right,,right,right,right,left,566,17007,,31654,11733,14337,566,2,legacy,900,1440,24,900,24,0,0,1440,1632908780728,3,1024,2,48000,-16,experiment,0,even,MacIntel,7,412972,381825,,409708,75,410744,369138,74,31746,114553,414991,411757,415572,75,414991,Sternberg_updated,53,34558,58,yes,1024
92,92,594,594,black,no,experiment,Mozilla,Netscape,"5.0 (Macintosh; Intel Mac OS X 10_15_7) AppleWebKit/605.1.15 (KHTML, like Gecko) Version/14.1.2 Safari/605.1.15",legacy,legacy,legacy,0,uniform,1,1,right,58,58,58,58,0,0,0,58,58,0,0,0,58,58,58,0,0,58,58,0,29-08-21,29-08-21,11:45:38,Wed Sep 29 2021 11:45:38 GMT+0200 (CEST),The main experiment item,yes,0,0,/Users/ethan/Documents/GitHub/OpenSesame/Sternberg/experiment_files,0,0,0,no,mono,no,18,no,white,no,no,768,48,3.6.1,legacy,legacy,7 1 3,osweb,1.4.0,1,2,y,36,,0,right,right,,right,right,right,right,488,17007,,31654,11733,14337,488,2,legacy,900,1440,24,900,24,0,0,1440,1632908780728,3,1024,2,48000,-16,experiment,0,even,MacIntel,1,418839,381825,,415575,75,416610,369138,74,31746,114553,420858,417624,421356,75,420858,Sternberg_updated,54,35046,59,yes,1024
92,92,592,592,black,no,experiment,Mozilla,Netscape,"5.0 (Macintosh; Intel Mac OS X 10_15_7) AppleWebKit/605.1.15 (KHTML, like Gecko) Version/14.1.2 Safari/605.1.15",legacy,legacy,legacy,0,uniform,1,1,right,59,59,59,59,0,0,0,59,59,0,0,0,59,59,59,0,0,59,59,0,29-08-21,29-08-21,11:45:38,Wed Sep 29 2021 11:45:38 GMT+0200 (CEST),The main experiment item,yes,0,0,/Users/ethan/Documents/GitHub/OpenSesame/Sternberg/experiment_files,0,0,0,no,mono,no,18,no,white,no,no,768,48,3.6.1,legacy,legacy,7 4 2 6 3 5,osweb,1.4.0,1,6,y,36,,0,right,right,,right,right,right,right,453,17007,,31654,11733,14337,453,2,legacy,900,1440,24,900,24,0,0,1440,1632908780728,6,1024,2,48000,-16,experiment,0,even,MacIntel,5,424623,381825,,421359,75,422394,369138,74,31746,114553,426642,423408,427105,75,426642,Sternberg_updated,55,35499,60,yes,1024
92,92,590,590,black,no,experiment,Mozilla,Netscape,"5.0 (Macintosh; Intel Mac OS X 10_15_7) AppleWebKit/605.1.15 (KHTML, like Gecko) Version/14.1.2 Safari/605.1.15",legacy,legacy,legacy,0,uniform,1,1,right,60,60,60,60,0,0,0,60,60,0,0,0,60,60,60,0,0,60,60,0,29-08-21,29-08-21,11:45:38,Wed Sep 29 2021 11:45:38 GMT+0200 (CEST),The main experiment item,yes,0,0,/Users/ethan/Documents/GitHub/OpenSesame/Sternberg/experiment_files,0,0,0,no,mono,no,18,no,white,no,no,768,48,3.6.1,legacy,legacy,1 4 9 3 2 5,osweb,1.4.0,1,3,y,36,,0,right,right,,right,right,right,right,518,17007,,31654,11733,14337,518,2,legacy,900,1440,24,900,24,0,0,1440,1632908780728,6,1024,2,48000,-16,experiment,0,even,MacIntel,9,430373,381825,,427108,75,428145,369138,74,31746,114553,432392,429158,432923,75,432392,Sternberg_updated,56,36017,61,yes,1024
90,90,591,591,black,no,experiment,Mozilla,Netscape,"5.0 (Macintosh; Intel Mac OS X 10_15_7) AppleWebKit/605.1.15 (KHTML, like Gecko) Version/14.1.2 Safari/605.1.15",legacy,legacy,legacy,0,uniform,0,0,right,61,61,61,61,0,0,0,61,61,0,0,0,61,61,61,0,0,61,61,0,29-08-21,29-08-21,11:45:38,Wed Sep 29 2021 11:45:38 GMT+0200 (CEST),The main experiment item,yes,0,0,/Users/ethan/Documents/GitHub/OpenSesame/Sternberg/experiment_files,0,0,0,no,mono,no,18,no,white,no,no,768,48,3.6.1,legacy,legacy,2 4 8 5 1 3,osweb,1.4.0,1,1,y,36,,0,left,right,,right,right,right,left,600,17007,,31654,11733,14337,600,2,legacy,900,1440,24,900,24,0,0,1440,1632908780728,6,1024,2,48000,-16,experiment,0,even,MacIntel,2,436190,381825,,432926,75,433962,369138,74,31746,114553,438209,434975,438822,75,438209,Sternberg_updated,56,36617,62,yes,1024
90,90,593,593,black,no,experiment,Mozilla,Netscape,"5.0 (Macintosh; Intel Mac OS X 10_15_7) AppleWebKit/605.1.15 (KHTML, like Gecko) Version/14.1.2 Safari/605.1.15",legacy,legacy,legacy,0,uniform,1,1,left,62,62,62,62,0,0,0,62,62,0,0,0,62,62,62,0,0,62,62,0,29-08-21,29-08-21,11:45:38,Wed Sep 29 2021 11:45:38 GMT+0200 (CEST),The main experiment item,yes,0,0,/Users/ethan/Documents/GitHub/OpenSesame/Sternberg/experiment_files,0,0,0,no,mono,no,18,no,white,no,no,768,48,3.6.1,legacy,legacy,1 6 4 3 9 7,osweb,1.4.0,1,0,n,36,,0,left,right,,right,right,right,left,759,17007,,31654,11733,14337,759,2,legacy,900,1440,24,900,24,0,0,1440,1632908780728,6,1024,2,48000,-16,experiment,0,even,MacIntel,8,442091,381825,,432926,75,439862,438825,74,31746,114553,444110,440876,444874,75,444110,Sternberg_updated,57,37376,63,yes,1024
91,91,595,595,black,no,experiment,Mozilla,Netscape,"5.0 (Macintosh; Intel Mac OS X 10_15_7) AppleWebKit/605.1.15 (KHTML, like Gecko) Version/14.1.2 Safari/605.1.15",legacy,legacy,legacy,0,uniform,1,1,left,63,63,63,63,0,0,0,63,63,0,0,0,63,63,63,0,0,63,63,0,29-08-21,29-08-21,11:45:38,Wed Sep 29 2021 11:45:38 GMT+0200 (CEST),The main experiment item,yes,0,0,/Users/ethan/Documents/GitHub/OpenSesame/Sternberg/experiment_files,0,0,0,no,mono,no,18,no,white,no,no,768,48,3.6.1,legacy,legacy,1 7 8 3 9,osweb,1.4.0,1,0,n,36,,0,left,right,,right,right,right,left,678,17007,,31654,11733,14337,678,2,legacy,900,1440,24,900,24,0,0,1440,1632908780728,5,1024,2,48000,-16,experiment,0,even,MacIntel,2,448141,381825,,444877,75,445913,438825,74,31746,114553,450160,446926,450841,75,450160,Sternberg_updated,58,38054,64,yes,1024
91,91,592,592,black,no,experiment,Mozilla,Netscape,"5.0 (Macintosh; Intel Mac OS X 10_15_7) AppleWebKit/605.1.15 (KHTML, like Gecko) Version/14.1.2 Safari/605.1.15",legacy,legacy,legacy,0,uniform,1,1,right,64,64,64,64,0,0,0,64,64,0,0,0,64,64,64,0,0,64,64,0,29-08-21,29-08-21,11:45:38,Wed Sep 29 2021 11:45:38 GMT+0200 (CEST),The main experiment item,yes,0,0,/Users/ethan/Documents/GitHub/OpenSesame/Sternberg/experiment_files,0,0,0,no,mono,no,18,no,white,no,no,768,48,3.6.1,legacy,legacy,3 9 7 6 4,osweb,1.4.0,1,3,y,36,,0,right,right,,right,right,right,right,446,17007,,31654,11733,14337,446,2,legacy,900,1440,24,900,24,0,0,1440,1632908780728,5,1024,2,48000,-16,experiment,0,even,MacIntel,7,454108,381825,,450843,75,451880,438825,74,31746,114553,456127,452893,456574,75,456127,Sternberg_updated,59,38500,65,yes,1024
91,91,590,590,black,no,experiment,Mozilla,Netscape,"5.0 (Macintosh; Intel Mac OS X 10_15_7) AppleWebKit/605.1.15 (KHTML, like Gecko) Version/14.1.2 Safari/605.1.15",legacy,legacy,legacy,0,uniform,1,1,left,65,65,65,65,0,0,0,65,65,0,0,0,65,65,65,0,0,65,65,0,29-08-21,29-08-21,11:45:38,Wed Sep 29 2021 11:45:38 GMT+0200 (CEST),The main experiment item,yes,0,0,/Users/ethan/Documents/GitHub/OpenSesame/Sternberg/experiment_files,0,0,0,no,mono,no,18,no,white,no,no,768,48,3.6.1,legacy,legacy,8 9,osweb,1.4.0,1,0,n,36,,0,left,right,,right,right,right,left,448,17007,,31654,11733,14337,448,2,legacy,900,1440,24,900,24,0,0,1440,1632908780728,2,1024,2,48000,-16,experiment,0,even,MacIntel,5,459842,381825,,456578,75,457613,438825,74,31746,114553,461861,458627,462325,75,461861,Sternberg_updated,60,38948,66,yes,1024
91,91,590,590,black,no,experiment,Mozilla,Netscape,"5.0 (Macintosh; Intel Mac OS X 10_15_7) AppleWebKit/605.1.15 (KHTML, like Gecko) Version/14.1.2 Safari/605.1.15",legacy,legacy,legacy,0,uniform,1,1,left,66,66,66,66,0,0,0,66,66,0,0,0,66,66,66,0,0,66,66,0,29-08-21,29-08-21,11:45:38,Wed Sep 29 2021 11:45:38 GMT+0200 (CEST),The main experiment item,yes,0,0,/Users/ethan/Documents/GitHub/OpenSesame/Sternberg/experiment_files,0,0,0,no,mono,no,18,no,white,no,no,768,48,3.6.1,legacy,legacy,6 9 5,osweb,1.4.0,1,0,n,36,,0,left,right,,right,right,right,left,610,17007,,31654,11733,14337,610,2,legacy,900,1440,24,900,24,0,0,1440,1632908780728,3,1024,2,48000,-16,experiment,0,even,MacIntel,8,465592,381825,,462328,75,463364,438825,74,31746,114553,467611,464377,468224,75,467611,Sternberg_updated,61,39558,67,yes,1024
91,91,589,589,black,no,experiment,Mozilla,Netscape,"5.0 (Macintosh; Intel Mac OS X 10_15_7) AppleWebKit/605.1.15 (KHTML, like Gecko) Version/14.1.2 Safari/605.1.15",legacy,legacy,legacy,0,uniform,1,1,right,67,67,67,67,0,0,0,67,67,0,0,0,67,67,67,0,0,67,67,0,29-08-21,29-08-21,11:45:38,Wed Sep 29 2021 11:45:38 GMT+0200 (CEST),The main experiment item,yes,0,0,/Users/ethan/Documents/GitHub/OpenSesame/Sternberg/experiment_files,0,0,0,no,mono,no,18,no,white,no,no,768,48,3.6.1,legacy,legacy,2 5 4 8 7,osweb,1.4.0,1,3,y,36,,0,right,right,,right,right,right,right,473,17007,,31654,11733,14337,473,2,legacy,900,1440,24,900,24,0,0,1440,1632908780728,5,1024,2,48000,-16,experiment,0,even,MacIntel,4,471493,381825,,468228,75,469265,438825,74,31746,114553,473512,470278,473992,75,473512,Sternberg_updated,62,40031,68,yes,1024
91,91,589,589,black,no,experiment,Mozilla,Netscape,"5.0 (Macintosh; Intel Mac OS X 10_15_7) AppleWebKit/605.1.15 (KHTML, like Gecko) Version/14.1.2 Safari/605.1.15",legacy,legacy,legacy,0,uniform,1,1,right,68,68,68,68,0,0,0,68,68,0,0,0,68,68,68,0,0,68,68,0,29-08-21,29-08-21,11:45:38,Wed Sep 29 2021 11:45:38 GMT+0200 (CEST),The main experiment item,yes,0,0,/Users/ethan/Documents/GitHub/OpenSesame/Sternberg/experiment_files,0,0,0,no,mono,no,18,no,white,no,no,768,48,3.6.1,legacy,legacy,5 2 6,osweb,1.4.0,1,2,y,36,,0,right,right,,right,right,right,right,604,17007,,31654,11733,14337,604,2,legacy,900,1440,24,900,24,0,0,1440,1632908780728,3,1024,2,48000,-16,experiment,0,even,MacIntel,2,477260,381825,,473995,75,475031,438825,74,31746,114553,479279,476045,479893,75,479279,Sternberg_updated,63,40635,69,yes,1024
91,91,588,588,black,no,experiment,Mozilla,Netscape,"5.0 (Macintosh; Intel Mac OS X 10_15_7) AppleWebKit/605.1.15 (KHTML, like Gecko) Version/14.1.2 Safari/605.1.15",legacy,legacy,legacy,0,uniform,1,1,left,69,69,69,69,0,0,0,69,69,0,0,0,69,69,69,0,0,69,69,0,29-08-21,29-08-21,11:45:38,Wed Sep 29 2021 11:45:38 GMT+0200 (CEST),The main experiment item,yes,0,0,/Users/ethan/Documents/GitHub/OpenSesame/Sternberg/experiment_files,0,0,0,no,mono,no,18,no,white,no,no,768,48,3.6.1,legacy,legacy,8 6 3 4 7,osweb,1.4.0,1,0,n,36,,0,left,right,,right,right,right,left,529,17007,,31654,11733,14337,529,2,legacy,900,1440,24,900,24,0,0,1440,1632908780728,5,1024,2,48000,-16,experiment,0,even,MacIntel,1,483160,381825,,479896,75,480939,438825,74,31746,114553,485180,481950,485727,75,485179,Sternberg_updated,64,41164,70,yes,1024
92,92,588,588,black,no,experiment,Mozilla,Netscape,"5.0 (Macintosh; Intel Mac OS X 10_15_7) AppleWebKit/605.1.15 (KHTML, like Gecko) Version/14.1.2 Safari/605.1.15",legacy,legacy,legacy,0,uniform,1,1,left,70,70,70,70,0,0,0,70,70,0,0,0,70,70,70,0,0,70,70,0,29-08-21,29-08-21,11:45:38,Wed Sep 29 2021 11:45:38 GMT+0200 (CEST),The main experiment item,yes,0,0,/Users/ethan/Documents/GitHub/OpenSesame/Sternberg/experiment_files,0,0,0,no,mono,no,18,no,white,no,no,768,48,3.6.1,legacy,legacy,9 8 2 7 4,osweb,1.4.0,1,0,n,36,,0,left,right,,right,right,right,left,591,17007,,31654,11733,14337,591,2,legacy,900,1440,24,900,24,0,0,1440,1632908780728,5,1024,2,48000,-16,experiment,0,even,MacIntel,5,488994,381825,,485730,75,486766,438825,74,31746,114553,491013,487780,491609,75,491013,Sternberg_updated,65,41755,71,yes,1024
92,92,588,588,black,no,experiment,Mozilla,Netscape,"5.0 (Macintosh; Intel Mac OS X 10_15_7) AppleWebKit/605.1.15 (KHTML, like Gecko) Version/14.1.2 Safari/605.1.15",legacy,legacy,legacy,0,uniform,1,1,left,71,71,71,71,0,0,0,71,71,0,0,0,71,71,71,0,0,71,71,0,29-08-21,29-08-21,11:45:38,Wed Sep 29 2021 11:45:38 GMT+0200 (CEST),The main experiment item,yes,0,0,/Users/ethan/Documents/GitHub/OpenSesame/Sternberg/experiment_files,0,0,0,no,mono,no,18,no,white,no,no,768,48,3.6.1,legacy,legacy,7 9,osweb,1.4.0,1,0,n,36,,0,left,right,,right,right,right,left,590,17007,,31654,11733,14337,590,2,legacy,900,1440,24,900,24,0,0,1440,1632908780728,2,1024,2,48000,-16,experiment,0,even,MacIntel,1,494878,381825,,491613,75,492649,438825,74,31746,114553,496897,493663,497494,75,496897,Sternberg_updated,66,42345,72,yes,1024
92,92,586,586,black,no,experiment,Mozilla,Netscape,"5.0 (Macintosh; Intel Mac OS X 10_15_7) AppleWebKit/605.1.15 (KHTML, like Gecko) Version/14.1.2 Safari/605.1.15",legacy,legacy,legacy,0,uniform,1,1,left,72,72,72,72,0,0,0,72,72,0,0,0,72,72,72,0,0,72,72,0,29-08-21,29-08-21,11:45:38,Wed Sep 29 2021 11:45:38 GMT+0200 (CEST),The main experiment item,yes,0,0,/Users/ethan/Documents/GitHub/OpenSesame/Sternberg/experiment_files,0,0,0,no,mono,no,18,no,white,no,no,768,48,3.6.1,legacy,legacy,2 6 4 3 9,osweb,1.4.0,1,0,n,36,,0,left,right,,right,right,right,left,457,17007,,31654,11733,14337,457,2,legacy,900,1440,24,900,24,0,0,1440,1632908780728,5,1024,2,48000,-16,experiment,0,even,MacIntel,1,500761,381825,,497497,75,498533,438825,74,31746,114553,502780,499547,503244,75,502780,Sternberg_updated,67,42802,73,yes,1024
92,92,584,584,black,no,experiment,Mozilla,Netscape,"5.0 (Macintosh; Intel Mac OS X 10_15_7) AppleWebKit/605.1.15 (KHTML, like Gecko) Version/14.1.2 Safari/605.1.15",legacy,legacy,legacy,0,uniform,1,1,right,73,73,73,73,0,0,0,73,73,0,0,0,73,73,73,0,0,73,73,0,29-08-21,29-08-21,11:45:38,Wed Sep 29 2021 11:45:38 GMT+0200 (CEST),The main experiment item,yes,0,0,/Users/ethan/Documents/GitHub/OpenSesame/Sternberg/experiment_files,0,0,0,no,mono,no,18,no,white,no,no,768,48,3.6.1,legacy,legacy,8 3,osweb,1.4.0,1,2,y,36,,0,right,right,,right,right,right,right,418,17007,,31654,11733,14337,418,2,legacy,900,1440,24,900,24,0,0,1440,1632908780728,2,1024,2,48000,-16,experiment,0,even,MacIntel,3,506512,381825,,503248,75,504283,438825,74,31746,114553,508530,505297,508961,75,508530,Sternberg_updated,68,43220,74,yes,1024
92,92,584,584,black,no,experiment,Mozilla,Netscape,"5.0 (Macintosh; Intel Mac OS X 10_15_7) AppleWebKit/605.1.15 (KHTML, like Gecko) Version/14.1.2 Safari/605.1.15",legacy,legacy,legacy,0,uniform,1,1,right,74,74,74,74,0,0,0,74,74,0,0,0,74,74,74,0,0,74,74,0,29-08-21,29-08-21,11:45:38,Wed Sep 29 2021 11:45:38 GMT+0200 (CEST),The main experiment item,yes,0,0,/Users/ethan/Documents/GitHub/OpenSesame/Sternberg/experiment_files,0,0,0,no,mono,no,18,no,white,no,no,768,48,3.6.1,legacy,legacy,2 3,osweb,1.4.0,1,1,y,36,,0,right,right,,right,right,right,right,587,17007,,31654,11733,14337,587,2,legacy,900,1440,24,900,24,0,0,1440,1632908780728,2,1024,2,48000,-16,experiment,0,even,MacIntel,2,512229,381825,,508964,75,510001,438825,74,31746,114553,514248,511014,514845,75,514248,Sternberg_updated,69,43807,75,yes,1024
92,92,583,583,black,no,experiment,Mozilla,Netscape,"5.0 (Macintosh; Intel Mac OS X 10_15_7) AppleWebKit/605.1.15 (KHTML, like Gecko) Version/14.1.2 Safari/605.1.15",legacy,legacy,legacy,0,uniform,1,1,left,75,75,75,75,0,0,0,75,75,0,0,0,75,75,75,0,0,75,75,0,29-08-21,29-08-21,11:45:38,Wed Sep 29 2021 11:45:38 GMT+0200 (CEST),The main experiment item,yes,0,0,/Users/ethan/Documents/GitHub/OpenSesame/Sternberg/experiment_files,0,0,0,no,mono,no,18,no,white,no,no,768,48,3.6.1,legacy,legacy,1 3 2 6 9,osweb,1.4.0,1,0,n,36,,0,left,right,,right,right,right,left,530,17007,,31654,11733,14337,530,2,legacy,900,1440,24,900,24,0,0,1440,1632908780728,5,1024,2,48000,-16,experiment,0,even,MacIntel,5,518113,381825,,514849,75,515884,438825,74,31746,114553,520132,516898,520679,75,520131,Sternberg_updated,70,44337,76,yes,1024
92,92,583,583,black,no,experiment,Mozilla,Netscape,"5.0 (Macintosh; Intel Mac OS X 10_15_7) AppleWebKit/605.1.15 (KHTML, like Gecko) Version/14.1.2 Safari/605.1.15",legacy,legacy,legacy,0,uniform,1,1,right,76,76,76,76,0,0,0,76,76,0,0,0,76,76,76,0,0,76,76,0,29-08-21,29-08-21,11:45:38,Wed Sep 29 2021 11:45:38 GMT+0200 (CEST),The main experiment item,yes,0,0,/Users/ethan/Documents/GitHub/OpenSesame/Sternberg/experiment_files,0,0,0,no,mono,no,18,no,white,no,no,768,48,3.6.1,legacy,legacy,9 6 2 4 1,osweb,1.4.0,1,4,y,36,,0,right,right,,right,right,right,right,518,17007,,31654,11733,14337,518,2,legacy,900,1440,24,900,24,0,0,1440,1632908780728,5,1024,2,48000,-16,experiment,0,even,MacIntel,4,523946,381825,,520682,75,521718,438825,74,31746,114553,525965,522732,526495,75,525965,Sternberg_updated,71,44855,77,yes,1024
92,92,580,580,black,no,experiment,Mozilla,Netscape,"5.0 (Macintosh; Intel Mac OS X 10_15_7) AppleWebKit/605.1.15 (KHTML, like Gecko) Version/14.1.2 Safari/605.1.15",legacy,legacy,legacy,0,uniform,1,1,right,77,77,77,77,0,0,0,77,77,0,0,0,77,77,77,0,0,77,77,0,29-08-21,29-08-21,11:45:38,Wed Sep 29 2021 11:45:38 GMT+0200 (CEST),The main experiment item,yes,0,0,/Users/ethan/Documents/GitHub/OpenSesame/Sternberg/experiment_files,0,0,0,no,mono,no,18,no,white,no,no,768,48,3.6.1,legacy,legacy,8 5 1 3 9,osweb,1.4.0,1,4,y,36,,0,right,right,,right,right,right,right,411,17007,,31654,11733,14337,411,2,legacy,900,1440,24,900,24,0,0,1440,1632908780728,5,1024,2,48000,-16,experiment,0,even,MacIntel,3,529764,381825,,526500,75,527535,438825,74,31746,114553,531782,528549,532196,75,531782,Sternberg_updated,72,45266,78,yes,1024
91,91,579,579,black,no,experiment,Mozilla,Netscape,"5.0 (Macintosh; Intel Mac OS X 10_15_7) AppleWebKit/605.1.15 (KHTML, like Gecko) Version/14.1.2 Safari/605.1.15",legacy,legacy,legacy,0,uniform,0,0,right,78,78,78,78,0,0,0,78,78,0,0,0,78,78,78,0,0,78,78,0,29-08-21,29-08-21,11:45:38,Wed Sep 29 2021 11:45:38 GMT+0200 (CEST),The main experiment item,yes,0,0,/Users/ethan/Documents/GitHub/OpenSesame/Sternberg/experiment_files,0,0,0,no,mono,no,18,no,white,no,no,768,48,3.6.1,legacy,legacy,3 9 6 2,osweb,1.4.0,1,4,y,36,,0,left,right,,right,right,right,left,499,17007,,31654,11733,14337,499,2,legacy,900,1440,24,900,24,0,0,1440,1632908780728,4,1024,2,48000,-16,experiment,0,even,MacIntel,2,535464,381825,,532199,75,533235,438825,74,31746,114553,537483,534249,537997,75,537483,Sternberg_updated,72,45765,79,yes,1024
91,91,578,578,black,no,experiment,Mozilla,Netscape,"5.0 (Macintosh; Intel Mac OS X 10_15_7) AppleWebKit/605.1.15 (KHTML, like Gecko) Version/14.1.2 Safari/605.1.15",legacy,legacy,legacy,0,uniform,1,1,right,79,79,79,79,0,0,0,79,79,0,0,0,79,79,79,0,0,79,79,0,29-08-21,29-08-21,11:45:38,Wed Sep 29 2021 11:45:38 GMT+0200 (CEST),The main experiment item,yes,0,0,/Users/ethan/Documents/GitHub/OpenSesame/Sternberg/experiment_files,0,0,0,no,mono,no,18,no,white,no,no,768,48,3.6.1,legacy,legacy,4 1 5,osweb,1.4.0,1,2,y,36,,0,right,right,,right,right,right,right,475,17007,,31654,11733,14337,475,2,legacy,900,1440,24,900,24,0,0,1440,1632908780728,3,1024,2,48000,-16,experiment,0,even,MacIntel,1,541264,381825,,532199,75,539036,538001,74,31746,114553,543283,540049,543764,75,543283,Sternberg_updated,73,46240,80,yes,1024
91,91,579,579,black,no,experiment,Mozilla,Netscape,"5.0 (Macintosh; Intel Mac OS X 10_15_7) AppleWebKit/605.1.15 (KHTML, like Gecko) Version/14.1.2 Safari/605.1.15",legacy,legacy,legacy,0,uniform,1,1,left,80,80,80,80,0,0,0,80,80,0,0,0,80,80,80,0,0,80,80,0,29-08-21,29-08-21,11:45:38,Wed Sep 29 2021 11:45:38 GMT+0200 (CEST),The main experiment item,yes,0,0,/Users/ethan/Documents/GitHub/OpenSesame/Sternberg/experiment_files,0,0,0,no,mono,no,18,no,white,no,no,768,48,3.6.1,legacy,legacy,7 1 5 6 3,osweb,1.4.0,1,0,n,36,,0,left,right,,right,right,right,left,684,17007,,31654,11733,14337,684,2,legacy,900,1440,24,900,24,0,0,1440,1632908780728,5,1024,2,48000,-16,experiment,0,even,MacIntel,8,547031,381825,,543767,75,544803,538001,74,31746,114553,549050,545816,549747,75,549050,Sternberg_updated,74,46924,81,yes,1024
91,91,580,580,black,no,experiment,Mozilla,Netscape,"5.0 (Macintosh; Intel Mac OS X 10_15_7) AppleWebKit/605.1.15 (KHTML, like Gecko) Version/14.1.2 Safari/605.1.15",legacy,legacy,legacy,0,uniform,1,1,left,81,81,81,81,0,0,0,81,81,0,0,0,81,81,81,0,0,81,81,0,29-08-21,29-08-21,11:45:38,Wed Sep 29 2021 11:45:38 GMT+0200 (CEST),The main experiment item,yes,0,0,/Users/ethan/Documents/GitHub/OpenSesame/Sternberg/experiment_files,0,0,0,no,mono,no,18,no,white,no,no,768,48,3.6.1,legacy,legacy,6 9 4 5 2,osweb,1.4.0,1,0,n,36,,0,left,right,,right,right,right,left,660,17007,,31654,11733,14337,660,2,legacy,900,1440,24,900,24,0,0,1440,1632908780728,5,1024,2,48000,-16,experiment,0,even,MacIntel,1,553015,381825,,549751,75,550787,538001,74,31746,114553,555034,551800,555698,75,555034,Sternberg_updated,75,47584,82,yes,1024
92,92,581,581,black,no,experiment,Mozilla,Netscape,"5.0 (Macintosh; Intel Mac OS X 10_15_7) AppleWebKit/605.1.15 (KHTML, like Gecko) Version/14.1.2 Safari/605.1.15",legacy,legacy,legacy,0,uniform,1,1,right,82,82,82,82,0,0,0,82,82,0,0,0,82,82,82,0,0,82,82,0,29-08-21,29-08-21,11:45:38,Wed Sep 29 2021 11:45:38 GMT+0200 (CEST),The main experiment item,yes,0,0,/Users/ethan/Documents/GitHub/OpenSesame/Sternberg/experiment_files,0,0,0,no,mono,no,18,no,white,no,no,768,48,3.6.1,legacy,legacy,8 7 3,osweb,1.4.0,1,1,y,36,,0,right,right,,right,right,right,right,674,17007,,31654,11733,14337,674,2,legacy,900,1440,24,900,24,0,0,1440,1632908780728,3,1024,2,48000,-16,experiment,0,even,MacIntel,8,558966,381825,,555701,75,556737,538001,74,31746,114553,560984,557750,561665,75,560984,Sternberg_updated,76,48258,83,yes,1024
92,92,581,581,black,no,experiment,Mozilla,Netscape,"5.0 (Macintosh; Intel Mac OS X 10_15_7) AppleWebKit/605.1.15 (KHTML, like Gecko) Version/14.1.2 Safari/605.1.15",legacy,legacy,legacy,0,uniform,1,1,right,83,83,83,83,0,0,0,83,83,0,0,0,83,83,83,0,0,83,83,0,29-08-21,29-08-21,11:45:38,Wed Sep 29 2021 11:45:38 GMT+0200 (CEST),The main experiment item,yes,0,0,/Users/ethan/Documents/GitHub/OpenSesame/Sternberg/experiment_files,0,0,0,no,mono,no,18,no,white,no,no,768,48,3.6.1,legacy,legacy,6 9 7 4 5 1,osweb,1.4.0,1,2,y,36,,0,right,right,,right,right,right,right,530,17007,,31654,11733,14337,530,2,legacy,900,1440,24,900,24,0,0,1440,1632908780728,6,1024,2,48000,-16,experiment,0,even,MacIntel,9,564933,381825,,561670,75,562707,538001,74,31746,114553,566952,563718,567482,75,566952,Sternberg_updated,77,48788,84,yes,1024
91,91,584,584,black,no,experiment,Mozilla,Netscape,"5.0 (Macintosh; Intel Mac OS X 10_15_7) AppleWebKit/605.1.15 (KHTML, like Gecko) Version/14.1.2 Safari/605.1.15",legacy,legacy,legacy,0,uniform,0,0,right,84,84,84,84,0,0,0,84,84,0,0,0,84,84,84,0,0,84,84,0,29-08-21,29-08-21,11:45:38,Wed Sep 29 2021 11:45:38 GMT+0200 (CEST),The main experiment item,yes,0,0,/Users/ethan/Documents/GitHub/OpenSesame/Sternberg/experiment_files,0,0,0,no,mono,no,18,no,white,no,no,768,48,3.6.1,legacy,legacy,8 5 4 7 3 1,osweb,1.4.0,1,2,y,36,,0,left,right,,right,right,right,left,852,17007,,31654,11733,14337,852,2,legacy,900,1440,24,900,24,0,0,1440,1632908780728,6,1024,2,48000,-16,experiment,0,even,MacIntel,5,570750,381825,,567487,75,568522,538001,74,31746,114553,572769,569535,573633,75,572768,Sternberg_updated,77,49640,85,yes,1024
91,91,585,585,black,no,experiment,Mozilla,Netscape,"5.0 (Macintosh; Intel Mac OS X 10_15_7) AppleWebKit/605.1.15 (KHTML, like Gecko) Version/14.1.2 Safari/605.1.15",legacy,legacy,legacy,0,uniform,1,1,left,85,85,85,85,0,0,0,85,85,0,0,0,85,85,85,0,0,85,85,0,29-08-21,29-08-21,11:45:38,Wed Sep 29 2021 11:45:38 GMT+0200 (CEST),The main experiment item,yes,0,0,/Users/ethan/Documents/GitHub/OpenSesame/Sternberg/experiment_files,0,0,0,no,mono,no,18,no,white,no,no,768,48,3.6.1,legacy,legacy,2 8 6 3 1,osweb,1.4.0,1,0,n,36,,0,left,right,,right,right,right,left,654,17007,,31654,11733,14337,654,2,legacy,900,1440,24,900,24,0,0,1440,1632908780728,5,1024,2,48000,-16,experiment,0,even,MacIntel,7,576900,381825,,567487,75,574672,573636,74,31746,114553,578919,575685,579583,75,578919,Sternberg_updated,78,50294,86,yes,1024
91,91,587,587,black,no,experiment,Mozilla,Netscape,"5.0 (Macintosh; Intel Mac OS X 10_15_7) AppleWebKit/605.1.15 (KHTML, like Gecko) Version/14.1.2 Safari/605.1.15",legacy,legacy,legacy,0,uniform,1,1,right,86,86,86,86,0,0,0,86,86,0,0,0,86,86,86,0,0,86,86,0,29-08-21,29-08-21,11:45:38,Wed Sep 29 2021 11:45:38 GMT+0200 (CEST),The main experiment item,yes,0,0,/Users/ethan/Documents/GitHub/OpenSesame/Sternberg/experiment_files,0,0,0,no,mono,no,18,no,white,no,no,768,48,3.6.1,legacy,legacy,8 9 5 6 7,osweb,1.4.0,1,1,y,36,,0,right,right,,right,right,right,right,768,17007,,31654,11733,14337,768,2,legacy,900,1440,24,900,24,0,0,1440,1632908780728,5,1024,2,48000,-16,experiment,0,even,MacIntel,8,582851,381825,,579585,75,580622,573636,74,31746,114553,584869,581636,585650,75,584869,Sternberg_updated,79,51062,87,yes,1024
91,91,584,584,black,no,experiment,Mozilla,Netscape,"5.0 (Macintosh; Intel Mac OS X 10_15_7) AppleWebKit/605.1.15 (KHTML, like Gecko) Version/14.1.2 Safari/605.1.15",legacy,legacy,legacy,0,uniform,1,1,right,87,87,87,87,0,0,0,87,87,0,0,0,87,87,87,0,0,87,87,0,29-08-21,29-08-21,11:45:38,Wed Sep 29 2021 11:45:38 GMT+0200 (CEST),The main experiment item,yes,0,0,/Users/ethan/Documents/GitHub/OpenSesame/Sternberg/experiment_files,0,0,0,no,mono,no,18,no,white,no,no,768,48,3.6.1,legacy,legacy,7 6,osweb,1.4.0,1,2,y,36,,0,right,right,,right,right,right,right,366,17007,,31654,11733,14337,366,2,legacy,900,1440,24,900,24,0,0,1440,1632908780728,2,1024,2,48000,-16,experiment,0,even,MacIntel,6,588918,381825,,585654,75,586689,573636,74,31746,114553,590937,587702,591317,75,590936,Sternberg_updated,80,51428,88,yes,1024
91,91,584,584,black,no,experiment,Mozilla,Netscape,"5.0 (Macintosh; Intel Mac OS X 10_15_7) AppleWebKit/605.1.15 (KHTML, like Gecko) Version/14.1.2 Safari/605.1.15",legacy,legacy,legacy,0,uniform,1,1,left,88,88,88,88,0,0,0,88,88,0,0,0,88,88,88,0,0,88,88,0,29-08-21,29-08-21,11:45:38,Wed Sep 29 2021 11:45:38 GMT+0200 (CEST),The main experiment item,yes,0,0,/Users/ethan/Documents/GitHub/OpenSesame/Sternberg/experiment_files,0,0,0,no,mono,no,18,no,white,no,no,768,48,3.6.1,legacy,legacy,1 5 3 2 8,osweb,1.4.0,1,0,n,36,,0,left,right,,right,right,right,left,584,17007,,31654,11733,14337,584,2,legacy,900,1440,24,900,24,0,0,1440,1632908780728,5,1024,2,48000,-16,experiment,0,even,MacIntel,4,594585,381825,,591321,75,592356,573636,74,31746,114553,596604,593370,597201,75,596603,Sternberg_updated,81,52012,89,yes,1024
91,91,583,583,black,no,experiment,Mozilla,Netscape,"5.0 (Macintosh; Intel Mac OS X 10_15_7) AppleWebKit/605.1.15 (KHTML, like Gecko) Version/14.1.2 Safari/605.1.15",legacy,legacy,legacy,0,uniform,1,1,left,89,89,89,89,0,0,0,89,89,0,0,0,89,89,89,0,0,89,89,0,29-08-21,29-08-21,11:45:38,Wed Sep 29 2021 11:45:38 GMT+0200 (CEST),The main experiment item,yes,0,0,/Users/ethan/Documents/GitHub/OpenSesame/Sternberg/experiment_files,0,0,0,no,mono,no,18,no,white,no,no,768,48,3.6.1,legacy,legacy,5 2,osweb,1.4.0,1,0,n,36,,0,left,right,,right,right,right,left,439,17007,,31654,11733,14337,439,2,legacy,900,1440,24,900,24,0,0,1440,1632908780728,2,1024,2,48000,-16,experiment,0,even,MacIntel,7,600468,381825,,597204,75,598240,573636,74,31746,114553,602487,599253,602935,75,602487,Sternberg_updated,82,52451,90,yes,1024
91,91,582,582,black,no,experiment,Mozilla,Netscape,"5.0 (Macintosh; Intel Mac OS X 10_15_7) AppleWebKit/605.1.15 (KHTML, like Gecko) Version/14.1.2 Safari/605.1.15",legacy,legacy,legacy,0,uniform,1,1,left,90,90,90,90,0,0,0,90,90,0,0,0,90,90,90,0,0,90,90,0,29-08-21,29-08-21,11:45:38,Wed Sep 29 2021 11:45:38 GMT+0200 (CEST),The main experiment item,yes,0,0,/Users/ethan/Documents/GitHub/OpenSesame/Sternberg/experiment_files,0,0,0,no,mono,no,18,no,white,no,no,768,48,3.6.1,legacy,legacy,6 8,osweb,1.4.0,1,0,n,36,,0,left,right,,right,right,right,left,505,17007,,31654,11733,14337,505,2,legacy,900,1440,24,900,24,0,0,1440,1632908780728,2,1024,2,48000,-16,experiment,0,even,MacIntel,9,606204,381825,,602938,75,603974,573636,74,31746,114553,608222,604993,608735,75,608222,Sternberg_updated,83,52956,91,yes,1024
91,91,582,582,black,no,experiment,Mozilla,Netscape,"5.0 (Macintosh; Intel Mac OS X 10_15_7) AppleWebKit/605.1.15 (KHTML, like Gecko) Version/14.1.2 Safari/605.1.15",legacy,legacy,legacy,0,uniform,1,1,left,91,91,91,91,0,0,0,91,91,0,0,0,91,91,91,0,0,91,91,0,29-08-21,29-08-21,11:45:38,Wed Sep 29 2021 11:45:38 GMT+0200 (CEST),The main experiment item,yes,0,0,/Users/ethan/Documents/GitHub/OpenSesame/Sternberg/experiment_files,0,0,0,no,mono,no,18,no,white,no,no,768,48,3.6.1,legacy,legacy,2 8 9,osweb,1.4.0,1,0,n,36,,0,left,right,,right,right,right,left,587,17007,,31654,11733,14337,587,2,legacy,900,1440,24,900,24,0,0,1440,1632908780728,3,1024,2,48000,-16,experiment,0,even,MacIntel,6,612003,381825,,608739,75,609776,573636,74,31746,114553,614021,610788,614618,75,614021,Sternberg_updated,84,53543,92,yes,1024
91,91,581,581,black,no,experiment,Mozilla,Netscape,"5.0 (Macintosh; Intel Mac OS X 10_15_7) AppleWebKit/605.1.15 (KHTML, like Gecko) Version/14.1.2 Safari/605.1.15",legacy,legacy,legacy,0,uniform,1,1,right,92,92,92,92,0,0,0,92,92,0,0,0,92,92,92,0,0,92,92,0,29-08-21,29-08-21,11:45:38,Wed Sep 29 2021 11:45:38 GMT+0200 (CEST),The main experiment item,yes,0,0,/Users/ethan/Documents/GitHub/OpenSesame/Sternberg/experiment_files,0,0,0,no,mono,no,18,no,white,no,no,768,48,3.6.1,legacy,legacy,8 1 6,osweb,1.4.0,1,3,y,36,,0,right,right,,right,right,right,right,453,17007,,31654,11733,14337,453,2,legacy,900,1440,24,900,24,0,0,1440,1632908780728,3,1024,2,48000,-16,experiment,0,even,MacIntel,6,617886,381825,,614621,75,615659,573636,74,31746,114553,619905,616671,620369,75,619905,Sternberg_updated,85,53996,93,yes,1024
91,91,581,581,black,no,experiment,Mozilla,Netscape,"5.0 (Macintosh; Intel Mac OS X 10_15_7) AppleWebKit/605.1.15 (KHTML, like Gecko) Version/14.1.2 Safari/605.1.15",legacy,legacy,legacy,0,uniform,1,1,right,93,93,93,93,0,0,0,93,93,0,0,0,93,93,93,0,0,93,93,0,29-08-21,29-08-21,11:45:38,Wed Sep 29 2021 11:45:38 GMT+0200 (CEST),The main experiment item,yes,0,0,/Users/ethan/Documents/GitHub/OpenSesame/Sternberg/experiment_files,0,0,0,no,mono,no,18,no,white,no,no,768,48,3.6.1,legacy,legacy,9 5 8 1,osweb,1.4.0,1,2,y,36,,0,right,right,,right,right,right,right,572,17007,,31654,11733,14337,572,2,legacy,900,1440,24,900,24,0,0,1440,1632908780728,4,1024,2,48000,-16,experiment,0,even,MacIntel,5,623637,381825,,620372,75,621408,573636,74,31746,114553,625656,622422,626236,75,625655,Sternberg_updated,86,54568,94,yes,1024
92,92,579,579,black,no,experiment,Mozilla,Netscape,"5.0 (Macintosh; Intel Mac OS X 10_15_7) AppleWebKit/605.1.15 (KHTML, like Gecko) Version/14.1.2 Safari/605.1.15",legacy,legacy,legacy,0,uniform,1,1,right,94,94,94,94,0,0,0,94,94,0,0,0,94,94,94,0,0,94,94,0,29-08-21,29-08-21,11:45:38,Wed Sep 29 2021 11:45:38 GMT+0200 (CEST),The main experiment item,yes,0,0,/Users/ethan/Documents/GitHub/OpenSesame/Sternberg/experiment_files,0,0,0,no,mono,no,18,no,white,no,no,768,48,3.6.1,legacy,legacy,6 7 9 3 1 2,osweb,1.4.0,1,1,y,36,,0,right,right,,right,right,right,right,432,17007,,31654,11733,14337,432,2,legacy,900,1440,24,900,24,0,0,1440,1632908780728,6,1024,2,48000,-16,experiment,0,even,MacIntel,6,629504,381825,,626238,75,627275,573636,74,31746,114553,631523,628289,631970,75,631522,Sternberg_updated,87,55000,95,yes,1024
92,92,578,578,black,no,experiment,Mozilla,Netscape,"5.0 (Macintosh; Intel Mac OS X 10_15_7) AppleWebKit/605.1.15 (KHTML, like Gecko) Version/14.1.2 Safari/605.1.15",legacy,legacy,legacy,0,uniform,1,1,right,95,95,95,95,0,0,0,95,95,0,0,0,95,95,95,0,0,95,95,0,29-08-21,29-08-21,11:45:38,Wed Sep 29 2021 11:45:38 GMT+0200 (CEST),The main experiment item,yes,0,0,/Users/ethan/Documents/GitHub/OpenSesame/Sternberg/experiment_files,0,0,0,no,mono,no,18,no,white,no,no,768,48,3.6.1,legacy,legacy,3 4 9 6 2 9,osweb,1.4.0,1,5,y,36,,0,right,right,,right,right,right,right,533,17007,,31654,11733,14337,533,2,legacy,900,1440,24,900,24,0,0,1440,1632908780728,6,1024,2,48000,-16,experiment,0,even,MacIntel,2,635237,381825,,631973,75,633009,573636,74,31746,114553,637256,634023,637804,75,637256,Sternberg_updated,88,55533,96,yes,1024
92,92,579,579,black,no,experiment,Mozilla,Netscape,"5.0 (Macintosh; Intel Mac OS X 10_15_7) AppleWebKit/605.1.15 (KHTML, like Gecko) Version/14.1.2 Safari/605.1.15",legacy,legacy,legacy,0,uniform,1,1,left,96,96,96,96,0,0,0,96,96,0,0,0,96,96,96,0,0,96,96,0,29-08-21,29-08-21,11:45:38,Wed Sep 29 2021 11:45:38 GMT+0200 (CEST),The main experiment item,yes,0,0,/Users/ethan/Documents/GitHub/OpenSesame/Sternberg/experiment_files,0,0,0,no,mono,no,18,no,white,no,no,768,48,3.6.1,legacy,legacy,1 4 9 2 5,osweb,1.4.0,1,0,n,36,,0,left,right,,right,right,right,left,597,17007,,31654,11733,14337,597,2,legacy,900,1440,24,900,24,0,0,1440,1632908780728,5,1024,2,48000,-16,experiment,0,even,MacIntel,7,641071,381825,,637807,75,638843,573636,74,31746,114553,643090,639856,643704,75,643090,Sternberg_updated,89,56130,97,yes,1024
92,92,578,578,black,no,experiment,Mozilla,Netscape,"5.0 (Macintosh; Intel Mac OS X 10_15_7) AppleWebKit/605.1.15 (KHTML, like Gecko) Version/14.1.2 Safari/605.1.15",legacy,legacy,legacy,0,uniform,1,1,left,97,97,97,97,0,0,0,97,97,0,0,0,97,97,97,0,0,97,97,0,29-08-21,29-08-21,11:45:38,Wed Sep 29 2021 11:45:38 GMT+0200 (CEST),The main experiment item,yes,0,0,/Users/ethan/Documents/GitHub/OpenSesame/Sternberg/experiment_files,0,0,0,no,mono,no,18,no,white,no,no,768,48,3.6.1,legacy,legacy,4 2 7 6 1 3,osweb,1.4.0,1,0,n,36,,0,left,right,right,right,right,right,left,509,17007,17752,31654,11733,14337,509,2,legacy,900,1440,24,900,24,0,0,1440,1632908780728,6,1024,2,48000,-16,experiment,0,even,MacIntel,8,664740,381825,644729,643707,75,662514,573636,74,31746,114553,666758,663525,667272,75,666758,Sternberg_updated,90,56639,98,yes,1024
92,92,578,578,black,no,experiment,Mozilla,Netscape,"5.0 (Macintosh; Intel Mac OS X 10_15_7) AppleWebKit/605.1.15 (KHTML, like Gecko) Version/14.1.2 Safari/605.1.15",legacy,legacy,legacy,0,uniform,1,1,right,98,98,98,98,0,0,0,98,98,0,0,0,98,98,98,0,0,98,98,0,29-08-21,29-08-21,11:45:38,Wed Sep 29 2021 11:45:38 GMT+0200 (CEST),The main experiment item,yes,0,0,/Users/ethan/Documents/GitHub/OpenSesame/Sternberg/experiment_files,0,0,0,no,mono,no,18,no,white,no,no,768,48,3.6.1,legacy,legacy,6 7 8 5,osweb,1.4.0,1,3,y,36,,0,right,right,right,right,right,right,right,582,17007,17752,31654,11733,14337,582,2,legacy,900,1440,24,900,24,0,0,1440,1632908780728,4,1024,2,48000,-16,experiment,0,even,MacIntel,8,670540,381825,644729,667275,75,668312,573636,74,31746,114553,672559,669325,673156,75,672559,Sternberg_updated,91,57221,99,yes,1024
92,92,577,577,black,no,experiment,Mozilla,Netscape,"5.0 (Macintosh; Intel Mac OS X 10_15_7) AppleWebKit/605.1.15 (KHTML, like Gecko) Version/14.1.2 Safari/605.1.15",legacy,legacy,legacy,0,uniform,1,1,right,99,99,99,99,0,0,0,99,99,0,0,0,99,99,99,0,0,99,99,0,29-08-21,29-08-21,11:45:38,Wed Sep 29 2021 11:45:38 GMT+0200 (CEST),The main experiment item,yes,0,0,/Users/ethan/Documents/GitHub/OpenSesame/Sternberg/experiment_files,0,0,0,no,mono,no,18,no,white,no,no,768,48,3.6.1,legacy,legacy,4 3 2 5 8,osweb,1.4.0,1,2,y,36,,0,right,right,right,right,right,right,right,433,17007,17752,31654,11733,14337,433,2,legacy,900,1440,24,900,24,0,0,1440,1632908780728,5,1024,2,48000,-16,experiment,0,even,MacIntel,3,676424,381825,644729,673159,75,674195,573636,74,31746,114553,678442,675209,678890,75,678442,Sternberg_updated,92,57654,100,yes,1024
92,92,575,575,black,no,experiment,Mozilla,Netscape,"5.0 (Macintosh; Intel Mac OS X 10_15_7) AppleWebKit/605.1.15 (KHTML, like Gecko) Version/14.1.2 Safari/605.1.15",legacy,legacy,legacy,0,uniform,1,1,left,100,100,100,100,0,0,0,100,100,0,0,0,100,100,100,0,0,100,100,0,29-08-21,29-08-21,11:45:38,Wed Sep 29 2021 11:45:38 GMT+0200 (CEST),The main experiment item,yes,0,0,/Users/ethan/Documents/GitHub/OpenSesame/Sternberg/experiment_files,0,0,0,no,mono,no,18,no,white,no,no,768,48,3.6.1,legacy,legacy,5,osweb,1.4.0,1,0,n,36,,0,left,right,right,right,right,right,left,430,17007,17752,31654,11733,14337,430,2,legacy,900,1440,24,900,24,0,0,1440,1632908780728,1,1024,2,48000,-16,experiment,0,even,MacIntel,8,682157,381825,644729,678893,75,679929,573636,74,31746,114553,684176,680942,684624,75,684176,Sternberg_updated,93,58084,101,yes,1024
92,92,575,575,black,no,experiment,Mozilla,Netscape,"5.0 (Macintosh; Intel Mac OS X 10_15_7) AppleWebKit/605.1.15 (KHTML, like Gecko) Version/14.1.2 Safari/605.1.15",legacy,legacy,legacy,0,uniform,1,1,left,101,101,101,101,0,0,0,101,101,0,0,0,101,101,101,0,0,101,101,0,29-08-21,29-08-21,11:45:38,Wed Sep 29 2021 11:45:38 GMT+0200 (CEST),The main experiment item,yes,0,0,/Users/ethan/Documents/GitHub/OpenSesame/Sternberg/experiment_files,0,0,0,no,mono,no,18,no,white,no,no,768,48,3.6.1,legacy,legacy,7 3 2 8,osweb,1.4.0,1,0,n,36,,0,left,right,right,right,right,right,left,578,17007,17752,31654,11733,14337,578,2,legacy,900,1440,24,900,24,0,0,1440,1632908780728,4,1024,2,48000,-16,experiment,0,even,MacIntel,4,687891,381825,644729,684627,75,685662,573636,74,31746,114553,689910,686676,690490,75,689910,Sternberg_updated,94,58662,102,yes,1024
92,92,575,575,black,no,experiment,Mozilla,Netscape,"5.0 (Macintosh; Intel Mac OS X 10_15_7) AppleWebKit/605.1.15 (KHTML, like Gecko) Version/14.1.2 Safari/605.1.15",legacy,legacy,legacy,0,uniform,1,1,right,102,102,102,102,0,0,0,102,102,0,0,0,102,102,102,0,0,102,102,0,29-08-21,29-08-21,11:45:38,Wed Sep 29 2021 11:45:38 GMT+0200 (CEST),The main experiment item,yes,0,0,/Users/ethan/Documents/GitHub/OpenSesame/Sternberg/experiment_files,0,0,0,no,mono,no,18,no,white,no,no,768,48,3.6.1,legacy,legacy,5 7 8 2 3 8,osweb,1.4.0,1,5,y,36,,0,right,right,right,right,right,right,right,584,17007,17752,31654,11733,14337,584,2,legacy,900,1440,24,900,24,0,0,1440,1632908780728,6,1024,2,48000,-16,experiment,0,even,MacIntel,3,693758,381825,644729,690494,75,691530,573636,74,31746,114553,695776,692543,696374,75,695776,Sternberg_updated,95,59246,103,yes,1024
92,92,574,574,black,no,experiment,Mozilla,Netscape,"5.0 (Macintosh; Intel Mac OS X 10_15_7) AppleWebKit/605.1.15 (KHTML, like Gecko) Version/14.1.2 Safari/605.1.15",legacy,legacy,legacy,0,uniform,1,1,left,103,103,103,103,0,0,0,103,103,0,0,0,103,103,103,0,0,103,103,0,29-08-21,29-08-21,11:45:38,Wed Sep 29 2021 11:45:38 GMT+0200 (CEST),The main experiment item,yes,0,0,/Users/ethan/Documents/GitHub/OpenSesame/Sternberg/experiment_files,0,0,0,no,mono,no,18,no,white,no,no,768,48,3.6.1,legacy,legacy,2 5 1 4,osweb,1.4.0,1,0,n,36,,0,left,right,right,right,right,right,left,414,17007,17752,31654,11733,14337,414,2,legacy,900,1440,24,900,24,0,0,1440,1632908780728,4,1024,2,48000,-16,experiment,0,even,MacIntel,6,699642,381825,644729,696378,75,697414,573636,74,31746,114553,701661,698427,702092,75,701661,Sternberg_updated,96,59660,104,yes,1024
92,92,573,573,black,no,experiment,Mozilla,Netscape,"5.0 (Macintosh; Intel Mac OS X 10_15_7) AppleWebKit/605.1.15 (KHTML, like Gecko) Version/14.1.2 Safari/605.1.15",legacy,legacy,legacy,0,uniform,1,1,left,104,104,104,104,0,0,0,104,104,0,0,0,104,104,104,0,0,104,104,0,29-08-21,29-08-21,11:45:38,Wed Sep 29 2021 11:45:38 GMT+0200 (CEST),The main experiment item,yes,0,0,/Users/ethan/Documents/GitHub/OpenSesame/Sternberg/experiment_files,0,0,0,no,mono,no,18,no,white,no,no,768,48,3.6.1,legacy,legacy,1 7 5 2 9,osweb,1.4.0,1,0,n,36,,0,left,right,right,right,right,right,left,496,17007,17752,31654,11733,14337,496,2,legacy,900,1440,24,900,24,0,0,1440,1632908780728,5,1024,2,48000,-16,experiment,0,even,MacIntel,3,705359,381825,644729,702095,75,703131,573636,74,31746,114553,707378,704144,707892,75,707378,Sternberg_updated,97,60156,105,yes,1024
92,92,573,573,black,no,experiment,Mozilla,Netscape,"5.0 (Macintosh; Intel Mac OS X 10_15_7) AppleWebKit/605.1.15 (KHTML, like Gecko) Version/14.1.2 Safari/605.1.15",legacy,legacy,legacy,0,uniform,0,0,right,105,105,105,105,0,0,0,105,105,0,0,0,105,105,105,0,0,105,105,0,29-08-21,29-08-21,11:45:38,Wed Sep 29 2021 11:45:38 GMT+0200 (CEST),The main experiment item,yes,0,0,/Users/ethan/Documents/GitHub/OpenSesame/Sternberg/experiment_files,0,0,0,no,mono,no,18,no,white,no,no,768,48,3.6.1,legacy,legacy,9 1 6 7 8,osweb,1.4.0,1,1,y,36,,0,left,right,right,right,right,right,left,554,17007,17752,31654,11733,14337,554,2,legacy,900,1440,24,900,24,0,0,1440,1632908780728,5,1024,2,48000,-16,experiment,0,even,MacIntel,9,711159,381825,644729,707895,75,708931,573636,74,31746,114553,713178,709944,713742,75,713178,Sternberg_updated,97,60710,106,yes,1024
92,92,573,573,black,no,experiment,Mozilla,Netscape,"5.0 (Macintosh; Intel Mac OS X 10_15_7) AppleWebKit/605.1.15 (KHTML, like Gecko) Version/14.1.2 Safari/605.1.15",legacy,legacy,legacy,0,uniform,1,1,right,106,106,106,106,0,0,0,106,106,0,0,0,106,106,106,0,0,106,106,0,29-08-21,29-08-21,11:45:38,Wed Sep 29 2021 11:45:38 GMT+0200 (CEST),The main experiment item,yes,0,0,/Users/ethan/Documents/GitHub/OpenSesame/Sternberg/experiment_files,0,0,0,no,mono,no,18,no,white,no,no,768,48,3.6.1,legacy,legacy,5 7 3 6 2,osweb,1.4.0,1,5,y,36,,0,right,right,right,right,right,right,right,549,17007,17752,31654,11733,14337,549,2,legacy,900,1440,24,900,24,0,0,1440,1632908780728,5,1024,2,48000,-16,experiment,0,even,MacIntel,2,717010,381825,644729,707895,75,714781,713745,74,31746,114553,719029,715795,719593,75,719028,Sternberg_updated,98,61259,107,yes,1024
92,92,575,575,black,no,experiment,Mozilla,Netscape,"5.0 (Macintosh; Intel Mac OS X 10_15_7) AppleWebKit/605.1.15 (KHTML, like Gecko) Version/14.1.2 Safari/605.1.15",legacy,legacy,legacy,0,uniform,1,1,left,107,107,107,107,0,0,0,107,107,0,0,0,107,107,107,0,0,107,107,0,29-08-21,29-08-21,11:45:38,Wed Sep 29 2021 11:45:38 GMT+0200 (CEST),The main experiment item,yes,0,0,/Users/ethan/Documents/GitHub/OpenSesame/Sternberg/experiment_files,0,0,0,no,mono,no,18,no,white,no,no,768,48,3.6.1,legacy,legacy,6 3 1 7 9 8,osweb,1.4.0,1,0,n,36,,0,left,right,right,right,right,right,left,879,17007,17752,31654,11733,14337,879,2,legacy,900,1440,24,900,24,0,0,1440,1632908780728,6,1024,2,48000,-16,experiment,0,even,MacIntel,4,722860,381825,644729,719596,75,720632,713745,74,31746,114553,724879,721645,725759,75,724879,Sternberg_updated,99,62138,108,yes,1024
92,92,574,574,black,no,experiment,Mozilla,Netscape,"5.0 (Macintosh; Intel Mac OS X 10_15_7) AppleWebKit/605.1.15 (KHTML, like Gecko) Version/14.1.2 Safari/605.1.15",legacy,legacy,legacy,0,uniform,1,1,right,108,108,108,108,0,0,0,108,108,0,0,0,108,108,108,0,0,108,108,0,29-08-21,29-08-21,11:45:38,Wed Sep 29 2021 11:45:38 GMT+0200 (CEST),The main experiment item,yes,0,0,/Users/ethan/Documents/GitHub/OpenSesame/Sternberg/experiment_files,0,0,0,no,mono,no,18,no,white,no,no,768,48,3.6.1,legacy,legacy,6 8 9 3 4 9,osweb,1.4.0,1,5,y,36,,0,right,right,right,right,right,right,right,420,17007,17752,31654,11733,14337,420,2,legacy,900,1440,24,900,24,0,0,1440,1632908780728,6,1024,2,48000,-16,experiment,0,even,MacIntel,4,729027,381825,644729,725763,75,726799,713745,74,31746,114553,731046,727812,731477,75,731046,Sternberg_updated,100,62558,109,yes,1024
92,92,578,578,black,no,experiment,Mozilla,Netscape,"5.0 (Macintosh; Intel Mac OS X 10_15_7) AppleWebKit/605.1.15 (KHTML, like Gecko) Version/14.1.2 Safari/605.1.15",legacy,legacy,legacy,0,uniform,1,1,left,109,109,109,109,0,0,0,109,109,0,0,0,109,109,109,0,0,109,109,0,29-08-21,29-08-21,11:45:38,Wed Sep 29 2021 11:45:38 GMT+0200 (CEST),The main experiment item,yes,0,0,/Users/ethan/Documents/GitHub/OpenSesame/Sternberg/experiment_files,0,0,0,no,mono,no,18,no,white,no,no,768,48,3.6.1,legacy,legacy,2 8 7 9 5 3,osweb,1.4.0,1,0,n,36,,0,left,right,right,right,right,right,left,1004,17007,17752,31654,11733,14337,1004,2,legacy,900,1440,24,900,24,0,0,1440,1632908780728,6,1024,2,48000,-16,experiment,0,even,MacIntel,6,734745,381825,644729,731480,75,732514,713745,74,31746,114553,736763,733529,737777,75,736763,Sternberg_updated,101,63562,110,yes,1024
92,92,577,577,black,no,experiment,Mozilla,Netscape,"5.0 (Macintosh; Intel Mac OS X 10_15_7) AppleWebKit/605.1.15 (KHTML, like Gecko) Version/14.1.2 Safari/605.1.15",legacy,legacy,legacy,0,uniform,1,1,left,110,110,110,110,0,0,0,110,110,0,0,0,110,110,110,0,0,110,110,0,29-08-21,29-08-21,11:45:38,Wed Sep 29 2021 11:45:38 GMT+0200 (CEST),The main experiment item,yes,0,0,/Users/ethan/Documents/GitHub/OpenSesame/Sternberg/experiment_files,0,0,0,no,mono,no,18,no,white,no,no,768,48,3.6.1,legacy,legacy,5 7 3,osweb,1.4.0,1,0,n,36,,0,left,right,right,right,right,right,left,518,17007,17752,31654,11733,14337,518,2,legacy,900,1440,24,900,24,0,0,1440,1632908780728,3,1024,2,48000,-16,experiment,0,even,MacIntel,9,741045,381825,644729,737780,75,738817,713745,74,31746,114553,743064,739830,743595,75,743063,Sternberg_updated,102,64080,111,yes,1024
92,92,576,576,black,no,experiment,Mozilla,Netscape,"5.0 (Macintosh; Intel Mac OS X 10_15_7) AppleWebKit/605.1.15 (KHTML, like Gecko) Version/14.1.2 Safari/605.1.15",legacy,legacy,legacy,0,uniform,1,1,right,111,111,111,111,0,0,0,111,111,0,0,0,111,111,111,0,0,111,111,0,29-08-21,29-08-21,11:45:38,Wed Sep 29 2021 11:45:38 GMT+0200 (CEST),The main experiment item,yes,0,0,/Users/ethan/Documents/GitHub/OpenSesame/Sternberg/experiment_files,0,0,0,no,mono,no,18,no,white,no,no,768,48,3.6.1,legacy,legacy,7 8 4 6 9 5,osweb,1.4.0,1,4,y,36,,0,right,right,right,right,right,right,right,420,17007,17752,31654,11733,14337,420,2,legacy,900,1440,24,900,24,0,0,1440,1632908780728,6,1024,2,48000,-16,experiment,0,even,MacIntel,6,746862,381825,644729,743597,75,744633,713745,74,31746,114553,748881,745647,749310,75,748881,Sternberg_updated,103,64500,112,yes,1024
92,92,576,576,black,no,experiment,Mozilla,Netscape,"5.0 (Macintosh; Intel Mac OS X 10_15_7) AppleWebKit/605.1.15 (KHTML, like Gecko) Version/14.1.2 Safari/605.1.15",legacy,legacy,legacy,0,uniform,1,1,left,112,112,112,112,0,0,0,112,112,0,0,0,112,112,112,0,0,112,112,0,29-08-21,29-08-21,11:45:38,Wed Sep 29 2021 11:45:38 GMT+0200 (CEST),The main experiment item,yes,0,0,/Users/ethan/Documents/GitHub/OpenSesame/Sternberg/experiment_files,0,0,0,no,mono,no,18,no,white,no,no,768,48,3.6.1,legacy,legacy,7 4 2 8 1 9,osweb,1.4.0,1,0,n,36,,0,left,right,right,right,right,right,left,620,17007,17752,31654,11733,14337,620,2,legacy,900,1440,24,900,24,0,0,1440,1632908780728,6,1024,2,48000,-16,experiment,0,even,MacIntel,5,752579,381825,644729,749313,75,750350,713745,74,31746,114553,754598,751364,755229,75,754598,Sternberg_updated,104,65120,113,yes,1024
91,91,578,578,black,no,experiment,Mozilla,Netscape,"5.0 (Macintosh; Intel Mac OS X 10_15_7) AppleWebKit/605.1.15 (KHTML, like Gecko) Version/14.1.2 Safari/605.1.15",legacy,legacy,legacy,0,uniform,0,0,right,113,113,113,113,0,0,0,113,113,0,0,0,113,113,113,0,0,113,113,0,29-08-21,29-08-21,11:45:38,Wed Sep 29 2021 11:45:38 GMT+0200 (CEST),The main experiment item,yes,0,0,/Users/ethan/Documents/GitHub/OpenSesame/Sternberg/experiment_files,0,0,0,no,mono,no,18,no,white,no,no,768,48,3.6.1,legacy,legacy,3 5 9 6 2 4,osweb,1.4.0,1,1,y,36,,0,left,right,right,right,right,right,left,728,17007,17752,31654,11733,14337,728,2,legacy,900,1440,24,900,24,0,0,1440,1632908780728,6,1024,2,48000,-16,experiment,0,even,MacIntel,3,758496,381825,644729,755232,75,756267,713745,74,31746,114553,760516,757281,761245,75,760516,Sternberg_updated,104,65848,114,yes,1024
91,91,578,578,black,no,experiment,Mozilla,Netscape,"5.0 (Macintosh; Intel Mac OS X 10_15_7) AppleWebKit/605.1.15 (KHTML, like Gecko) Version/14.1.2 Safari/605.1.15",legacy,legacy,legacy,0,uniform,1,1,left,114,114,114,114,0,0,0,114,114,0,0,0,114,114,114,0,0,114,114,0,29-08-21,29-08-21,11:45:38,Wed Sep 29 2021 11:45:38 GMT+0200 (CEST),The main experiment item,yes,0,0,/Users/ethan/Documents/GitHub/OpenSesame/Sternberg/experiment_files,0,0,0,no,mono,no,18,no,white,no,no,768,48,3.6.1,legacy,legacy,6 7 5 9,osweb,1.4.0,1,0,n,36,,0,left,right,right,right,right,right,left,602,17007,17752,31654,11733,14337,602,2,legacy,900,1440,24,900,24,0,0,1440,1632908780728,4,1024,2,48000,-16,experiment,0,even,MacIntel,2,764513,381825,644729,755232,75,762287,761250,74,31746,114553,766532,763298,767146,75,766532,Sternberg_updated,105,66450,115,yes,1024
91,91,578,578,black,no,experiment,Mozilla,Netscape,"5.0 (Macintosh; Intel Mac OS X 10_15_7) AppleWebKit/605.1.15 (KHTML, like Gecko) Version/14.1.2 Safari/605.1.15",legacy,legacy,legacy,0,uniform,1,1,left,115,115,115,115,0,0,0,115,115,0,0,0,115,115,115,0,0,115,115,0,29-08-21,29-08-21,11:45:38,Wed Sep 29 2021 11:45:38 GMT+0200 (CEST),The main experiment item,yes,0,0,/Users/ethan/Documents/GitHub/OpenSesame/Sternberg/experiment_files,0,0,0,no,mono,no,18,no,white,no,no,768,48,3.6.1,legacy,legacy,7 1 8 4 9 3,osweb,1.4.0,1,0,n,36,,0,left,right,right,right,right,right,left,630,17007,17752,31654,11733,14337,630,2,legacy,900,1440,24,900,24,0,0,1440,1632908780728,6,1024,2,48000,-16,experiment,0,even,MacIntel,6,770413,381825,644729,767149,75,768186,761250,74,31746,114553,772432,769199,773080,75,772432,Sternberg_updated,106,67080,116,yes,1024
91,91,579,579,black,no,experiment,Mozilla,Netscape,"5.0 (Macintosh; Intel Mac OS X 10_15_7) AppleWebKit/605.1.15 (KHTML, like Gecko) Version/14.1.2 Safari/605.1.15",legacy,legacy,legacy,0,uniform,1,1,left,116,116,116,116,0,0,0,116,116,0,0,0,116,116,116,0,0,116,116,0,29-08-21,29-08-21,11:45:38,Wed Sep 29 2021 11:45:38 GMT+0200 (CEST),The main experiment item,yes,0,0,/Users/ethan/Documents/GitHub/OpenSesame/Sternberg/experiment_files,0,0,0,no,mono,no,18,no,white,no,no,768,48,3.6.1,legacy,legacy,8 4 3 9,osweb,1.4.0,1,0,n,36,,0,left,right,right,right,right,right,left,616,17007,17752,31654,11733,14337,616,2,legacy,900,1440,24,900,24,0,0,1440,1632908780728,4,1024,2,48000,-16,experiment,0,even,MacIntel,5,776347,381825,644729,773082,75,774119,761250,74,31746,114553,778372,775132,778997,75,778372,Sternberg_updated,107,67696,117,yes,1024
92,92,577,577,black,no,experiment,Mozilla,Netscape,"5.0 (Macintosh; Intel Mac OS X 10_15_7) AppleWebKit/605.1.15 (KHTML, like Gecko) Version/14.1.2 Safari/605.1.15",legacy,legacy,legacy,0,uniform,1,1,right,117,117,117,117,0,0,0,117,117,0,0,0,117,117,117,0,0,117,117,0,29-08-21,29-08-21,11:45:38,Wed Sep 29 2021 11:45:38 GMT+0200 (CEST),The main experiment item,yes,0,0,/Users/ethan/Documents/GitHub/OpenSesame/Sternberg/experiment_files,0,0,0,no,mono,no,18,no,white,no,no,768,48,3.6.1,legacy,legacy,7,osweb,1.4.0,1,1,y,36,,0,right,right,right,right,right,right,right,400,17007,17752,31654,11733,14337,400,2,legacy,900,1440,24,900,24,0,0,1440,1632908780728,1,1024,2,48000,-16,experiment,0,even,MacIntel,7,782264,381825,644729,779000,75,780036,761250,74,31746,114553,784283,781049,784696,75,784283,Sternberg_updated,108,68096,118,yes,1024
92,92,578,578,black,no,experiment,Mozilla,Netscape,"5.0 (Macintosh; Intel Mac OS X 10_15_7) AppleWebKit/605.1.15 (KHTML, like Gecko) Version/14.1.2 Safari/605.1.15",legacy,legacy,legacy,0,uniform,1,1,left,118,118,118,118,0,0,0,118,118,0,0,0,118,118,118,0,0,118,118,0,29-08-21,29-08-21,11:45:38,Wed Sep 29 2021 11:45:38 GMT+0200 (CEST),The main experiment item,yes,0,0,/Users/ethan/Documents/GitHub/OpenSesame/Sternberg/experiment_files,0,0,0,no,mono,no,18,no,white,no,no,768,48,3.6.1,legacy,legacy,2 3 8 5 6 7,osweb,1.4.0,1,0,n,36,,0,left,right,right,right,right,right,left,647,17007,17752,31654,11733,14337,647,2,legacy,900,1440,24,900,24,0,0,1440,1632908780728,6,1024,2,48000,-16,experiment,0,even,MacIntel,1,787965,381825,644729,784700,75,785736,761250,74,31746,114553,789983,786750,790648,75,789983,Sternberg_updated,109,68743,119,yes,1024
92,92,577,577,black,no,experiment,Mozilla,Netscape,"5.0 (Macintosh; Intel Mac OS X 10_15_7) AppleWebKit/605.1.15 (KHTML, like Gecko) Version/14.1.2 Safari/605.1.15",legacy,legacy,legacy,0,uniform,1,1,right,119,119,119,119,0,0,0,119,119,0,0,0,119,119,119,0,0,119,119,0,29-08-21,29-08-21,11:45:38,Wed Sep 29 2021 11:45:38 GMT+0200 (CEST),The main experiment item,yes,0,0,/Users/ethan/Documents/GitHub/OpenSesame/Sternberg/experiment_files,0,0,0,no,mono,no,18,no,white,no,no,768,48,3.6.1,legacy,legacy,6 9 3 1,osweb,1.4.0,1,4,y,36,,0,right,right,right,right,right,right,right,452,17007,17752,31654,11733,14337,452,2,legacy,900,1440,24,900,24,0,0,1440,1632908780728,4,1024,2,48000,-16,experiment,0,even,MacIntel,1,793915,381825,644729,790651,75,791687,761250,74,31746,114553,795934,792700,796397,75,795934,Sternberg_updated,110,69195,120,yes,1024
92,92,576,576,black,no,experiment,Mozilla,Netscape,"5.0 (Macintosh; Intel Mac OS X 10_15_7) AppleWebKit/605.1.15 (KHTML, like Gecko) Version/14.1.2 Safari/605.1.15",legacy,legacy,legacy,0,uniform,1,1,right,120,120,120,120,0,0,0,120,120,0,0,0,120,120,120,0,0,120,120,0,29-08-21,29-08-21,11:45:38,Wed Sep 29 2021 11:45:38 GMT+0200 (CEST),The main experiment item,yes,0,0,/Users/ethan/Documents/GitHub/OpenSesame/Sternberg/experiment_files,0,0,0,no,mono,no,18,no,white,no,no,768,48,3.6.1,legacy,legacy,2 3 7 4,osweb,1.4.0,1,1,y,36,,0,right,right,right,right,right,right,right,441,17007,17752,31654,11733,14337,441,2,legacy,900,1440,24,900,24,0,0,1440,1632908780728,4,1024,2,48000,-16,experiment,0,even,MacIntel,2,799665,381825,644729,796399,75,797436,761250,74,31746,114553,801684,798450,802132,75,801684,Sternberg_updated,111,69636,121,yes,1024
