acc,accuracy,average_response_time,avg_rt,background,bidi,block,browser_codename,browser_name,browser_version,canvas_backend,clock_backend,color_backend,compensation,coordinates,correct,correct_keyboard_response,correct_response,count_ISI,count_break1,count_break_2,count_correct_feedback,count_credits,count_experiment,count_experimentLoop,count_fixation,count_incorrect_feedback,count_instructions1a,count_instructions1b,count_instructions2,count_keyboard_response,count_memory_set,count_new_logger,count_osweb,count_practiceLoop,count_practiceSequence,count_probe,count_thankYou,date_startdate,date_startdateUTC,date_starttime,datetime,description,disable_garbage_collection,experiment_debug,experiment_parameters,experiment_path,experiment_pilot,experiment_taskname,experiment_taskversion,font_bold,font_family,font_italic,font_size,font_underline,foreground,form_clicks,fullscreen,height,jatosStudyResultId,jatosVersion,keyboard_backend,mouse_backend,numberSet,opensesame_codename,opensesame_version,penwidth,posInSet,present,queryParams_batchId,queryParams_generalMultiple,repeat_cycle,response,response_break1,response_break_2,response_instructions1a,response_instructions1b,response_instructions2,response_keyboard_response,response_time,response_time_break1,response_time_break_2,response_time_instructions1a,response_time_instructions1b,response_time_instructions2,response_time_keyboard_response,round_decimals,sampler_backend,screen_availableHeight,screen_availableWidth,screen_colorDepth,screen_height,screen_pixelDepth,screen_screenX,screen_screenY,screen_width,sessionid,setSize,sound_buf_size,sound_channels,sound_freq,sound_sample_size,start,subject_nr,subject_parity,system_os,target,time_ISI,time_break1,time_break_2,time_correct_feedback,time_experimentLoop,time_fixation,time_incorrect_feedback,time_instructions1a,time_instructions1b,time_instructions2,time_keyboard_response,time_memory_set,time_new_logger,time_practiceLoop,time_probe,title,total_correct,total_response_time,total_responses,uniform_coordinates,width
100,100,1097,1097,black,no,practice,Mozilla,Netscape,"5.0 (Macintosh; Intel Mac OS X 10_15_7) AppleWebKit/605.1.15 (KHTML, like Gecko) Version/14.1.2 Safari/605.1.15",legacy,legacy,legacy,0,uniform,1,1,right,0,0,0,0,0,0,0,0,0,0,0,0,0,0,0,0,0,0,0,0,29-08-21,29-08-21,11:46:29,Wed Sep 29 2021 11:46:29 GMT+0200 (CEST),The main experiment item,yes,0,0,/Users/ethan/Documents/GitHub/OpenSesame/Sternberg/experiment_files,0,0,0,no,mono,no,18,no,white,no,no,768,49,3.6.1,legacy,legacy,4 3 1 7 9 8,osweb,1.4.0,1,1,y,36,,0,right,,,rshift,right,,right,1097,,,5201,19378,,1097,2,legacy,702,1280,24,800,24,34,25,1280,1632908797680,6,1024,2,48000,-16,experiment,1,odd,MacIntel,4,26947,,,,81,24731,,81,5303,,28955,25738,30063,81,28954,Sternberg_updated,1,1097,1,yes,1024
100,100,893,893,black,no,practice,Mozilla,Netscape,"5.0 (Macintosh; Intel Mac OS X 10_15_7) AppleWebKit/605.1.15 (KHTML, like Gecko) Version/14.1.2 Safari/605.1.15",legacy,legacy,legacy,0,uniform,1,1,right,1,1,1,1,0,0,0,1,1,0,0,0,1,1,1,0,0,1,1,0,29-08-21,29-08-21,11:46:29,Wed Sep 29 2021 11:46:29 GMT+0200 (CEST),The main experiment item,yes,0,0,/Users/ethan/Documents/GitHub/OpenSesame/Sternberg/experiment_files,0,0,0,no,mono,no,18,no,white,no,no,768,49,3.6.1,legacy,legacy,6,osweb,1.4.0,1,1,y,36,,0,right,,,rshift,right,,right,689,,,5201,19378,,689,2,legacy,702,1280,24,800,24,34,25,1280,1632908797680,1,1024,2,48000,-16,experiment,1,odd,MacIntel,6,33315,,,30070,81,31102,,81,5303,,35324,32107,36015,81,35324,Sternberg_updated,2,1786,2,yes,1024
100,100,908,908,black,no,practice,Mozilla,Netscape,"5.0 (Macintosh; Intel Mac OS X 10_15_7) AppleWebKit/605.1.15 (KHTML, like Gecko) Version/14.1.2 Safari/605.1.15",legacy,legacy,legacy,0,uniform,1,1,right,2,2,2,2,0,0,0,2,2,0,0,0,2,2,2,0,0,2,2,0,29-08-21,29-08-21,11:46:29,Wed Sep 29 2021 11:46:29 GMT+0200 (CEST),The main experiment item,yes,0,0,/Users/ethan/Documents/GitHub/OpenSesame/Sternberg/experiment_files,0,0,0,no,mono,no,18,no,white,no,no,768,49,3.6.1,legacy,legacy,2 9 4,osweb,1.4.0,1,3,y,36,,0,right,,,rshift,right,,right,937,,,5201,19378,,937,2,legacy,702,1280,24,800,24,34,25,1280,1632908797680,3,1024,2,48000,-16,experiment,1,odd,MacIntel,4,39267,,,36018,81,37050,,81,5303,,41276,38058,42218,81,41276,Sternberg_updated,3,2723,3,yes,1024
100,100,914,914,black,no,practice,Mozilla,Netscape,"5.0 (Macintosh; Intel Mac OS X 10_15_7) AppleWebKit/605.1.15 (KHTML, like Gecko) Version/14.1.2 Safari/605.1.15",legacy,legacy,legacy,0,uniform,1,1,left,3,3,3,3,0,0,0,3,3,0,0,0,3,3,3,0,0,3,3,0,29-08-21,29-08-21,11:46:29,Wed Sep 29 2021 11:46:29 GMT+0200 (CEST),The main experiment item,yes,0,0,/Users/ethan/Documents/GitHub/OpenSesame/Sternberg/experiment_files,0,0,0,no,mono,no,18,no,white,no,no,768,49,3.6.1,legacy,legacy,4 1 5,osweb,1.4.0,1,0,n,36,,0,left,,,rshift,right,,left,932,,,5201,19378,,932,2,legacy,702,1280,24,800,24,34,25,1280,1632908797680,3,1024,2,48000,-16,experiment,1,odd,MacIntel,2,45471,,,42222,81,43254,,81,5303,,47478,44262,48418,81,47477,Sternberg_updated,4,3655,4,yes,1024
100,100,934,934,black,no,practice,Mozilla,Netscape,"5.0 (Macintosh; Intel Mac OS X 10_15_7) AppleWebKit/605.1.15 (KHTML, like Gecko) Version/14.1.2 Safari/605.1.15",legacy,legacy,legacy,0,uniform,1,1,left,4,4,4,4,0,0,0,4,4,0,0,0,4,4,4,0,0,4,4,0,29-08-21,29-08-21,11:46:29,Wed Sep 29 2021 11:46:29 GMT+0200 (CEST),The main experiment item,yes,0,0,/Users/ethan/Documents/GitHub/OpenSesame/Sternberg/experiment_files,0,0,0,no,mono,no,18,no,white,no,no,768,49,3.6.1,legacy,legacy,2 1,osweb,1.4.0,1,0,n,36,,0,left,,,rshift,right,,left,1017,,,5201,19378,,1017,2,legacy,702,1280,24,800,24,34,25,1280,1632908797680,2,1024,2,48000,-16,experiment,1,odd,MacIntel,5,51675,,,48422,81,49451,,81,5303,,53689,50458,54715,81,53689,Sternberg_updated,5,4672,5,yes,1024
100,100,991,991,black,no,practice,Mozilla,Netscape,"5.0 (Macintosh; Intel Mac OS X 10_15_7) AppleWebKit/605.1.15 (KHTML, like Gecko) Version/14.1.2 Safari/605.1.15",legacy,legacy,legacy,0,uniform,1,1,left,5,5,5,5,0,0,0,5,5,0,0,0,5,5,5,0,0,5,5,0,29-08-21,29-08-21,11:46:29,Wed Sep 29 2021 11:46:29 GMT+0200 (CEST),The main experiment item,yes,0,0,/Users/ethan/Documents/GitHub/OpenSesame/Sternberg/experiment_files,0,0,0,no,mono,no,18,no,white,no,no,768,49,3.6.1,legacy,legacy,5,osweb,1.4.0,1,0,n,36,,0,left,,,rshift,right,,left,1276,,,5201,19378,,1276,2,legacy,702,1280,24,800,24,34,25,1280,1632908797680,1,1024,2,48000,-16,experiment,1,odd,MacIntel,3,57968,,,54719,81,55748,,81,5303,,59976,56758,61267,81,59976,Sternberg_updated,6,5948,6,yes,1024
86,86,957,957,black,no,practice,Mozilla,Netscape,"5.0 (Macintosh; Intel Mac OS X 10_15_7) AppleWebKit/605.1.15 (KHTML, like Gecko) Version/14.1.2 Safari/605.1.15",legacy,legacy,legacy,0,uniform,0,0,left,6,6,6,6,0,0,0,6,6,0,0,0,6,6,6,0,0,6,6,0,29-08-21,29-08-21,11:46:29,Wed Sep 29 2021 11:46:29 GMT+0200 (CEST),The main experiment item,yes,0,0,/Users/ethan/Documents/GitHub/OpenSesame/Sternberg/experiment_files,0,0,0,no,mono,no,18,no,white,no,no,768,49,3.6.1,legacy,legacy,9 6 7 4 5,osweb,1.4.0,1,0,n,36,,0,right,,,rshift,right,,right,749,,,5201,19378,,749,2,legacy,702,1280,24,800,24,34,25,1280,1632908797680,5,1024,2,48000,-16,experiment,1,odd,MacIntel,3,64519,,,61271,81,62302,,81,5303,,66526,63311,67282,81,66526,Sternberg_updated,6,6697,7,yes,1024
88,88,974,974,black,no,practice,Mozilla,Netscape,"5.0 (Macintosh; Intel Mac OS X 10_15_7) AppleWebKit/605.1.15 (KHTML, like Gecko) Version/14.1.2 Safari/605.1.15",legacy,legacy,legacy,0,uniform,1,1,right,7,7,7,7,0,0,0,7,7,0,0,0,7,7,7,0,0,7,7,0,29-08-21,29-08-21,11:46:29,Wed Sep 29 2021 11:46:29 GMT+0200 (CEST),The main experiment item,yes,0,0,/Users/ethan/Documents/GitHub/OpenSesame/Sternberg/experiment_files,0,0,0,no,mono,no,18,no,white,no,no,768,49,3.6.1,legacy,legacy,4 8,osweb,1.4.0,1,1,y,36,,0,right,,,rshift,right,,right,1091,,,5201,19378,,1091,2,legacy,702,1280,24,800,24,34,25,1280,1632908797680,2,1024,2,48000,-16,experiment,1,odd,MacIntel,4,70563,,,61271,81,68341,67286,81,5303,,72569,69359,73673,81,72569,Sternberg_updated,7,7788,8,yes,1024
89,89,951,951,black,no,practice,Mozilla,Netscape,"5.0 (Macintosh; Intel Mac OS X 10_15_7) AppleWebKit/605.1.15 (KHTML, like Gecko) Version/14.1.2 Safari/605.1.15",legacy,legacy,legacy,0,uniform,1,1,left,8,8,8,8,0,0,0,8,8,0,0,0,8,8,8,0,0,8,8,0,29-08-21,29-08-21,11:46:29,Wed Sep 29 2021 11:46:29 GMT+0200 (CEST),The main experiment item,yes,0,0,/Users/ethan/Documents/GitHub/OpenSesame/Sternberg/experiment_files,0,0,0,no,mono,no,18,no,white,no,no,768,49,3.6.1,legacy,legacy,5 7 8 4 1 2,osweb,1.4.0,1,0,n,36,,0,left,,,rshift,right,,left,768,,,5201,19378,,768,2,legacy,702,1280,24,800,24,34,25,1280,1632908797680,6,1024,2,48000,-16,experiment,1,odd,MacIntel,6,76926,,,73677,81,74712,67286,81,5303,,78934,75717,79709,81,78934,Sternberg_updated,8,8556,9,yes,1024
90,90,941,941,black,no,practice,Mozilla,Netscape,"5.0 (Macintosh; Intel Mac OS X 10_15_7) AppleWebKit/605.1.15 (KHTML, like Gecko) Version/14.1.2 Safari/605.1.15",legacy,legacy,legacy,0,uniform,1,1,right,9,9,9,9,0,0,0,9,9,0,0,0,9,9,9,0,0,9,9,0,29-08-21,29-08-21,11:46:29,Wed Sep 29 2021 11:46:29 GMT+0200 (CEST),The main experiment item,yes,0,0,/Users/ethan/Documents/GitHub/OpenSesame/Sternberg/experiment_files,0,0,0,no,mono,no,18,no,white,no,no,768,49,3.6.1,legacy,legacy,1 5 2 9,osweb,1.4.0,1,2,y,36,,0,right,,,rshift,right,,right,858,,,5201,19378,,858,2,legacy,702,1280,24,800,24,34,25,1280,1632908797680,4,1024,2,48000,-16,experiment,1,odd,MacIntel,5,82962,,,79713,81,80742,67286,81,5303,,84970,81753,85828,81,84970,Sternberg_updated,9,9414,10,yes,1024
91,91,938,938,black,no,practice,Mozilla,Netscape,"5.0 (Macintosh; Intel Mac OS X 10_15_7) AppleWebKit/605.1.15 (KHTML, like Gecko) Version/14.1.2 Safari/605.1.15",legacy,legacy,legacy,0,uniform,1,1,right,10,10,10,10,0,0,0,10,10,0,0,0,10,10,10,0,0,10,10,0,29-08-21,29-08-21,11:46:29,Wed Sep 29 2021 11:46:29 GMT+0200 (CEST),The main experiment item,yes,0,0,/Users/ethan/Documents/GitHub/OpenSesame/Sternberg/experiment_files,0,0,0,no,mono,no,18,no,white,no,no,768,49,3.6.1,legacy,legacy,1 7 9 8 5,osweb,1.4.0,1,4,y,36,,0,right,,,rshift,right,,right,903,,,5201,19378,,903,2,legacy,702,1280,24,800,24,34,25,1280,1632908797680,5,1024,2,48000,-16,experiment,1,odd,MacIntel,8,89082,,,85832,81,86862,67286,81,5303,,91089,87872,91997,81,91089,Sternberg_updated,10,10317,11,yes,1024
83,83,917,917,black,no,practice,Mozilla,Netscape,"5.0 (Macintosh; Intel Mac OS X 10_15_7) AppleWebKit/605.1.15 (KHTML, like Gecko) Version/14.1.2 Safari/605.1.15",legacy,legacy,legacy,0,uniform,0,0,left,11,11,11,11,0,0,0,11,11,0,0,0,11,11,11,0,0,11,11,0,29-08-21,29-08-21,11:46:29,Wed Sep 29 2021 11:46:29 GMT+0200 (CEST),The main experiment item,yes,0,0,/Users/ethan/Documents/GitHub/OpenSesame/Sternberg/experiment_files,0,0,0,no,mono,no,18,no,white,no,no,768,49,3.6.1,legacy,legacy,3 1 9 4,osweb,1.4.0,1,0,n,36,,0,right,,,rshift,right,,right,685,,,5201,19378,,685,2,legacy,702,1280,24,800,24,34,25,1280,1632908797680,4,1024,2,48000,-16,experiment,1,odd,MacIntel,6,95251,,,92001,81,93030,67286,81,5303,,97255,94041,97951,81,97255,Sternberg_updated,10,11002,12,yes,1024
85,85,925,925,black,no,experiment,Mozilla,Netscape,"5.0 (Macintosh; Intel Mac OS X 10_15_7) AppleWebKit/605.1.15 (KHTML, like Gecko) Version/14.1.2 Safari/605.1.15",legacy,legacy,legacy,0,uniform,1,1,right,12,12,12,12,0,0,0,12,12,0,0,0,12,12,12,0,0,12,12,0,29-08-21,29-08-21,11:46:29,Wed Sep 29 2021 11:46:29 GMT+0200 (CEST),The main experiment item,yes,0,0,/Users/ethan/Documents/GitHub/OpenSesame/Sternberg/experiment_files,0,0,0,no,mono,no,18,no,white,no,no,768,49,3.6.1,legacy,legacy,2 5 4 8 7,osweb,1.4.0,1,3,y,36,,0,right,,,rshift,right,right,right,1022,,,5201,19378,8074,1022,2,legacy,702,1280,24,800,24,34,25,1280,1632908797680,5,1024,2,48000,-16,experiment,1,odd,MacIntel,4,109312,,,92001,81,107090,97954,81,5303,98979,111319,108102,112345,81,111319,Sternberg_updated,11,12024,13,yes,1024
79,79,923,923,black,no,experiment,Mozilla,Netscape,"5.0 (Macintosh; Intel Mac OS X 10_15_7) AppleWebKit/605.1.15 (KHTML, like Gecko) Version/14.1.2 Safari/605.1.15",legacy,legacy,legacy,0,uniform,0,0,right,13,13,13,13,0,0,0,13,13,0,0,0,13,13,13,0,0,13,13,0,29-08-21,29-08-21,11:46:29,Wed Sep 29 2021 11:46:29 GMT+0200 (CEST),The main experiment item,yes,0,0,/Users/ethan/Documents/GitHub/OpenSesame/Sternberg/experiment_files,0,0,0,no,mono,no,18,no,white,no,no,768,49,3.6.1,legacy,legacy,7 1 8 5 6 2,osweb,1.4.0,1,2,y,36,,0,left,,,rshift,right,right,left,898,,,5201,19378,8074,898,2,legacy,702,1280,24,800,24,34,25,1280,1632908797680,6,1024,2,48000,-16,experiment,1,odd,MacIntel,1,115588,,,112348,81,113377,97954,81,5303,98979,117595,114387,118507,81,117595,Sternberg_updated,11,12922,14,yes,1024
80,80,913,913,black,no,experiment,Mozilla,Netscape,"5.0 (Macintosh; Intel Mac OS X 10_15_7) AppleWebKit/605.1.15 (KHTML, like Gecko) Version/14.1.2 Safari/605.1.15",legacy,legacy,legacy,0,uniform,1,1,right,14,14,14,14,0,0,0,14,14,0,0,0,14,14,14,0,0,14,14,0,29-08-21,29-08-21,11:46:29,Wed Sep 29 2021 11:46:29 GMT+0200 (CEST),The main experiment item,yes,0,0,/Users/ethan/Documents/GitHub/OpenSesame/Sternberg/experiment_files,0,0,0,no,mono,no,18,no,white,no,no,768,49,3.6.1,legacy,legacy,8 9 6 1,osweb,1.4.0,1,2,y,36,,0,right,,,rshift,right,right,right,780,,,5201,19378,8074,780,2,legacy,702,1280,24,800,24,34,25,1280,1632908797680,4,1024,2,48000,-16,experiment,1,odd,MacIntel,9,121765,,,112348,81,119536,118510,81,5303,98979,123773,120548,124567,81,123773,Sternberg_updated,12,13702,15,yes,1024
81,81,898,898,black,no,experiment,Mozilla,Netscape,"5.0 (Macintosh; Intel Mac OS X 10_15_7) AppleWebKit/605.1.15 (KHTML, like Gecko) Version/14.1.2 Safari/605.1.15",legacy,legacy,legacy,0,uniform,1,1,left,15,15,15,15,0,0,0,15,15,0,0,0,15,15,15,0,0,15,15,0,29-08-21,29-08-21,11:46:29,Wed Sep 29 2021 11:46:29 GMT+0200 (CEST),The main experiment item,yes,0,0,/Users/ethan/Documents/GitHub/OpenSesame/Sternberg/experiment_files,0,0,0,no,mono,no,18,no,white,no,no,768,49,3.6.1,legacy,legacy,3 9 8 1 6 4,osweb,1.4.0,1,0,n,36,,0,left,,,rshift,right,right,left,659,,,5201,19378,8074,659,2,legacy,702,1280,24,800,24,34,25,1280,1632908797680,6,1024,2,48000,-16,experiment,1,odd,MacIntel,7,127814,,,124571,81,125601,118510,81,5303,98979,129821,126606,130484,81,129821,Sternberg_updated,13,14361,16,yes,1024
76,76,900,900,black,no,experiment,Mozilla,Netscape,"5.0 (Macintosh; Intel Mac OS X 10_15_7) AppleWebKit/605.1.15 (KHTML, like Gecko) Version/14.1.2 Safari/605.1.15",legacy,legacy,legacy,0,uniform,0,0,right,16,16,16,16,0,0,0,16,16,0,0,0,16,16,16,0,0,16,16,0,29-08-21,29-08-21,11:46:29,Wed Sep 29 2021 11:46:29 GMT+0200 (CEST),The main experiment item,yes,0,0,/Users/ethan/Documents/GitHub/OpenSesame/Sternberg/experiment_files,0,0,0,no,mono,no,18,no,white,no,no,768,49,3.6.1,legacy,legacy,9 1 7 2,osweb,1.4.0,1,2,y,36,,0,left,,,rshift,right,right,left,945,,,5201,19378,8074,945,2,legacy,702,1280,24,800,24,34,25,1280,1632908797680,4,1024,2,48000,-16,experiment,1,odd,MacIntel,1,133727,,,130488,81,131521,118510,81,5303,98979,135735,132526,136694,81,135735,Sternberg_updated,13,15306,17,yes,1024
78,78,898,898,black,no,experiment,Mozilla,Netscape,"5.0 (Macintosh; Intel Mac OS X 10_15_7) AppleWebKit/605.1.15 (KHTML, like Gecko) Version/14.1.2 Safari/605.1.15",legacy,legacy,legacy,0,uniform,1,1,right,17,17,17,17,0,0,0,17,17,0,0,0,17,17,17,0,0,17,17,0,29-08-21,29-08-21,11:46:29,Wed Sep 29 2021 11:46:29 GMT+0200 (CEST),The main experiment item,yes,0,0,/Users/ethan/Documents/GitHub/OpenSesame/Sternberg/experiment_files,0,0,0,no,mono,no,18,no,white,no,no,768,49,3.6.1,legacy,legacy,2 8 5 1,osweb,1.4.0,1,4,y,36,,0,right,,,rshift,right,right,right,862,,,5201,19378,8074,862,2,legacy,702,1280,24,800,24,34,25,1280,1632908797680,4,1024,2,48000,-16,experiment,1,odd,MacIntel,1,139947,,,130488,81,137726,136698,81,5303,98979,141954,138737,142830,81,141954,Sternberg_updated,14,16168,18,yes,1024
79,79,884,884,black,no,experiment,Mozilla,Netscape,"5.0 (Macintosh; Intel Mac OS X 10_15_7) AppleWebKit/605.1.15 (KHTML, like Gecko) Version/14.1.2 Safari/605.1.15",legacy,legacy,legacy,0,uniform,1,1,right,18,18,18,18,0,0,0,18,18,0,0,0,18,18,18,0,0,18,18,0,29-08-21,29-08-21,11:46:29,Wed Sep 29 2021 11:46:29 GMT+0200 (CEST),The main experiment item,yes,0,0,/Users/ethan/Documents/GitHub/OpenSesame/Sternberg/experiment_files,0,0,0,no,mono,no,18,no,white,no,no,768,49,3.6.1,legacy,legacy,2 6 1 7 4,osweb,1.4.0,1,2,y,36,,0,right,,,rshift,right,right,right,625,,,5201,19378,8074,625,2,legacy,702,1280,24,800,24,34,25,1280,1632908797680,5,1024,2,48000,-16,experiment,1,odd,MacIntel,6,146083,,,142834,81,143863,136698,81,5303,98979,148091,144873,148716,81,148091,Sternberg_updated,15,16793,19,yes,1024
80,80,900,900,black,no,experiment,Mozilla,Netscape,"5.0 (Macintosh; Intel Mac OS X 10_15_7) AppleWebKit/605.1.15 (KHTML, like Gecko) Version/14.1.2 Safari/605.1.15",legacy,legacy,legacy,0,uniform,1,1,right,19,19,19,19,0,0,0,19,19,0,0,0,19,19,19,0,0,19,19,0,29-08-21,29-08-21,11:46:29,Wed Sep 29 2021 11:46:29 GMT+0200 (CEST),The main experiment item,yes,0,0,/Users/ethan/Documents/GitHub/OpenSesame/Sternberg/experiment_files,0,0,0,no,mono,no,18,no,white,no,no,768,49,3.6.1,legacy,legacy,3 2 1 4 7,osweb,1.4.0,1,2,y,36,,0,right,,,rshift,right,right,right,1208,,,5201,19378,8074,1208,2,legacy,702,1280,24,800,24,34,25,1280,1632908797680,5,1024,2,48000,-16,experiment,1,odd,MacIntel,2,151970,,,148720,81,149751,136698,81,5303,98979,153977,150760,155186,81,153977,Sternberg_updated,16,18001,20,yes,1024
81,81,899,899,black,no,experiment,Mozilla,Netscape,"5.0 (Macintosh; Intel Mac OS X 10_15_7) AppleWebKit/605.1.15 (KHTML, like Gecko) Version/14.1.2 Safari/605.1.15",legacy,legacy,legacy,0,uniform,1,1,left,20,20,20,20,0,0,0,20,20,0,0,0,20,20,20,0,0,20,20,0,29-08-21,29-08-21,11:46:29,Wed Sep 29 2021 11:46:29 GMT+0200 (CEST),The main experiment item,yes,0,0,/Users/ethan/Documents/GitHub/OpenSesame/Sternberg/experiment_files,0,0,0,no,mono,no,18,no,white,no,no,768,49,3.6.1,legacy,legacy,8 4 3 9,osweb,1.4.0,1,0,n,36,,0,left,,,rshift,right,right,left,887,,,5201,19378,8074,887,2,legacy,702,1280,24,800,24,34,25,1280,1632908797680,4,1024,2,48000,-16,experiment,1,odd,MacIntel,5,158440,,,155190,81,156220,136698,81,5303,98979,160446,157230,161336,81,160445,Sternberg_updated,17,18888,21,yes,1024
82,82,912,912,black,no,experiment,Mozilla,Netscape,"5.0 (Macintosh; Intel Mac OS X 10_15_7) AppleWebKit/605.1.15 (KHTML, like Gecko) Version/14.1.2 Safari/605.1.15",legacy,legacy,legacy,0,uniform,1,1,left,21,21,21,21,0,0,0,21,21,0,0,0,21,21,21,0,0,21,21,0,29-08-21,29-08-21,11:46:29,Wed Sep 29 2021 11:46:29 GMT+0200 (CEST),The main experiment item,yes,0,0,/Users/ethan/Documents/GitHub/OpenSesame/Sternberg/experiment_files,0,0,0,no,mono,no,18,no,white,no,no,768,49,3.6.1,legacy,legacy,1 7 8 3 9,osweb,1.4.0,1,0,n,36,,0,left,,,rshift,right,right,left,1180,,,5201,19378,8074,1180,2,legacy,702,1280,24,800,24,34,25,1280,1632908797680,5,1024,2,48000,-16,experiment,1,odd,MacIntel,2,164580,,,161340,81,162367,136698,81,5303,98979,166586,163377,167775,81,166586,Sternberg_updated,18,20068,22,yes,1024
78,78,905,905,black,no,experiment,Mozilla,Netscape,"5.0 (Macintosh; Intel Mac OS X 10_15_7) AppleWebKit/605.1.15 (KHTML, like Gecko) Version/14.1.2 Safari/605.1.15",legacy,legacy,legacy,0,uniform,0,0,left,22,22,22,22,0,0,0,22,22,0,0,0,22,22,22,0,0,22,22,0,29-08-21,29-08-21,11:46:29,Wed Sep 29 2021 11:46:29 GMT+0200 (CEST),The main experiment item,yes,0,0,/Users/ethan/Documents/GitHub/OpenSesame/Sternberg/experiment_files,0,0,0,no,mono,no,18,no,white,no,no,768,49,3.6.1,legacy,legacy,1 6 4 3 9 7,osweb,1.4.0,1,0,n,36,,0,right,,,rshift,right,right,right,742,,,5201,19378,8074,742,2,legacy,702,1280,24,800,24,34,25,1280,1632908797680,6,1024,2,48000,-16,experiment,1,odd,MacIntel,8,171028,,,167779,81,168807,136698,81,5303,98979,173036,169819,173795,81,173036,Sternberg_updated,18,20810,23,yes,1024
79,79,896,896,black,no,experiment,Mozilla,Netscape,"5.0 (Macintosh; Intel Mac OS X 10_15_7) AppleWebKit/605.1.15 (KHTML, like Gecko) Version/14.1.2 Safari/605.1.15",legacy,legacy,legacy,0,uniform,1,1,left,23,23,23,23,0,0,0,23,23,0,0,0,23,23,23,0,0,23,23,0,29-08-21,29-08-21,11:46:29,Wed Sep 29 2021 11:46:29 GMT+0200 (CEST),The main experiment item,yes,0,0,/Users/ethan/Documents/GitHub/OpenSesame/Sternberg/experiment_files,0,0,0,no,mono,no,18,no,white,no,no,768,49,3.6.1,legacy,legacy,4 2 6 9,osweb,1.4.0,1,0,n,36,,0,left,,,rshift,right,right,left,690,,,5201,19378,8074,690,2,legacy,702,1280,24,800,24,34,25,1280,1632908797680,4,1024,2,48000,-16,experiment,1,odd,MacIntel,7,177048,,,167779,81,174826,173798,81,5303,98979,179055,175838,179747,81,179055,Sternberg_updated,19,21500,24,yes,1024
80,80,895,895,black,no,experiment,Mozilla,Netscape,"5.0 (Macintosh; Intel Mac OS X 10_15_7) AppleWebKit/605.1.15 (KHTML, like Gecko) Version/14.1.2 Safari/605.1.15",legacy,legacy,legacy,0,uniform,1,1,left,24,24,24,24,0,0,0,24,24,0,0,0,24,24,24,0,0,24,24,0,29-08-21,29-08-21,11:46:29,Wed Sep 29 2021 11:46:29 GMT+0200 (CEST),The main experiment item,yes,0,0,/Users/ethan/Documents/GitHub/OpenSesame/Sternberg/experiment_files,0,0,0,no,mono,no,18,no,white,no,no,768,49,3.6.1,legacy,legacy,4 1,osweb,1.4.0,1,0,n,36,,0,left,,,rshift,right,right,left,867,,,5201,19378,8074,867,2,legacy,702,1280,24,800,24,34,25,1280,1632908797680,2,1024,2,48000,-16,experiment,1,odd,MacIntel,6,183001,,,179750,81,180779,173798,81,5303,98979,185006,181791,185882,81,185006,Sternberg_updated,20,22367,25,yes,1024
77,77,900,900,black,no,experiment,Mozilla,Netscape,"5.0 (Macintosh; Intel Mac OS X 10_15_7) AppleWebKit/605.1.15 (KHTML, like Gecko) Version/14.1.2 Safari/605.1.15",legacy,legacy,legacy,0,uniform,0,0,right,25,25,25,25,0,0,0,25,25,0,0,0,25,25,25,0,0,25,25,0,29-08-21,29-08-21,11:46:29,Wed Sep 29 2021 11:46:29 GMT+0200 (CEST),The main experiment item,yes,0,0,/Users/ethan/Documents/GitHub/OpenSesame/Sternberg/experiment_files,0,0,0,no,mono,no,18,no,white,no,no,768,49,3.6.1,legacy,legacy,4 6 2 5 1,osweb,1.4.0,1,5,y,36,,0,left,,,rshift,right,right,left,1043,,,5201,19378,8074,1043,2,legacy,702,1280,24,800,24,34,25,1280,1632908797680,5,1024,2,48000,-16,experiment,1,odd,MacIntel,1,189135,,,185886,81,186915,173798,81,5303,98979,191144,187926,192203,81,191144,Sternberg_updated,20,23410,26,yes,1024
78,78,907,907,black,no,experiment,Mozilla,Netscape,"5.0 (Macintosh; Intel Mac OS X 10_15_7) AppleWebKit/605.1.15 (KHTML, like Gecko) Version/14.1.2 Safari/605.1.15",legacy,legacy,legacy,0,uniform,1,1,left,26,26,26,26,0,0,0,26,26,0,0,0,26,26,26,0,0,26,26,0,29-08-21,29-08-21,11:46:29,Wed Sep 29 2021 11:46:29 GMT+0200 (CEST),The main experiment item,yes,0,0,/Users/ethan/Documents/GitHub/OpenSesame/Sternberg/experiment_files,0,0,0,no,mono,no,18,no,white,no,no,768,49,3.6.1,legacy,legacy,6 8,osweb,1.4.0,1,0,n,36,,0,left,,,rshift,right,right,left,1079,,,5201,19378,8074,1079,2,legacy,702,1280,24,800,24,34,25,1280,1632908797680,2,1024,2,48000,-16,experiment,1,odd,MacIntel,9,195456,,,185886,81,193234,192207,81,5303,98979,197462,194246,198553,81,197462,Sternberg_updated,21,24489,27,yes,1024
79,79,904,904,black,no,experiment,Mozilla,Netscape,"5.0 (Macintosh; Intel Mac OS X 10_15_7) AppleWebKit/605.1.15 (KHTML, like Gecko) Version/14.1.2 Safari/605.1.15",legacy,legacy,legacy,0,uniform,1,1,left,27,27,27,27,0,0,0,27,27,0,0,0,27,27,27,0,0,27,27,0,29-08-21,29-08-21,11:46:29,Wed Sep 29 2021 11:46:29 GMT+0200 (CEST),The main experiment item,yes,0,0,/Users/ethan/Documents/GitHub/OpenSesame/Sternberg/experiment_files,0,0,0,no,mono,no,18,no,white,no,no,768,49,3.6.1,legacy,legacy,9 7 4 5 8,osweb,1.4.0,1,0,n,36,,0,left,,,rshift,right,right,left,809,,,5201,19378,8074,809,2,legacy,702,1280,24,800,24,34,25,1280,1632908797680,5,1024,2,48000,-16,experiment,1,odd,MacIntel,6,201792,,,198556,81,199582,192207,81,5303,98979,203801,200587,204627,81,203801,Sternberg_updated,22,25298,28,yes,1024
76,76,908,908,black,no,experiment,Mozilla,Netscape,"5.0 (Macintosh; Intel Mac OS X 10_15_7) AppleWebKit/605.1.15 (KHTML, like Gecko) Version/14.1.2 Safari/605.1.15",legacy,legacy,legacy,0,uniform,0,0,left,28,28,28,28,0,0,0,28,28,0,0,0,28,28,28,0,0,28,28,0,29-08-21,29-08-21,11:46:29,Wed Sep 29 2021 11:46:29 GMT+0200 (CEST),The main experiment item,yes,0,0,/Users/ethan/Documents/GitHub/OpenSesame/Sternberg/experiment_files,0,0,0,no,mono,no,18,no,white,no,no,768,49,3.6.1,legacy,legacy,2 8 7 9 5 3,osweb,1.4.0,1,0,n,36,,0,right,,,rshift,right,right,right,1027,,,5201,19378,8074,1027,2,legacy,702,1280,24,800,24,34,25,1280,1632908797680,6,1024,2,48000,-16,experiment,1,odd,MacIntel,6,207879,,,204630,81,205657,192207,81,5303,98979,209886,206669,210929,81,209886,Sternberg_updated,22,26325,29,yes,1024
73,73,907,907,black,no,experiment,Mozilla,Netscape,"5.0 (Macintosh; Intel Mac OS X 10_15_7) AppleWebKit/605.1.15 (KHTML, like Gecko) Version/14.1.2 Safari/605.1.15",legacy,legacy,legacy,0,uniform,0,0,left,29,29,29,29,0,0,0,29,29,0,0,0,29,29,29,0,0,29,29,0,29-08-21,29-08-21,11:46:29,Wed Sep 29 2021 11:46:29 GMT+0200 (CEST),The main experiment item,yes,0,0,/Users/ethan/Documents/GitHub/OpenSesame/Sternberg/experiment_files,0,0,0,no,mono,no,18,no,white,no,no,768,49,3.6.1,legacy,legacy,1 4 3 6 5,osweb,1.4.0,1,0,n,36,,0,right,,,rshift,right,right,right,873,,,5201,19378,8074,873,2,legacy,702,1280,24,800,24,34,25,1280,1632908797680,5,1024,2,48000,-16,experiment,1,odd,MacIntel,8,214182,,,204630,81,211961,210934,81,5303,98979,216189,212972,217064,81,216189,Sternberg_updated,22,27198,30,yes,1024
71,71,900,900,black,no,experiment,Mozilla,Netscape,"5.0 (Macintosh; Intel Mac OS X 10_15_7) AppleWebKit/605.1.15 (KHTML, like Gecko) Version/14.1.2 Safari/605.1.15",legacy,legacy,legacy,0,uniform,0,0,right,30,30,30,30,0,0,0,30,30,0,0,0,30,30,30,0,0,30,30,0,29-08-21,29-08-21,11:46:29,Wed Sep 29 2021 11:46:29 GMT+0200 (CEST),The main experiment item,yes,0,0,/Users/ethan/Documents/GitHub/OpenSesame/Sternberg/experiment_files,0,0,0,no,mono,no,18,no,white,no,no,768,49,3.6.1,legacy,legacy,5 7 3 6 2,osweb,1.4.0,1,5,y,36,,0,left,,,rshift,right,right,left,693,,,5201,19378,8074,693,2,legacy,702,1280,24,800,24,34,25,1280,1632908797680,5,1024,2,48000,-16,experiment,1,odd,MacIntel,2,220318,,,204630,81,218095,217067,81,5303,98979,222326,219108,223034,81,222326,Sternberg_updated,22,27891,31,yes,1024
72,72,891,891,black,no,experiment,Mozilla,Netscape,"5.0 (Macintosh; Intel Mac OS X 10_15_7) AppleWebKit/605.1.15 (KHTML, like Gecko) Version/14.1.2 Safari/605.1.15",legacy,legacy,legacy,0,uniform,1,1,right,31,31,31,31,0,0,0,31,31,0,0,0,31,31,31,0,0,31,31,0,29-08-21,29-08-21,11:46:29,Wed Sep 29 2021 11:46:29 GMT+0200 (CEST),The main experiment item,yes,0,0,/Users/ethan/Documents/GitHub/OpenSesame/Sternberg/experiment_files,0,0,0,no,mono,no,18,no,white,no,no,768,49,3.6.1,legacy,legacy,9 3 8 2 1 4,osweb,1.4.0,1,3,y,36,,0,right,,,rshift,right,right,right,623,,,5201,19378,8074,623,2,legacy,702,1280,24,800,24,34,25,1280,1632908797680,6,1024,2,48000,-16,experiment,1,odd,MacIntel,8,226287,,,204630,81,224066,223038,81,5303,98979,228294,225076,228919,81,228294,Sternberg_updated,23,28514,32,yes,1024
73,73,891,891,black,no,experiment,Mozilla,Netscape,"5.0 (Macintosh; Intel Mac OS X 10_15_7) AppleWebKit/605.1.15 (KHTML, like Gecko) Version/14.1.2 Safari/605.1.15",legacy,legacy,legacy,0,uniform,1,1,left,32,32,32,32,0,0,0,32,32,0,0,0,32,32,32,0,0,32,32,0,29-08-21,29-08-21,11:46:29,Wed Sep 29 2021 11:46:29 GMT+0200 (CEST),The main experiment item,yes,0,0,/Users/ethan/Documents/GitHub/OpenSesame/Sternberg/experiment_files,0,0,0,no,mono,no,18,no,white,no,no,768,49,3.6.1,legacy,legacy,9 5 3 2 8 6,osweb,1.4.0,1,0,n,36,,0,left,,,rshift,right,right,left,885,,,5201,19378,8074,885,2,legacy,702,1280,24,800,24,34,25,1280,1632908797680,6,1024,2,48000,-16,experiment,1,odd,MacIntel,7,232173,,,228922,81,229950,223038,81,5303,98979,234181,230963,235073,81,234181,Sternberg_updated,24,29399,33,yes,1024
74,74,891,891,black,no,experiment,Mozilla,Netscape,"5.0 (Macintosh; Intel Mac OS X 10_15_7) AppleWebKit/605.1.15 (KHTML, like Gecko) Version/14.1.2 Safari/605.1.15",legacy,legacy,legacy,0,uniform,1,1,left,33,33,33,33,0,0,0,33,33,0,0,0,33,33,33,0,0,33,33,0,29-08-21,29-08-21,11:46:29,Wed Sep 29 2021 11:46:29 GMT+0200 (CEST),The main experiment item,yes,0,0,/Users/ethan/Documents/GitHub/OpenSesame/Sternberg/experiment_files,0,0,0,no,mono,no,18,no,white,no,no,768,49,3.6.1,legacy,legacy,6 3 1 7 9 8,osweb,1.4.0,1,0,n,36,,0,left,,,rshift,right,right,left,895,,,5201,19378,8074,895,2,legacy,702,1280,24,800,24,34,25,1280,1632908797680,6,1024,2,48000,-16,experiment,1,odd,MacIntel,4,238326,,,235083,81,236106,223038,81,5303,98979,240333,237116,241241,81,240333,Sternberg_updated,25,30294,34,yes,1024
74,74,890,890,black,no,experiment,Mozilla,Netscape,"5.0 (Macintosh; Intel Mac OS X 10_15_7) AppleWebKit/605.1.15 (KHTML, like Gecko) Version/14.1.2 Safari/605.1.15",legacy,legacy,legacy,0,uniform,1,1,left,34,34,34,34,0,0,0,34,34,0,0,0,34,34,34,0,0,34,34,0,29-08-21,29-08-21,11:46:29,Wed Sep 29 2021 11:46:29 GMT+0200 (CEST),The main experiment item,yes,0,0,/Users/ethan/Documents/GitHub/OpenSesame/Sternberg/experiment_files,0,0,0,no,mono,no,18,no,white,no,no,768,49,3.6.1,legacy,legacy,1 7 5 2,osweb,1.4.0,1,0,n,36,,0,left,,,rshift,right,right,left,871,,,5201,19378,8074,871,2,legacy,702,1280,24,800,24,34,25,1280,1632908797680,4,1024,2,48000,-16,experiment,1,odd,MacIntel,3,244494,,,241246,81,242273,223038,81,5303,98979,246499,243284,247372,81,246499,Sternberg_updated,26,31165,35,yes,1024
75,75,883,883,black,no,experiment,Mozilla,Netscape,"5.0 (Macintosh; Intel Mac OS X 10_15_7) AppleWebKit/605.1.15 (KHTML, like Gecko) Version/14.1.2 Safari/605.1.15",legacy,legacy,legacy,0,uniform,1,1,left,35,35,35,35,0,0,0,35,35,0,0,0,35,35,35,0,0,35,35,0,29-08-21,29-08-21,11:46:29,Wed Sep 29 2021 11:46:29 GMT+0200 (CEST),The main experiment item,yes,0,0,/Users/ethan/Documents/GitHub/OpenSesame/Sternberg/experiment_files,0,0,0,no,mono,no,18,no,white,no,no,768,49,3.6.1,legacy,legacy,2 3 8 5 6 7,osweb,1.4.0,1,0,n,36,,0,left,,,rshift,right,right,left,630,,,5201,19378,8074,630,2,legacy,702,1280,24,800,24,34,25,1280,1632908797680,6,1024,2,48000,-16,experiment,1,odd,MacIntel,1,250632,,,247375,81,248403,223038,81,5303,98979,252638,249422,253285,81,252638,Sternberg_updated,27,31795,36,yes,1024
73,73,876,876,black,no,experiment,Mozilla,Netscape,"5.0 (Macintosh; Intel Mac OS X 10_15_7) AppleWebKit/605.1.15 (KHTML, like Gecko) Version/14.1.2 Safari/605.1.15",legacy,legacy,legacy,0,uniform,0,0,left,36,36,36,36,0,0,0,36,36,0,0,0,36,36,36,0,0,36,36,0,29-08-21,29-08-21,11:46:29,Wed Sep 29 2021 11:46:29 GMT+0200 (CEST),The main experiment item,yes,0,0,/Users/ethan/Documents/GitHub/OpenSesame/Sternberg/experiment_files,0,0,0,no,mono,no,18,no,white,no,no,768,49,3.6.1,legacy,legacy,6 9 7 3 8 2,osweb,1.4.0,1,0,n,36,,0,right,,,rshift,right,right,right,631,,,5201,19378,8074,631,2,legacy,702,1280,24,800,24,34,25,1280,1632908797680,6,1024,2,48000,-16,experiment,1,odd,MacIntel,5,256537,,,253289,81,254318,223038,81,5303,98979,258543,255329,259183,81,258543,Sternberg_updated,27,32426,37,yes,1024
74,74,878,878,black,no,experiment,Mozilla,Netscape,"5.0 (Macintosh; Intel Mac OS X 10_15_7) AppleWebKit/605.1.15 (KHTML, like Gecko) Version/14.1.2 Safari/605.1.15",legacy,legacy,legacy,0,uniform,1,1,left,37,37,37,37,0,0,0,37,37,0,0,0,37,37,37,0,0,37,37,0,29-08-21,29-08-21,11:46:29,Wed Sep 29 2021 11:46:29 GMT+0200 (CEST),The main experiment item,yes,0,0,/Users/ethan/Documents/GitHub/OpenSesame/Sternberg/experiment_files,0,0,0,no,mono,no,18,no,white,no,no,768,49,3.6.1,legacy,legacy,7 1 8 4 9 3,osweb,1.4.0,1,0,n,36,,0,left,,,rshift,right,right,left,954,,,5201,19378,8074,954,2,legacy,702,1280,24,800,24,34,25,1280,1632908797680,6,1024,2,48000,-16,experiment,1,odd,MacIntel,6,262436,,,253289,81,260215,259187,81,5303,98979,264442,261227,265400,81,264442,Sternberg_updated,28,33380,38,yes,1024
74,74,869,869,black,no,experiment,Mozilla,Netscape,"5.0 (Macintosh; Intel Mac OS X 10_15_7) AppleWebKit/605.1.15 (KHTML, like Gecko) Version/14.1.2 Safari/605.1.15",legacy,legacy,legacy,0,uniform,1,1,right,38,38,38,38,0,0,0,38,38,0,0,0,38,38,38,0,0,38,38,0,29-08-21,29-08-21,11:46:29,Wed Sep 29 2021 11:46:29 GMT+0200 (CEST),The main experiment item,yes,0,0,/Users/ethan/Documents/GitHub/OpenSesame/Sternberg/experiment_files,0,0,0,no,mono,no,18,no,white,no,no,768,49,3.6.1,legacy,legacy,9 1 6 7 8,osweb,1.4.0,1,1,y,36,,0,right,,,rshift,right,right,right,507,,,5201,19378,8074,507,2,legacy,702,1280,24,800,24,34,25,1280,1632908797680,5,1024,2,48000,-16,experiment,1,odd,MacIntel,9,268656,,,265403,81,266428,259187,81,5303,98979,270662,267440,271178,81,270662,Sternberg_updated,29,33887,39,yes,1024
75,75,863,863,black,no,experiment,Mozilla,Netscape,"5.0 (Macintosh; Intel Mac OS X 10_15_7) AppleWebKit/605.1.15 (KHTML, like Gecko) Version/14.1.2 Safari/605.1.15",legacy,legacy,legacy,0,uniform,1,1,left,39,39,39,39,0,0,0,39,39,0,0,0,39,39,39,0,0,39,39,0,29-08-21,29-08-21,11:46:29,Wed Sep 29 2021 11:46:29 GMT+0200 (CEST),The main experiment item,yes,0,0,/Users/ethan/Documents/GitHub/OpenSesame/Sternberg/experiment_files,0,0,0,no,mono,no,18,no,white,no,no,768,49,3.6.1,legacy,legacy,5 7 3,osweb,1.4.0,1,0,n,36,,0,left,,,rshift,right,right,left,641,,,5201,19378,8074,641,2,legacy,702,1280,24,800,24,34,25,1280,1632908797680,3,1024,2,48000,-16,experiment,1,odd,MacIntel,9,274438,,,271181,81,272211,259187,81,5303,98979,276444,273229,277101,81,276444,Sternberg_updated,30,34528,40,yes,1024
76,76,872,872,black,no,experiment,Mozilla,Netscape,"5.0 (Macintosh; Intel Mac OS X 10_15_7) AppleWebKit/605.1.15 (KHTML, like Gecko) Version/14.1.2 Safari/605.1.15",legacy,legacy,legacy,0,uniform,1,1,right,40,40,40,40,0,0,0,40,40,0,0,0,40,40,40,0,0,40,40,0,29-08-21,29-08-21,11:46:29,Wed Sep 29 2021 11:46:29 GMT+0200 (CEST),The main experiment item,yes,0,0,/Users/ethan/Documents/GitHub/OpenSesame/Sternberg/experiment_files,0,0,0,no,mono,no,18,no,white,no,no,768,49,3.6.1,legacy,legacy,3 4 9 6 2 9,osweb,1.4.0,1,5,y,36,,0,right,,,rshift,right,right,right,1244,,,5201,19378,8074,1244,2,legacy,702,1280,24,800,24,34,25,1280,1632908797680,6,1024,2,48000,-16,experiment,1,odd,MacIntel,2,280353,,,277105,81,278133,259187,81,5303,98979,282360,279144,283611,81,282360,Sternberg_updated,31,35772,41,yes,1024
74,74,870,870,black,no,experiment,Mozilla,Netscape,"5.0 (Macintosh; Intel Mac OS X 10_15_7) AppleWebKit/605.1.15 (KHTML, like Gecko) Version/14.1.2 Safari/605.1.15",legacy,legacy,legacy,0,uniform,0,0,right,41,41,41,41,0,0,0,41,41,0,0,0,41,41,41,0,0,41,41,0,29-08-21,29-08-21,11:46:29,Wed Sep 29 2021 11:46:29 GMT+0200 (CEST),The main experiment item,yes,0,0,/Users/ethan/Documents/GitHub/OpenSesame/Sternberg/experiment_files,0,0,0,no,mono,no,18,no,white,no,no,768,49,3.6.1,legacy,legacy,7 8 4 6 9 5,osweb,1.4.0,1,4,y,36,,0,left,,,rshift,right,right,left,760,,,5201,19378,8074,760,2,legacy,702,1280,24,800,24,34,25,1280,1632908797680,6,1024,2,48000,-16,experiment,1,odd,MacIntel,6,286859,,,283615,81,284640,259187,81,5303,98979,288867,285652,289643,81,288867,Sternberg_updated,31,36532,42,yes,1024
74,74,872,872,black,no,experiment,Mozilla,Netscape,"5.0 (Macintosh; Intel Mac OS X 10_15_7) AppleWebKit/605.1.15 (KHTML, like Gecko) Version/14.1.2 Safari/605.1.15",legacy,legacy,legacy,0,uniform,1,1,left,42,42,42,42,0,0,0,42,42,0,0,0,42,42,42,0,0,42,42,0,29-08-21,29-08-21,11:46:29,Wed Sep 29 2021 11:46:29 GMT+0200 (CEST),The main experiment item,yes,0,0,/Users/ethan/Documents/GitHub/OpenSesame/Sternberg/experiment_files,0,0,0,no,mono,no,18,no,white,no,no,768,49,3.6.1,legacy,legacy,6 9 4 5 3 2,osweb,1.4.0,1,0,n,36,,0,left,,,rshift,right,right,left,963,,,5201,19378,8074,963,2,legacy,702,1280,24,800,24,34,25,1280,1632908797680,6,1024,2,48000,-16,experiment,1,odd,MacIntel,8,292895,,,283615,81,290673,289647,81,5303,98979,294903,291686,295879,81,294903,Sternberg_updated,32,37495,43,yes,1024
75,75,873,873,black,no,experiment,Mozilla,Netscape,"5.0 (Macintosh; Intel Mac OS X 10_15_7) AppleWebKit/605.1.15 (KHTML, like Gecko) Version/14.1.2 Safari/605.1.15",legacy,legacy,legacy,0,uniform,1,1,left,43,43,43,43,0,0,0,43,43,0,0,0,43,43,43,0,0,43,43,0,29-08-21,29-08-21,11:46:29,Wed Sep 29 2021 11:46:29 GMT+0200 (CEST),The main experiment item,yes,0,0,/Users/ethan/Documents/GitHub/OpenSesame/Sternberg/experiment_files,0,0,0,no,mono,no,18,no,white,no,no,768,49,3.6.1,legacy,legacy,5 3 8 7 2 4,osweb,1.4.0,1,0,n,36,,0,left,,,rshift,right,right,left,919,,,5201,19378,8074,919,2,legacy,702,1280,24,800,24,34,25,1280,1632908797680,6,1024,2,48000,-16,experiment,1,odd,MacIntel,9,299132,,,295882,81,296909,289647,81,5303,98979,301139,297922,302065,81,301139,Sternberg_updated,33,38414,44,yes,1024
76,76,868,868,black,no,experiment,Mozilla,Netscape,"5.0 (Macintosh; Intel Mac OS X 10_15_7) AppleWebKit/605.1.15 (KHTML, like Gecko) Version/14.1.2 Safari/605.1.15",legacy,legacy,legacy,0,uniform,1,1,left,44,44,44,44,0,0,0,44,44,0,0,0,44,44,44,0,0,44,44,0,29-08-21,29-08-21,11:46:29,Wed Sep 29 2021 11:46:29 GMT+0200 (CEST),The main experiment item,yes,0,0,/Users/ethan/Documents/GitHub/OpenSesame/Sternberg/experiment_files,0,0,0,no,mono,no,18,no,white,no,no,768,49,3.6.1,legacy,legacy,8 6 3 4 7,osweb,1.4.0,1,0,n,36,,0,left,,,rshift,right,right,left,661,,,5201,19378,8074,661,2,legacy,702,1280,24,800,24,34,25,1280,1632908797680,5,1024,2,48000,-16,experiment,1,odd,MacIntel,1,305318,,,302073,81,303098,289647,81,5303,98979,307326,304109,308001,81,307326,Sternberg_updated,34,39075,45,yes,1024
74,74,869,869,black,no,experiment,Mozilla,Netscape,"5.0 (Macintosh; Intel Mac OS X 10_15_7) AppleWebKit/605.1.15 (KHTML, like Gecko) Version/14.1.2 Safari/605.1.15",legacy,legacy,legacy,0,uniform,0,0,right,45,45,45,45,0,0,0,45,45,0,0,0,45,45,45,0,0,45,45,0,29-08-21,29-08-21,11:46:29,Wed Sep 29 2021 11:46:29 GMT+0200 (CEST),The main experiment item,yes,0,0,/Users/ethan/Documents/GitHub/OpenSesame/Sternberg/experiment_files,0,0,0,no,mono,no,18,no,white,no,no,768,49,3.6.1,legacy,legacy,4 7 6 8 2 3,osweb,1.4.0,1,6,y,36,,0,left,,,rshift,right,right,left,907,,,5201,19378,8074,907,2,legacy,702,1280,24,800,24,34,25,1280,1632908797680,6,1024,2,48000,-16,experiment,1,odd,MacIntel,3,311254,,,308005,81,309031,289647,81,5303,98979,313262,310047,314170,81,313262,Sternberg_updated,34,39982,46,yes,1024
74,74,869,869,black,no,experiment,Mozilla,Netscape,"5.0 (Macintosh; Intel Mac OS X 10_15_7) AppleWebKit/605.1.15 (KHTML, like Gecko) Version/14.1.2 Safari/605.1.15",legacy,legacy,legacy,0,uniform,1,1,right,46,46,46,46,0,0,0,46,46,0,0,0,46,46,46,0,0,46,46,0,29-08-21,29-08-21,11:46:29,Wed Sep 29 2021 11:46:29 GMT+0200 (CEST),The main experiment item,yes,0,0,/Users/ethan/Documents/GitHub/OpenSesame/Sternberg/experiment_files,0,0,0,no,mono,no,18,no,white,no,no,768,49,3.6.1,legacy,legacy,9 8 4,osweb,1.4.0,1,1,y,36,,0,right,,,rshift,right,right,right,871,,,5201,19378,8074,871,2,legacy,702,1280,24,800,24,34,25,1280,1632908797680,3,1024,2,48000,-16,experiment,1,odd,MacIntel,9,317423,,,308005,81,315203,314173,81,5303,98979,319429,316214,320303,81,319429,Sternberg_updated,35,40853,47,yes,1024
73,73,868,868,black,no,experiment,Mozilla,Netscape,"5.0 (Macintosh; Intel Mac OS X 10_15_7) AppleWebKit/605.1.15 (KHTML, like Gecko) Version/14.1.2 Safari/605.1.15",legacy,legacy,legacy,0,uniform,0,0,right,47,47,47,47,0,0,0,47,47,0,0,0,47,47,47,0,0,47,47,0,29-08-21,29-08-21,11:46:29,Wed Sep 29 2021 11:46:29 GMT+0200 (CEST),The main experiment item,yes,0,0,/Users/ethan/Documents/GitHub/OpenSesame/Sternberg/experiment_files,0,0,0,no,mono,no,18,no,white,no,no,768,49,3.6.1,legacy,legacy,5 2 9 6 1 7,osweb,1.4.0,1,3,y,36,,0,left,,,rshift,right,right,left,826,,,5201,19378,8074,826,2,legacy,702,1280,24,800,24,34,25,1280,1632908797680,6,1024,2,48000,-16,experiment,1,odd,MacIntel,9,323554,,,320307,81,321338,314173,81,5303,98979,325560,322346,326400,81,325560,Sternberg_updated,35,41679,48,yes,1024
73,73,867,867,black,no,experiment,Mozilla,Netscape,"5.0 (Macintosh; Intel Mac OS X 10_15_7) AppleWebKit/605.1.15 (KHTML, like Gecko) Version/14.1.2 Safari/605.1.15",legacy,legacy,legacy,0,uniform,1,1,right,48,48,48,48,0,0,0,48,48,0,0,0,48,48,48,0,0,48,48,0,29-08-21,29-08-21,11:46:29,Wed Sep 29 2021 11:46:29 GMT+0200 (CEST),The main experiment item,yes,0,0,/Users/ethan/Documents/GitHub/OpenSesame/Sternberg/experiment_files,0,0,0,no,mono,no,18,no,white,no,no,768,49,3.6.1,legacy,legacy,8 9 5 6 7,osweb,1.4.0,1,1,y,36,,0,right,,,rshift,right,right,right,816,,,5201,19378,8074,816,2,legacy,702,1280,24,800,24,34,25,1280,1632908797680,5,1024,2,48000,-16,experiment,1,odd,MacIntel,8,329657,,,320307,81,327430,326404,81,5303,98979,331665,328441,332495,81,331665,Sternberg_updated,36,42495,49,yes,1024
72,72,863,863,black,no,experiment,Mozilla,Netscape,"5.0 (Macintosh; Intel Mac OS X 10_15_7) AppleWebKit/605.1.15 (KHTML, like Gecko) Version/14.1.2 Safari/605.1.15",legacy,legacy,legacy,0,uniform,0,0,right,49,49,49,49,0,0,0,49,49,0,0,0,49,49,49,0,0,49,49,0,29-08-21,29-08-21,11:46:29,Wed Sep 29 2021 11:46:29 GMT+0200 (CEST),The main experiment item,yes,0,0,/Users/ethan/Documents/GitHub/OpenSesame/Sternberg/experiment_files,0,0,0,no,mono,no,18,no,white,no,no,768,49,3.6.1,legacy,legacy,2 4 8 5 1 3,osweb,1.4.0,1,1,y,36,,0,left,,,rshift,right,right,left,661,,,5201,19378,8074,661,2,legacy,702,1280,24,800,24,34,25,1280,1632908797680,6,1024,2,48000,-16,experiment,1,odd,MacIntel,2,335762,,,332499,81,333527,326404,81,5303,98979,337770,334545,338433,81,337770,Sternberg_updated,36,43156,50,yes,1024
73,73,862,862,black,no,experiment,Mozilla,Netscape,"5.0 (Macintosh; Intel Mac OS X 10_15_7) AppleWebKit/605.1.15 (KHTML, like Gecko) Version/14.1.2 Safari/605.1.15",legacy,legacy,legacy,0,uniform,1,1,left,50,50,50,50,0,0,0,50,50,0,0,0,50,50,50,0,0,50,50,0,29-08-21,29-08-21,11:46:29,Wed Sep 29 2021 11:46:29 GMT+0200 (CEST),The main experiment item,yes,0,0,/Users/ethan/Documents/GitHub/OpenSesame/Sternberg/experiment_files,0,0,0,no,mono,no,18,no,white,no,no,768,49,3.6.1,legacy,legacy,7 3 2 8,osweb,1.4.0,1,0,n,36,,0,left,,,rshift,right,right,left,805,,,5201,19378,8074,805,2,legacy,702,1280,24,800,24,34,25,1280,1632908797680,4,1024,2,48000,-16,experiment,1,odd,MacIntel,4,341699,,,332499,81,339464,338436,81,5303,98979,343707,340483,344521,81,343707,Sternberg_updated,37,43961,51,yes,1024
73,73,868,868,black,no,experiment,Mozilla,Netscape,"5.0 (Macintosh; Intel Mac OS X 10_15_7) AppleWebKit/605.1.15 (KHTML, like Gecko) Version/14.1.2 Safari/605.1.15",legacy,legacy,legacy,0,uniform,1,1,right,51,51,51,51,0,0,0,51,51,0,0,0,51,51,51,0,0,51,51,0,29-08-21,29-08-21,11:46:29,Wed Sep 29 2021 11:46:29 GMT+0200 (CEST),The main experiment item,yes,0,0,/Users/ethan/Documents/GitHub/OpenSesame/Sternberg/experiment_files,0,0,0,no,mono,no,18,no,white,no,no,768,49,3.6.1,legacy,legacy,8 5 1 3 9,osweb,1.4.0,1,4,y,36,,0,right,,,rshift,right,right,right,1184,,,5201,19378,8074,1184,2,legacy,702,1280,24,800,24,34,25,1280,1632908797680,5,1024,2,48000,-16,experiment,1,odd,MacIntel,3,347781,,,344525,81,345552,338436,81,5303,98979,349790,346567,350981,81,349790,Sternberg_updated,38,45145,52,yes,1024
74,74,873,873,black,no,experiment,Mozilla,Netscape,"5.0 (Macintosh; Intel Mac OS X 10_15_7) AppleWebKit/605.1.15 (KHTML, like Gecko) Version/14.1.2 Safari/605.1.15",legacy,legacy,legacy,0,uniform,1,1,left,52,52,52,52,0,0,0,52,52,0,0,0,52,52,52,0,0,52,52,0,29-08-21,29-08-21,11:46:29,Wed Sep 29 2021 11:46:29 GMT+0200 (CEST),The main experiment item,yes,0,0,/Users/ethan/Documents/GitHub/OpenSesame/Sternberg/experiment_files,0,0,0,no,mono,no,18,no,white,no,no,768,49,3.6.1,legacy,legacy,1 5 3 2 8,osweb,1.4.0,1,0,n,36,,0,left,,,rshift,right,right,left,1139,,,5201,19378,8074,1139,2,legacy,702,1280,24,800,24,34,25,1280,1632908797680,5,1024,2,48000,-16,experiment,1,odd,MacIntel,4,354233,,,350985,81,352013,338436,81,5303,98979,356241,353024,357383,81,356241,Sternberg_updated,39,46284,53,yes,1024
74,74,871,871,black,no,experiment,Mozilla,Netscape,"5.0 (Macintosh; Intel Mac OS X 10_15_7) AppleWebKit/605.1.15 (KHTML, like Gecko) Version/14.1.2 Safari/605.1.15",legacy,legacy,legacy,0,uniform,1,1,left,53,53,53,53,0,0,0,53,53,0,0,0,53,53,53,0,0,53,53,0,29-08-21,29-08-21,11:46:29,Wed Sep 29 2021 11:46:29 GMT+0200 (CEST),The main experiment item,yes,0,0,/Users/ethan/Documents/GitHub/OpenSesame/Sternberg/experiment_files,0,0,0,no,mono,no,18,no,white,no,no,768,49,3.6.1,legacy,legacy,8 2 1 4 5 9,osweb,1.4.0,1,0,n,36,,0,left,,,rshift,right,right,left,740,,,5201,19378,8074,740,2,legacy,702,1280,24,800,24,34,25,1280,1632908797680,6,1024,2,48000,-16,experiment,1,odd,MacIntel,7,360641,,,357386,81,358413,338436,81,5303,98979,362648,359425,363396,81,362648,Sternberg_updated,40,47024,54,yes,1024
75,75,875,875,black,no,experiment,Mozilla,Netscape,"5.0 (Macintosh; Intel Mac OS X 10_15_7) AppleWebKit/605.1.15 (KHTML, like Gecko) Version/14.1.2 Safari/605.1.15",legacy,legacy,legacy,0,uniform,1,1,right,54,54,54,54,0,0,0,54,54,0,0,0,54,54,54,0,0,54,54,0,29-08-21,29-08-21,11:46:29,Wed Sep 29 2021 11:46:29 GMT+0200 (CEST),The main experiment item,yes,0,0,/Users/ethan/Documents/GitHub/OpenSesame/Sternberg/experiment_files,0,0,0,no,mono,no,18,no,white,no,no,768,49,3.6.1,legacy,legacy,3 9 7 6 4,osweb,1.4.0,1,3,y,36,,0,right,,,rshift,right,right,right,1090,,,5201,19378,8074,1090,2,legacy,702,1280,24,800,24,34,25,1280,1632908797680,5,1024,2,48000,-16,experiment,1,odd,MacIntel,7,366654,,,363399,81,364426,338436,81,5303,98979,368661,365437,369752,81,368660,Sternberg_updated,41,48114,55,yes,1024
75,75,874,874,black,no,experiment,Mozilla,Netscape,"5.0 (Macintosh; Intel Mac OS X 10_15_7) AppleWebKit/605.1.15 (KHTML, like Gecko) Version/14.1.2 Safari/605.1.15",legacy,legacy,legacy,0,uniform,1,1,right,55,55,55,55,0,0,0,55,55,0,0,0,55,55,55,0,0,55,55,0,29-08-21,29-08-21,11:46:29,Wed Sep 29 2021 11:46:29 GMT+0200 (CEST),The main experiment item,yes,0,0,/Users/ethan/Documents/GitHub/OpenSesame/Sternberg/experiment_files,0,0,0,no,mono,no,18,no,white,no,no,768,49,3.6.1,legacy,legacy,9 6 2 4 1,osweb,1.4.0,1,4,y,36,,0,right,right,,rshift,right,right,right,808,11121,,5201,19378,8074,808,2,legacy,702,1280,24,800,24,34,25,1280,1632908797680,5,1024,2,48000,-16,experiment,1,odd,MacIntel,4,384152,370773,,369755,81,381931,338436,81,5303,98979,386159,382942,386985,81,386159,Sternberg_updated,42,48922,56,yes,1024
75,75,872,872,black,no,experiment,Mozilla,Netscape,"5.0 (Macintosh; Intel Mac OS X 10_15_7) AppleWebKit/605.1.15 (KHTML, like Gecko) Version/14.1.2 Safari/605.1.15",legacy,legacy,legacy,0,uniform,1,1,right,56,56,56,56,0,0,0,56,56,0,0,0,56,56,56,0,0,56,56,0,29-08-21,29-08-21,11:46:29,Wed Sep 29 2021 11:46:29 GMT+0200 (CEST),The main experiment item,yes,0,0,/Users/ethan/Documents/GitHub/OpenSesame/Sternberg/experiment_files,0,0,0,no,mono,no,18,no,white,no,no,768,49,3.6.1,legacy,legacy,6 8 9 3 4 9,osweb,1.4.0,1,5,y,36,,0,right,right,,rshift,right,right,right,782,11121,,5201,19378,8074,782,2,legacy,702,1280,24,800,24,34,25,1280,1632908797680,6,1024,2,48000,-16,experiment,1,odd,MacIntel,4,390238,370773,,386989,81,388016,338436,81,5303,98979,392245,389028,393037,81,392245,Sternberg_updated,43,49704,57,yes,1024
76,76,872,872,black,no,experiment,Mozilla,Netscape,"5.0 (Macintosh; Intel Mac OS X 10_15_7) AppleWebKit/605.1.15 (KHTML, like Gecko) Version/14.1.2 Safari/605.1.15",legacy,legacy,legacy,0,uniform,1,1,right,57,57,57,57,0,0,0,57,57,0,0,0,57,57,57,0,0,57,57,0,29-08-21,29-08-21,11:46:29,Wed Sep 29 2021 11:46:29 GMT+0200 (CEST),The main experiment item,yes,0,0,/Users/ethan/Documents/GitHub/OpenSesame/Sternberg/experiment_files,0,0,0,no,mono,no,18,no,white,no,no,768,49,3.6.1,legacy,legacy,4,osweb,1.4.0,1,1,y,36,,0,right,right,,rshift,right,right,right,874,11121,,5201,19378,8074,874,2,legacy,702,1280,24,800,24,34,25,1280,1632908797680,1,1024,2,48000,-16,experiment,1,odd,MacIntel,4,396291,370773,,393041,81,394068,338436,81,5303,98979,398298,395081,399173,81,398298,Sternberg_updated,44,50578,58,yes,1024
76,76,870,870,black,no,experiment,Mozilla,Netscape,"5.0 (Macintosh; Intel Mac OS X 10_15_7) AppleWebKit/605.1.15 (KHTML, like Gecko) Version/14.1.2 Safari/605.1.15",legacy,legacy,legacy,0,uniform,1,1,left,58,58,58,58,0,0,0,58,58,0,0,0,58,58,58,0,0,58,58,0,29-08-21,29-08-21,11:46:29,Wed Sep 29 2021 11:46:29 GMT+0200 (CEST),The main experiment item,yes,0,0,/Users/ethan/Documents/GitHub/OpenSesame/Sternberg/experiment_files,0,0,0,no,mono,no,18,no,white,no,no,768,49,3.6.1,legacy,legacy,5 9 2 3,osweb,1.4.0,1,0,n,36,,0,left,right,,rshift,right,right,left,755,11121,,5201,19378,8074,755,2,legacy,702,1280,24,800,24,34,25,1280,1632908797680,4,1024,2,48000,-16,experiment,1,odd,MacIntel,8,402432,370773,,399176,81,400205,338436,81,5303,98979,404438,401222,405194,81,404438,Sternberg_updated,45,51333,59,yes,1024
75,75,867,867,black,no,experiment,Mozilla,Netscape,"5.0 (Macintosh; Intel Mac OS X 10_15_7) AppleWebKit/605.1.15 (KHTML, like Gecko) Version/14.1.2 Safari/605.1.15",legacy,legacy,legacy,0,uniform,0,0,right,59,59,59,59,0,0,0,59,59,0,0,0,59,59,59,0,0,59,59,0,29-08-21,29-08-21,11:46:29,Wed Sep 29 2021 11:46:29 GMT+0200 (CEST),The main experiment item,yes,0,0,/Users/ethan/Documents/GitHub/OpenSesame/Sternberg/experiment_files,0,0,0,no,mono,no,18,no,white,no,no,768,49,3.6.1,legacy,legacy,2 3,osweb,1.4.0,1,1,y,36,,0,left,right,,rshift,right,right,left,711,11121,,5201,19378,8074,711,2,legacy,702,1280,24,800,24,34,25,1280,1632908797680,2,1024,2,48000,-16,experiment,1,odd,MacIntel,2,408448,370773,,405197,81,406225,338436,81,5303,98979,410453,407238,411177,81,410453,Sternberg_updated,45,52044,60,yes,1024
75,75,865,865,black,no,experiment,Mozilla,Netscape,"5.0 (Macintosh; Intel Mac OS X 10_15_7) AppleWebKit/605.1.15 (KHTML, like Gecko) Version/14.1.2 Safari/605.1.15",legacy,legacy,legacy,0,uniform,1,1,left,60,60,60,60,0,0,0,60,60,0,0,0,60,60,60,0,0,60,60,0,29-08-21,29-08-21,11:46:29,Wed Sep 29 2021 11:46:29 GMT+0200 (CEST),The main experiment item,yes,0,0,/Users/ethan/Documents/GitHub/OpenSesame/Sternberg/experiment_files,0,0,0,no,mono,no,18,no,white,no,no,768,49,3.6.1,legacy,legacy,6 9 4 5 2,osweb,1.4.0,1,0,n,36,,0,left,right,,rshift,right,right,left,728,11121,,5201,19378,8074,728,2,legacy,702,1280,24,800,24,34,25,1280,1632908797680,5,1024,2,48000,-16,experiment,1,odd,MacIntel,1,414429,370773,,405197,81,412207,411181,81,5303,98979,416436,413220,417176,81,416436,Sternberg_updated,46,52772,61,yes,1024
76,76,862,862,black,no,experiment,Mozilla,Netscape,"5.0 (Macintosh; Intel Mac OS X 10_15_7) AppleWebKit/605.1.15 (KHTML, like Gecko) Version/14.1.2 Safari/605.1.15",legacy,legacy,legacy,0,uniform,1,1,left,61,61,61,61,0,0,0,61,61,0,0,0,61,61,61,0,0,61,61,0,29-08-21,29-08-21,11:46:29,Wed Sep 29 2021 11:46:29 GMT+0200 (CEST),The main experiment item,yes,0,0,/Users/ethan/Documents/GitHub/OpenSesame/Sternberg/experiment_files,0,0,0,no,mono,no,18,no,white,no,no,768,49,3.6.1,legacy,legacy,2 6 4 3 9,osweb,1.4.0,1,0,n,36,,0,left,right,,rshift,right,right,left,673,11121,,5201,19378,8074,673,2,legacy,702,1280,24,800,24,34,25,1280,1632908797680,5,1024,2,48000,-16,experiment,1,odd,MacIntel,1,420429,370773,,417180,81,418207,411181,81,5303,98979,422434,419219,423108,81,422434,Sternberg_updated,47,53445,62,yes,1024
76,76,865,865,black,no,experiment,Mozilla,Netscape,"5.0 (Macintosh; Intel Mac OS X 10_15_7) AppleWebKit/605.1.15 (KHTML, like Gecko) Version/14.1.2 Safari/605.1.15",legacy,legacy,legacy,0,uniform,1,1,left,62,62,62,62,0,0,0,62,62,0,0,0,62,62,62,0,0,62,62,0,29-08-21,29-08-21,11:46:29,Wed Sep 29 2021 11:46:29 GMT+0200 (CEST),The main experiment item,yes,0,0,/Users/ethan/Documents/GitHub/OpenSesame/Sternberg/experiment_files,0,0,0,no,mono,no,18,no,white,no,no,768,49,3.6.1,legacy,legacy,7 9,osweb,1.4.0,1,0,n,36,,0,left,right,,rshift,right,right,left,1032,11121,,5201,19378,8074,1032,2,legacy,702,1280,24,800,24,34,25,1280,1632908797680,2,1024,2,48000,-16,experiment,1,odd,MacIntel,1,426361,370773,,423111,81,424139,411181,81,5303,98979,428368,425152,429410,81,428368,Sternberg_updated,48,54477,63,yes,1024
77,77,865,865,black,no,experiment,Mozilla,Netscape,"5.0 (Macintosh; Intel Mac OS X 10_15_7) AppleWebKit/605.1.15 (KHTML, like Gecko) Version/14.1.2 Safari/605.1.15",legacy,legacy,legacy,0,uniform,1,1,right,63,63,63,63,0,0,0,63,63,0,0,0,63,63,63,0,0,63,63,0,29-08-21,29-08-21,11:46:29,Wed Sep 29 2021 11:46:29 GMT+0200 (CEST),The main experiment item,yes,0,0,/Users/ethan/Documents/GitHub/OpenSesame/Sternberg/experiment_files,0,0,0,no,mono,no,18,no,white,no,no,768,49,3.6.1,legacy,legacy,7 2 3,osweb,1.4.0,1,3,y,36,,0,right,right,,rshift,right,right,right,862,11121,,5201,19378,8074,862,2,legacy,702,1280,24,800,24,34,25,1280,1632908797680,3,1024,2,48000,-16,experiment,1,odd,MacIntel,3,432666,370773,,429413,81,430438,411181,81,5303,98979,434674,431449,435537,81,434673,Sternberg_updated,49,55339,64,yes,1024
75,75,860,860,black,no,experiment,Mozilla,Netscape,"5.0 (Macintosh; Intel Mac OS X 10_15_7) AppleWebKit/605.1.15 (KHTML, like Gecko) Version/14.1.2 Safari/605.1.15",legacy,legacy,legacy,0,uniform,0,0,right,64,64,64,64,0,0,0,64,64,0,0,0,64,64,64,0,0,64,64,0,29-08-21,29-08-21,11:46:29,Wed Sep 29 2021 11:46:29 GMT+0200 (CEST),The main experiment item,yes,0,0,/Users/ethan/Documents/GitHub/OpenSesame/Sternberg/experiment_files,0,0,0,no,mono,no,18,no,white,no,no,768,49,3.6.1,legacy,legacy,9 5 8 1,osweb,1.4.0,1,2,y,36,,0,left,right,,rshift,right,right,left,548,11121,,5201,19378,8074,548,2,legacy,702,1280,24,800,24,34,25,1280,1632908797680,4,1024,2,48000,-16,experiment,1,odd,MacIntel,5,438780,370773,,435540,81,436569,411181,81,5303,98979,440788,437574,441351,81,440788,Sternberg_updated,49,55887,65,yes,1024
76,76,862,862,black,no,experiment,Mozilla,Netscape,"5.0 (Macintosh; Intel Mac OS X 10_15_7) AppleWebKit/605.1.15 (KHTML, like Gecko) Version/14.1.2 Safari/605.1.15",legacy,legacy,legacy,0,uniform,1,1,right,65,65,65,65,0,0,0,65,65,0,0,0,65,65,65,0,0,65,65,0,29-08-21,29-08-21,11:46:29,Wed Sep 29 2021 11:46:29 GMT+0200 (CEST),The main experiment item,yes,0,0,/Users/ethan/Documents/GitHub/OpenSesame/Sternberg/experiment_files,0,0,0,no,mono,no,18,no,white,no,no,768,49,3.6.1,legacy,legacy,5 2 6,osweb,1.4.0,1,2,y,36,,0,right,right,,rshift,right,right,right,974,11121,,5201,19378,8074,974,2,legacy,702,1280,24,800,24,34,25,1280,1632908797680,3,1024,2,48000,-16,experiment,1,odd,MacIntel,2,444603,370773,,435540,81,442383,441355,81,5303,98979,446609,443402,447585,81,446609,Sternberg_updated,50,56861,66,yes,1024
76,76,860,860,black,no,experiment,Mozilla,Netscape,"5.0 (Macintosh; Intel Mac OS X 10_15_7) AppleWebKit/605.1.15 (KHTML, like Gecko) Version/14.1.2 Safari/605.1.15",legacy,legacy,legacy,0,uniform,1,1,left,66,66,66,66,0,0,0,66,66,0,0,0,66,66,66,0,0,66,66,0,29-08-21,29-08-21,11:46:29,Wed Sep 29 2021 11:46:29 GMT+0200 (CEST),The main experiment item,yes,0,0,/Users/ethan/Documents/GitHub/OpenSesame/Sternberg/experiment_files,0,0,0,no,mono,no,18,no,white,no,no,768,49,3.6.1,legacy,legacy,1 3 2 6 9,osweb,1.4.0,1,0,n,36,,0,left,right,,rshift,right,right,left,731,11121,,5201,19378,8074,731,2,legacy,702,1280,24,800,24,34,25,1280,1632908797680,5,1024,2,48000,-16,experiment,1,odd,MacIntel,5,450833,370773,,447588,81,448615,441355,81,5303,98979,452841,449629,453584,81,452841,Sternberg_updated,51,57592,67,yes,1024
76,76,859,859,black,no,experiment,Mozilla,Netscape,"5.0 (Macintosh; Intel Mac OS X 10_15_7) AppleWebKit/605.1.15 (KHTML, like Gecko) Version/14.1.2 Safari/605.1.15",legacy,legacy,legacy,0,uniform,1,1,right,67,67,67,67,0,0,0,67,67,0,0,0,67,67,67,0,0,67,67,0,29-08-21,29-08-21,11:46:29,Wed Sep 29 2021 11:46:29 GMT+0200 (CEST),The main experiment item,yes,0,0,/Users/ethan/Documents/GitHub/OpenSesame/Sternberg/experiment_files,0,0,0,no,mono,no,18,no,white,no,no,768,49,3.6.1,legacy,legacy,9 4 2,osweb,1.4.0,1,1,y,36,,0,right,right,,rshift,right,right,right,838,11121,,5201,19378,8074,838,2,legacy,702,1280,24,800,24,34,25,1280,1632908797680,3,1024,2,48000,-16,experiment,1,odd,MacIntel,9,456832,370773,,453588,81,454614,441355,81,5303,98979,458840,455624,459682,81,458840,Sternberg_updated,52,58430,68,yes,1024
75,75,857,857,black,no,experiment,Mozilla,Netscape,"5.0 (Macintosh; Intel Mac OS X 10_15_7) AppleWebKit/605.1.15 (KHTML, like Gecko) Version/14.1.2 Safari/605.1.15",legacy,legacy,legacy,0,uniform,0,0,right,68,68,68,68,0,0,0,68,68,0,0,0,68,68,68,0,0,68,68,0,29-08-21,29-08-21,11:46:29,Wed Sep 29 2021 11:46:29 GMT+0200 (CEST),The main experiment item,yes,0,0,/Users/ethan/Documents/GitHub/OpenSesame/Sternberg/experiment_files,0,0,0,no,mono,no,18,no,white,no,no,768,49,3.6.1,legacy,legacy,7 8 6 3 1,osweb,1.4.0,1,5,y,36,,0,left,right,,rshift,right,right,left,721,11121,,5201,19378,8074,721,2,legacy,702,1280,24,800,24,34,25,1280,1632908797680,5,1024,2,48000,-16,experiment,1,odd,MacIntel,1,462935,370773,,459685,81,460712,441355,81,5303,98979,464943,461726,465668,81,464943,Sternberg_updated,52,59151,69,yes,1024
76,76,869,869,black,no,experiment,Mozilla,Netscape,"5.0 (Macintosh; Intel Mac OS X 10_15_7) AppleWebKit/605.1.15 (KHTML, like Gecko) Version/14.1.2 Safari/605.1.15",legacy,legacy,legacy,0,uniform,1,1,left,69,69,69,69,0,0,0,69,69,0,0,0,69,69,69,0,0,69,69,0,29-08-21,29-08-21,11:46:29,Wed Sep 29 2021 11:46:29 GMT+0200 (CEST),The main experiment item,yes,0,0,/Users/ethan/Documents/GitHub/OpenSesame/Sternberg/experiment_files,0,0,0,no,mono,no,18,no,white,no,no,768,49,3.6.1,legacy,legacy,7 1,osweb,1.4.0,1,0,n,36,,0,left,right,,rshift,right,right,left,1672,11121,,5201,19378,8074,1672,2,legacy,702,1280,24,800,24,34,25,1280,1632908797680,2,1024,2,48000,-16,experiment,1,odd,MacIntel,8,468925,370773,,459685,81,466704,465672,81,5303,98979,470934,467717,472619,81,470934,Sternberg_updated,53,60823,70,yes,1024
76,76,867,867,black,no,experiment,Mozilla,Netscape,"5.0 (Macintosh; Intel Mac OS X 10_15_7) AppleWebKit/605.1.15 (KHTML, like Gecko) Version/14.1.2 Safari/605.1.15",legacy,legacy,legacy,0,uniform,1,1,left,70,70,70,70,0,0,0,70,70,0,0,0,70,70,70,0,0,70,70,0,29-08-21,29-08-21,11:46:29,Wed Sep 29 2021 11:46:29 GMT+0200 (CEST),The main experiment item,yes,0,0,/Users/ethan/Documents/GitHub/OpenSesame/Sternberg/experiment_files,0,0,0,no,mono,no,18,no,white,no,no,768,49,3.6.1,legacy,legacy,2 5 1 4,osweb,1.4.0,1,0,n,36,,0,left,right,,rshift,right,right,left,720,11121,,5201,19378,8074,720,2,legacy,702,1280,24,800,24,34,25,1280,1632908797680,4,1024,2,48000,-16,experiment,1,odd,MacIntel,6,475872,370773,,472623,81,473655,465672,81,5303,98979,477879,474661,478605,81,477879,Sternberg_updated,54,61543,71,yes,1024
76,76,868,868,black,no,experiment,Mozilla,Netscape,"5.0 (Macintosh; Intel Mac OS X 10_15_7) AppleWebKit/605.1.15 (KHTML, like Gecko) Version/14.1.2 Safari/605.1.15",legacy,legacy,legacy,0,uniform,1,1,right,71,71,71,71,0,0,0,71,71,0,0,0,71,71,71,0,0,71,71,0,29-08-21,29-08-21,11:46:29,Wed Sep 29 2021 11:46:29 GMT+0200 (CEST),The main experiment item,yes,0,0,/Users/ethan/Documents/GitHub/OpenSesame/Sternberg/experiment_files,0,0,0,no,mono,no,18,no,white,no,no,768,49,3.6.1,legacy,legacy,4 1 8 7 5,osweb,1.4.0,1,3,y,36,,0,right,right,,rshift,right,right,right,988,11121,,5201,19378,8074,988,2,legacy,702,1280,24,800,24,34,25,1280,1632908797680,5,1024,2,48000,-16,experiment,1,odd,MacIntel,8,481855,370773,,478608,81,479634,465672,81,5303,98979,483862,480646,484855,81,483862,Sternberg_updated,55,62531,72,yes,1024
77,77,865,865,black,no,experiment,Mozilla,Netscape,"5.0 (Macintosh; Intel Mac OS X 10_15_7) AppleWebKit/605.1.15 (KHTML, like Gecko) Version/14.1.2 Safari/605.1.15",legacy,legacy,legacy,0,uniform,1,1,right,72,72,72,72,0,0,0,72,72,0,0,0,72,72,72,0,0,72,72,0,29-08-21,29-08-21,11:46:29,Wed Sep 29 2021 11:46:29 GMT+0200 (CEST),The main experiment item,yes,0,0,/Users/ethan/Documents/GitHub/OpenSesame/Sternberg/experiment_files,0,0,0,no,mono,no,18,no,white,no,no,768,49,3.6.1,legacy,legacy,7 6,osweb,1.4.0,1,2,y,36,,0,right,right,,rshift,right,right,right,626,11121,,5201,19378,8074,626,2,legacy,702,1280,24,800,24,34,25,1280,1632908797680,2,1024,2,48000,-16,experiment,1,odd,MacIntel,6,488108,370773,,484858,81,485885,465672,81,5303,98979,490115,486898,490758,81,490115,Sternberg_updated,56,63157,73,yes,1024
77,77,862,862,black,no,experiment,Mozilla,Netscape,"5.0 (Macintosh; Intel Mac OS X 10_15_7) AppleWebKit/605.1.15 (KHTML, like Gecko) Version/14.1.2 Safari/605.1.15",legacy,legacy,legacy,0,uniform,1,1,left,73,73,73,73,0,0,0,73,73,0,0,0,73,73,73,0,0,73,73,0,29-08-21,29-08-21,11:46:29,Wed Sep 29 2021 11:46:29 GMT+0200 (CEST),The main experiment item,yes,0,0,/Users/ethan/Documents/GitHub/OpenSesame/Sternberg/experiment_files,0,0,0,no,mono,no,18,no,white,no,no,768,49,3.6.1,legacy,legacy,5 2,osweb,1.4.0,1,0,n,36,,0,left,right,,rshift,right,right,left,630,11121,,5201,19378,8074,630,2,legacy,702,1280,24,800,24,34,25,1280,1632908797680,2,1024,2,48000,-16,experiment,1,odd,MacIntel,7,494011,370773,,490761,81,491788,465672,81,5303,98979,496018,492800,496660,81,496018,Sternberg_updated,57,63787,74,yes,1024
77,77,863,863,black,no,experiment,Mozilla,Netscape,"5.0 (Macintosh; Intel Mac OS X 10_15_7) AppleWebKit/605.1.15 (KHTML, like Gecko) Version/14.1.2 Safari/605.1.15",legacy,legacy,legacy,0,uniform,1,1,right,74,74,74,74,0,0,0,74,74,0,0,0,74,74,74,0,0,74,74,0,29-08-21,29-08-21,11:46:29,Wed Sep 29 2021 11:46:29 GMT+0200 (CEST),The main experiment item,yes,0,0,/Users/ethan/Documents/GitHub/OpenSesame/Sternberg/experiment_files,0,0,0,no,mono,no,18,no,white,no,no,768,49,3.6.1,legacy,legacy,6 2,osweb,1.4.0,1,1,y,36,,0,right,right,,rshift,right,right,right,907,11121,,5201,19378,8074,907,2,legacy,702,1280,24,800,24,34,25,1280,1632908797680,2,1024,2,48000,-16,experiment,1,odd,MacIntel,6,499918,370773,,496664,81,497696,465672,81,5303,98979,501926,498709,502834,81,501926,Sternberg_updated,58,64694,75,yes,1024
78,78,861,861,black,no,experiment,Mozilla,Netscape,"5.0 (Macintosh; Intel Mac OS X 10_15_7) AppleWebKit/605.1.15 (KHTML, like Gecko) Version/14.1.2 Safari/605.1.15",legacy,legacy,legacy,0,uniform,1,1,right,75,75,75,75,0,0,0,75,75,0,0,0,75,75,75,0,0,75,75,0,29-08-21,29-08-21,11:46:29,Wed Sep 29 2021 11:46:29 GMT+0200 (CEST),The main experiment item,yes,0,0,/Users/ethan/Documents/GitHub/OpenSesame/Sternberg/experiment_files,0,0,0,no,mono,no,18,no,white,no,no,768,49,3.6.1,legacy,legacy,6 7 8 5,osweb,1.4.0,1,3,y,36,,0,right,right,,rshift,right,right,right,779,11121,,5201,19378,8074,779,2,legacy,702,1280,24,800,24,34,25,1280,1632908797680,4,1024,2,48000,-16,experiment,1,odd,MacIntel,8,506088,370773,,502837,81,503866,465672,81,5303,98979,508096,504878,508888,81,508096,Sternberg_updated,59,65473,76,yes,1024
78,78,861,861,black,no,experiment,Mozilla,Netscape,"5.0 (Macintosh; Intel Mac OS X 10_15_7) AppleWebKit/605.1.15 (KHTML, like Gecko) Version/14.1.2 Safari/605.1.15",legacy,legacy,legacy,0,uniform,1,1,right,76,76,76,76,0,0,0,76,76,0,0,0,76,76,76,0,0,76,76,0,29-08-21,29-08-21,11:46:29,Wed Sep 29 2021 11:46:29 GMT+0200 (CEST),The main experiment item,yes,0,0,/Users/ethan/Documents/GitHub/OpenSesame/Sternberg/experiment_files,0,0,0,no,mono,no,18,no,white,no,no,768,49,3.6.1,legacy,legacy,2 4 6 9,osweb,1.4.0,1,3,y,36,,0,right,right,,rshift,right,right,right,830,11121,,5201,19378,8074,830,2,legacy,702,1280,24,800,24,34,25,1280,1632908797680,4,1024,2,48000,-16,experiment,1,odd,MacIntel,6,512141,370773,,508891,81,509919,465672,81,5303,98979,514148,510931,514991,81,514148,Sternberg_updated,60,66303,77,yes,1024
78,78,857,857,black,no,experiment,Mozilla,Netscape,"5.0 (Macintosh; Intel Mac OS X 10_15_7) AppleWebKit/605.1.15 (KHTML, like Gecko) Version/14.1.2 Safari/605.1.15",legacy,legacy,legacy,0,uniform,1,1,left,77,77,77,77,0,0,0,77,77,0,0,0,77,77,77,0,0,77,77,0,29-08-21,29-08-21,11:46:29,Wed Sep 29 2021 11:46:29 GMT+0200 (CEST),The main experiment item,yes,0,0,/Users/ethan/Documents/GitHub/OpenSesame/Sternberg/experiment_files,0,0,0,no,mono,no,18,no,white,no,no,768,49,3.6.1,legacy,legacy,8 9,osweb,1.4.0,1,0,n,36,,0,left,right,,rshift,right,right,left,524,11121,,5201,19378,8074,524,2,legacy,702,1280,24,800,24,34,25,1280,1632908797680,2,1024,2,48000,-16,experiment,1,odd,MacIntel,5,518244,370773,,514994,81,516021,465672,81,5303,98979,520250,517034,520775,81,520250,Sternberg_updated,61,66827,78,yes,1024
78,78,859,859,black,no,experiment,Mozilla,Netscape,"5.0 (Macintosh; Intel Mac OS X 10_15_7) AppleWebKit/605.1.15 (KHTML, like Gecko) Version/14.1.2 Safari/605.1.15",legacy,legacy,legacy,0,uniform,1,1,left,78,78,78,78,0,0,0,78,78,0,0,0,78,78,78,0,0,78,78,0,29-08-21,29-08-21,11:46:29,Wed Sep 29 2021 11:46:29 GMT+0200 (CEST),The main experiment item,yes,0,0,/Users/ethan/Documents/GitHub/OpenSesame/Sternberg/experiment_files,0,0,0,no,mono,no,18,no,white,no,no,768,49,3.6.1,legacy,legacy,7 8 6 1,osweb,1.4.0,1,0,n,36,,0,left,right,,rshift,right,right,left,1046,11121,,5201,19378,8074,1046,2,legacy,702,1280,24,800,24,34,25,1280,1632908797680,4,1024,2,48000,-16,experiment,1,odd,MacIntel,3,524030,370773,,520779,81,521807,465672,81,5303,98979,526037,522820,527096,81,526037,Sternberg_updated,62,67873,79,yes,1024
79,79,859,859,black,no,experiment,Mozilla,Netscape,"5.0 (Macintosh; Intel Mac OS X 10_15_7) AppleWebKit/605.1.15 (KHTML, like Gecko) Version/14.1.2 Safari/605.1.15",legacy,legacy,legacy,0,uniform,1,1,left,79,79,79,79,0,0,0,79,79,0,0,0,79,79,79,0,0,79,79,0,29-08-21,29-08-21,11:46:29,Wed Sep 29 2021 11:46:29 GMT+0200 (CEST),The main experiment item,yes,0,0,/Users/ethan/Documents/GitHub/OpenSesame/Sternberg/experiment_files,0,0,0,no,mono,no,18,no,white,no,no,768,49,3.6.1,legacy,legacy,7 1 5 6 3,osweb,1.4.0,1,0,n,36,,0,left,right,,rshift,right,right,left,822,11121,,5201,19378,8074,822,2,legacy,702,1280,24,800,24,34,25,1280,1632908797680,5,1024,2,48000,-16,experiment,1,odd,MacIntel,8,530350,370773,,527100,81,528128,465672,81,5303,98979,532356,529145,533180,81,532356,Sternberg_updated,63,68695,80,yes,1024
79,79,859,859,black,no,experiment,Mozilla,Netscape,"5.0 (Macintosh; Intel Mac OS X 10_15_7) AppleWebKit/605.1.15 (KHTML, like Gecko) Version/14.1.2 Safari/605.1.15",legacy,legacy,legacy,0,uniform,1,1,left,80,80,80,80,0,0,0,80,80,0,0,0,80,80,80,0,0,80,80,0,29-08-21,29-08-21,11:46:29,Wed Sep 29 2021 11:46:29 GMT+0200 (CEST),The main experiment item,yes,0,0,/Users/ethan/Documents/GitHub/OpenSesame/Sternberg/experiment_files,0,0,0,no,mono,no,18,no,white,no,no,768,49,3.6.1,legacy,legacy,4 2 7 6 1 3,osweb,1.4.0,1,0,n,36,,0,left,right,,rshift,right,right,left,867,11121,,5201,19378,8074,867,2,legacy,702,1280,24,800,24,34,25,1280,1632908797680,6,1024,2,48000,-16,experiment,1,odd,MacIntel,8,536433,370773,,533183,81,534212,465672,81,5303,98979,538439,535223,539313,81,538439,Sternberg_updated,64,69562,81,yes,1024
79,79,864,864,black,no,experiment,Mozilla,Netscape,"5.0 (Macintosh; Intel Mac OS X 10_15_7) AppleWebKit/605.1.15 (KHTML, like Gecko) Version/14.1.2 Safari/605.1.15",legacy,legacy,legacy,0,uniform,1,1,left,81,81,81,81,0,0,0,81,81,0,0,0,81,81,81,0,0,81,81,0,29-08-21,29-08-21,11:46:29,Wed Sep 29 2021 11:46:29 GMT+0200 (CEST),The main experiment item,yes,0,0,/Users/ethan/Documents/GitHub/OpenSesame/Sternberg/experiment_files,0,0,0,no,mono,no,18,no,white,no,no,768,49,3.6.1,legacy,legacy,8 4 3 5,osweb,1.4.0,1,0,n,36,,0,left,right,,rshift,right,right,left,1301,11121,,5201,19378,8074,1301,2,legacy,702,1280,24,800,24,34,25,1280,1632908797680,4,1024,2,48000,-16,experiment,1,odd,MacIntel,6,542559,370773,,539316,81,540343,465672,81,5303,98979,544565,541353,545868,81,544565,Sternberg_updated,65,70863,82,yes,1024
78,78,862,862,black,no,experiment,Mozilla,Netscape,"5.0 (Macintosh; Intel Mac OS X 10_15_7) AppleWebKit/605.1.15 (KHTML, like Gecko) Version/14.1.2 Safari/605.1.15",legacy,legacy,legacy,0,uniform,0,0,right,82,82,82,82,0,0,0,82,82,0,0,0,82,82,82,0,0,82,82,0,29-08-21,29-08-21,11:46:29,Wed Sep 29 2021 11:46:29 GMT+0200 (CEST),The main experiment item,yes,0,0,/Users/ethan/Documents/GitHub/OpenSesame/Sternberg/experiment_files,0,0,0,no,mono,no,18,no,white,no,no,768,49,3.6.1,legacy,legacy,5 7 8 2 3 8,osweb,1.4.0,1,5,y,36,,0,left,right,,rshift,right,right,left,677,11121,,5201,19378,8074,677,2,legacy,702,1280,24,800,24,34,25,1280,1632908797680,6,1024,2,48000,-16,experiment,1,odd,MacIntel,3,549122,370773,,545871,81,546900,465672,81,5303,98979,551130,547913,551822,81,551130,Sternberg_updated,65,71540,83,yes,1024
79,79,863,863,black,no,experiment,Mozilla,Netscape,"5.0 (Macintosh; Intel Mac OS X 10_15_7) AppleWebKit/605.1.15 (KHTML, like Gecko) Version/14.1.2 Safari/605.1.15",legacy,legacy,legacy,0,uniform,1,1,left,83,83,83,83,0,0,0,83,83,0,0,0,83,83,83,0,0,83,83,0,29-08-21,29-08-21,11:46:29,Wed Sep 29 2021 11:46:29 GMT+0200 (CEST),The main experiment item,yes,0,0,/Users/ethan/Documents/GitHub/OpenSesame/Sternberg/experiment_files,0,0,0,no,mono,no,18,no,white,no,no,768,49,3.6.1,legacy,legacy,7 4 2 8 1 9,osweb,1.4.0,1,0,n,36,,0,left,right,,rshift,right,right,left,993,11121,,5201,19378,8074,993,2,legacy,702,1280,24,800,24,34,25,1280,1632908797680,6,1024,2,48000,-16,experiment,1,odd,MacIntel,5,555075,370773,,545871,81,552854,551825,81,5303,98979,557082,553865,558092,81,557082,Sternberg_updated,66,72533,84,yes,1024
79,79,864,864,black,no,experiment,Mozilla,Netscape,"5.0 (Macintosh; Intel Mac OS X 10_15_7) AppleWebKit/605.1.15 (KHTML, like Gecko) Version/14.1.2 Safari/605.1.15",legacy,legacy,legacy,0,uniform,1,1,left,84,84,84,84,0,0,0,84,84,0,0,0,84,84,84,0,0,84,84,0,29-08-21,29-08-21,11:46:29,Wed Sep 29 2021 11:46:29 GMT+0200 (CEST),The main experiment item,yes,0,0,/Users/ethan/Documents/GitHub/OpenSesame/Sternberg/experiment_files,0,0,0,no,mono,no,18,no,white,no,no,768,49,3.6.1,legacy,legacy,9,osweb,1.4.0,1,0,n,36,,0,left,right,,rshift,right,right,left,935,11121,,5201,19378,8074,935,2,legacy,702,1280,24,800,24,34,25,1280,1632908797680,1,1024,2,48000,-16,experiment,1,odd,MacIntel,6,561345,370773,,558096,81,559122,551825,81,5303,98979,563351,560135,564293,81,563351,Sternberg_updated,67,73468,85,yes,1024
79,79,864,864,black,no,experiment,Mozilla,Netscape,"5.0 (Macintosh; Intel Mac OS X 10_15_7) AppleWebKit/605.1.15 (KHTML, like Gecko) Version/14.1.2 Safari/605.1.15",legacy,legacy,legacy,0,uniform,1,1,right,85,85,85,85,0,0,0,85,85,0,0,0,85,85,85,0,0,85,85,0,29-08-21,29-08-21,11:46:29,Wed Sep 29 2021 11:46:29 GMT+0200 (CEST),The main experiment item,yes,0,0,/Users/ethan/Documents/GitHub/OpenSesame/Sternberg/experiment_files,0,0,0,no,mono,no,18,no,white,no,no,768,49,3.6.1,legacy,legacy,6 9 7 4 5 1,osweb,1.4.0,1,2,y,36,,0,right,right,,rshift,right,right,right,868,11121,,5201,19378,8074,868,2,legacy,702,1280,24,800,24,34,25,1280,1632908797680,6,1024,2,48000,-16,experiment,1,odd,MacIntel,9,567540,370773,,564296,81,565322,551825,81,5303,98979,569548,566335,570423,81,569548,Sternberg_updated,68,74336,86,yes,1024
78,78,866,866,black,no,experiment,Mozilla,Netscape,"5.0 (Macintosh; Intel Mac OS X 10_15_7) AppleWebKit/605.1.15 (KHTML, like Gecko) Version/14.1.2 Safari/605.1.15",legacy,legacy,legacy,0,uniform,0,0,left,86,86,86,86,0,0,0,86,86,0,0,0,86,86,86,0,0,86,86,0,29-08-21,29-08-21,11:46:29,Wed Sep 29 2021 11:46:29 GMT+0200 (CEST),The main experiment item,yes,0,0,/Users/ethan/Documents/GitHub/OpenSesame/Sternberg/experiment_files,0,0,0,no,mono,no,18,no,white,no,no,768,49,3.6.1,legacy,legacy,8 5 4 2 9 6,osweb,1.4.0,1,0,n,36,,0,right,right,,rshift,right,right,right,1030,11121,,5201,19378,8074,1030,2,legacy,702,1280,24,800,24,34,25,1280,1632908797680,6,1024,2,48000,-16,experiment,1,odd,MacIntel,3,573679,370773,,570427,81,571454,551825,81,5303,98979,575687,572463,576729,81,575687,Sternberg_updated,68,75366,87,yes,1024
78,78,868,868,black,no,experiment,Mozilla,Netscape,"5.0 (Macintosh; Intel Mac OS X 10_15_7) AppleWebKit/605.1.15 (KHTML, like Gecko) Version/14.1.2 Safari/605.1.15",legacy,legacy,legacy,0,uniform,1,1,right,87,87,87,87,0,0,0,87,87,0,0,0,87,87,87,0,0,87,87,0,29-08-21,29-08-21,11:46:29,Wed Sep 29 2021 11:46:29 GMT+0200 (CEST),The main experiment item,yes,0,0,/Users/ethan/Documents/GitHub/OpenSesame/Sternberg/experiment_files,0,0,0,no,mono,no,18,no,white,no,no,768,49,3.6.1,legacy,legacy,8 3,osweb,1.4.0,1,2,y,36,,0,right,right,,rshift,right,right,right,981,11121,,5201,19378,8074,981,2,legacy,702,1280,24,800,24,34,25,1280,1632908797680,2,1024,2,48000,-16,experiment,1,odd,MacIntel,3,579983,370773,,570427,81,577761,576738,81,5303,98979,581990,578773,582983,81,581990,Sternberg_updated,69,76347,88,yes,1024
79,79,867,867,black,no,experiment,Mozilla,Netscape,"5.0 (Macintosh; Intel Mac OS X 10_15_7) AppleWebKit/605.1.15 (KHTML, like Gecko) Version/14.1.2 Safari/605.1.15",legacy,legacy,legacy,0,uniform,1,1,right,88,88,88,88,0,0,0,88,88,0,0,0,88,88,88,0,0,88,88,0,29-08-21,29-08-21,11:46:29,Wed Sep 29 2021 11:46:29 GMT+0200 (CEST),The main experiment item,yes,0,0,/Users/ethan/Documents/GitHub/OpenSesame/Sternberg/experiment_files,0,0,0,no,mono,no,18,no,white,no,no,768,49,3.6.1,legacy,legacy,4 1 5,osweb,1.4.0,1,2,y,36,,0,right,right,,rshift,right,right,right,791,11121,,5201,19378,8074,791,2,legacy,702,1280,24,800,24,34,25,1280,1632908797680,3,1024,2,48000,-16,experiment,1,odd,MacIntel,1,586236,370773,,582986,81,584013,576738,81,5303,98979,588242,585026,589035,81,588242,Sternberg_updated,70,77138,89,yes,1024
79,79,865,865,black,no,experiment,Mozilla,Netscape,"5.0 (Macintosh; Intel Mac OS X 10_15_7) AppleWebKit/605.1.15 (KHTML, like Gecko) Version/14.1.2 Safari/605.1.15",legacy,legacy,legacy,0,uniform,1,1,right,89,89,89,89,0,0,0,89,89,0,0,0,89,89,89,0,0,89,89,0,29-08-21,29-08-21,11:46:29,Wed Sep 29 2021 11:46:29 GMT+0200 (CEST),The main experiment item,yes,0,0,/Users/ethan/Documents/GitHub/OpenSesame/Sternberg/experiment_files,0,0,0,no,mono,no,18,no,white,no,no,768,49,3.6.1,legacy,legacy,4 9 7 8 5 3,osweb,1.4.0,1,4,y,36,,0,right,right,,rshift,right,right,right,726,11121,,5201,19378,8074,726,2,legacy,702,1280,24,800,24,34,25,1280,1632908797680,6,1024,2,48000,-16,experiment,1,odd,MacIntel,8,592289,370773,,589038,81,590066,576738,81,5303,98979,594297,591080,595039,81,594297,Sternberg_updated,71,77864,90,yes,1024
79,79,864,864,black,no,experiment,Mozilla,Netscape,"5.0 (Macintosh; Intel Mac OS X 10_15_7) AppleWebKit/605.1.15 (KHTML, like Gecko) Version/14.1.2 Safari/605.1.15",legacy,legacy,legacy,0,uniform,1,1,right,90,90,90,90,0,0,0,90,90,0,0,0,90,90,90,0,0,90,90,0,29-08-21,29-08-21,11:46:29,Wed Sep 29 2021 11:46:29 GMT+0200 (CEST),The main experiment item,yes,0,0,/Users/ethan/Documents/GitHub/OpenSesame/Sternberg/experiment_files,0,0,0,no,mono,no,18,no,white,no,no,768,49,3.6.1,legacy,legacy,8 5 4 7 3 1,osweb,1.4.0,1,2,y,36,,0,right,right,,rshift,right,right,right,766,11121,,5201,19378,8074,766,2,legacy,702,1280,24,800,24,34,25,1280,1632908797680,6,1024,2,48000,-16,experiment,1,odd,MacIntel,5,598296,370773,,595043,81,596076,576738,81,5303,98979,600304,597087,601080,81,600304,Sternberg_updated,72,78630,91,yes,1024
79,79,862,862,black,no,experiment,Mozilla,Netscape,"5.0 (Macintosh; Intel Mac OS X 10_15_7) AppleWebKit/605.1.15 (KHTML, like Gecko) Version/14.1.2 Safari/605.1.15",legacy,legacy,legacy,0,uniform,1,1,right,91,91,91,91,0,0,0,91,91,0,0,0,91,91,91,0,0,91,91,0,29-08-21,29-08-21,11:46:29,Wed Sep 29 2021 11:46:29 GMT+0200 (CEST),The main experiment item,yes,0,0,/Users/ethan/Documents/GitHub/OpenSesame/Sternberg/experiment_files,0,0,0,no,mono,no,18,no,white,no,no,768,49,3.6.1,legacy,legacy,8 7 3,osweb,1.4.0,1,1,y,36,,0,right,right,,rshift,right,right,right,707,11121,,5201,19378,8074,707,2,legacy,702,1280,24,800,24,34,25,1280,1632908797680,3,1024,2,48000,-16,experiment,1,odd,MacIntel,8,604338,370773,,601083,81,602112,576738,81,5303,98979,606345,603128,607052,81,606345,Sternberg_updated,73,79337,92,yes,1024
80,80,862,862,black,no,experiment,Mozilla,Netscape,"5.0 (Macintosh; Intel Mac OS X 10_15_7) AppleWebKit/605.1.15 (KHTML, like Gecko) Version/14.1.2 Safari/605.1.15",legacy,legacy,legacy,0,uniform,1,1,right,92,92,92,92,0,0,0,92,92,0,0,0,92,92,92,0,0,92,92,0,29-08-21,29-08-21,11:46:29,Wed Sep 29 2021 11:46:29 GMT+0200 (CEST),The main experiment item,yes,0,0,/Users/ethan/Documents/GitHub/OpenSesame/Sternberg/experiment_files,0,0,0,no,mono,no,18,no,white,no,no,768,49,3.6.1,legacy,legacy,8 1 6,osweb,1.4.0,1,3,y,36,,0,right,right,,rshift,right,right,right,812,11121,,5201,19378,8074,812,2,legacy,702,1280,24,800,24,34,25,1280,1632908797680,3,1024,2,48000,-16,experiment,1,odd,MacIntel,6,610306,370773,,607056,81,608082,576738,81,5303,98979,612313,609096,613138,81,612313,Sternberg_updated,74,80149,93,yes,1024
80,80,863,863,black,no,experiment,Mozilla,Netscape,"5.0 (Macintosh; Intel Mac OS X 10_15_7) AppleWebKit/605.1.15 (KHTML, like Gecko) Version/14.1.2 Safari/605.1.15",legacy,legacy,legacy,0,uniform,1,1,right,93,93,93,93,0,0,0,93,93,0,0,0,93,93,93,0,0,93,93,0,29-08-21,29-08-21,11:46:29,Wed Sep 29 2021 11:46:29 GMT+0200 (CEST),The main experiment item,yes,0,0,/Users/ethan/Documents/GitHub/OpenSesame/Sternberg/experiment_files,0,0,0,no,mono,no,18,no,white,no,no,768,49,3.6.1,legacy,legacy,7,osweb,1.4.0,1,1,y,36,,0,right,right,,rshift,right,right,right,948,11121,,5201,19378,8074,948,2,legacy,702,1280,24,800,24,34,25,1280,1632908797680,1,1024,2,48000,-16,experiment,1,odd,MacIntel,7,616391,370773,,613144,81,614170,576738,81,5303,98979,618397,615181,619354,81,618397,Sternberg_updated,75,81097,94,yes,1024
80,80,861,861,black,no,experiment,Mozilla,Netscape,"5.0 (Macintosh; Intel Mac OS X 10_15_7) AppleWebKit/605.1.15 (KHTML, like Gecko) Version/14.1.2 Safari/605.1.15",legacy,legacy,legacy,0,uniform,1,1,right,94,94,94,94,0,0,0,94,94,0,0,0,94,94,94,0,0,94,94,0,29-08-21,29-08-21,11:46:29,Wed Sep 29 2021 11:46:29 GMT+0200 (CEST),The main experiment item,yes,0,0,/Users/ethan/Documents/GitHub/OpenSesame/Sternberg/experiment_files,0,0,0,no,mono,no,18,no,white,no,no,768,49,3.6.1,legacy,legacy,9 5 3 8 4,osweb,1.4.0,1,1,y,36,,0,right,right,,rshift,right,right,right,653,11121,,5201,19378,8074,653,2,legacy,702,1280,24,800,24,34,25,1280,1632908797680,5,1024,2,48000,-16,experiment,1,odd,MacIntel,9,622596,370773,,619357,81,620384,576738,81,5303,98979,624602,621394,625266,81,624602,Sternberg_updated,76,81750,95,yes,1024
80,80,857,857,black,no,experiment,Mozilla,Netscape,"5.0 (Macintosh; Intel Mac OS X 10_15_7) AppleWebKit/605.1.15 (KHTML, like Gecko) Version/14.1.2 Safari/605.1.15",legacy,legacy,legacy,0,uniform,1,1,right,95,95,95,95,0,0,0,95,95,0,0,0,95,95,95,0,0,95,95,0,29-08-21,29-08-21,11:46:29,Wed Sep 29 2021 11:46:29 GMT+0200 (CEST),The main experiment item,yes,0,0,/Users/ethan/Documents/GitHub/OpenSesame/Sternberg/experiment_files,0,0,0,no,mono,no,18,no,white,no,no,768,49,3.6.1,legacy,legacy,7 4 2 6 3 5,osweb,1.4.0,1,6,y,36,,0,right,right,,rshift,right,right,right,501,11121,,5201,19378,8074,501,2,legacy,702,1280,24,800,24,34,25,1280,1632908797680,6,1024,2,48000,-16,experiment,1,odd,MacIntel,5,628519,370773,,625270,81,626297,576738,81,5303,98979,630526,627310,631032,81,630526,Sternberg_updated,77,82251,96,yes,1024
80,80,854,854,black,no,experiment,Mozilla,Netscape,"5.0 (Macintosh; Intel Mac OS X 10_15_7) AppleWebKit/605.1.15 (KHTML, like Gecko) Version/14.1.2 Safari/605.1.15",legacy,legacy,legacy,0,uniform,1,1,left,96,96,96,96,0,0,0,96,96,0,0,0,96,96,96,0,0,96,96,0,29-08-21,29-08-21,11:46:29,Wed Sep 29 2021 11:46:29 GMT+0200 (CEST),The main experiment item,yes,0,0,/Users/ethan/Documents/GitHub/OpenSesame/Sternberg/experiment_files,0,0,0,no,mono,no,18,no,white,no,no,768,49,3.6.1,legacy,legacy,9 8 2 7 4,osweb,1.4.0,1,0,n,36,,0,left,right,,rshift,right,right,left,627,11121,,5201,19378,8074,627,2,legacy,702,1280,24,800,24,34,25,1280,1632908797680,5,1024,2,48000,-16,experiment,1,odd,MacIntel,5,634285,370773,,631036,81,632063,576738,81,5303,98979,636293,633076,636936,81,636293,Sternberg_updated,78,82878,97,yes,1024
81,81,853,853,black,no,experiment,Mozilla,Netscape,"5.0 (Macintosh; Intel Mac OS X 10_15_7) AppleWebKit/605.1.15 (KHTML, like Gecko) Version/14.1.2 Safari/605.1.15",legacy,legacy,legacy,0,uniform,1,1,left,97,97,97,97,0,0,0,97,97,0,0,0,97,97,97,0,0,97,97,0,29-08-21,29-08-21,11:46:29,Wed Sep 29 2021 11:46:29 GMT+0200 (CEST),The main experiment item,yes,0,0,/Users/ethan/Documents/GitHub/OpenSesame/Sternberg/experiment_files,0,0,0,no,mono,no,18,no,white,no,no,768,49,3.6.1,legacy,legacy,1 4 9 2 5,osweb,1.4.0,1,0,n,36,,0,left,right,right,rshift,right,right,left,686,11121,10153,5201,19378,8074,686,2,legacy,702,1280,24,800,24,34,25,1280,1632908797680,5,1024,2,48000,-16,experiment,1,odd,MacIntel,7,650357,370773,637954,636939,81,648141,576738,81,5303,98979,652364,649147,653055,81,652364,Sternberg_updated,79,83564,98,yes,1024
80,80,852,852,black,no,experiment,Mozilla,Netscape,"5.0 (Macintosh; Intel Mac OS X 10_15_7) AppleWebKit/605.1.15 (KHTML, like Gecko) Version/14.1.2 Safari/605.1.15",legacy,legacy,legacy,0,uniform,0,0,left,98,98,98,98,0,0,0,98,98,0,0,0,98,98,98,0,0,98,98,0,29-08-21,29-08-21,11:46:29,Wed Sep 29 2021 11:46:29 GMT+0200 (CEST),The main experiment item,yes,0,0,/Users/ethan/Documents/GitHub/OpenSesame/Sternberg/experiment_files,0,0,0,no,mono,no,18,no,white,no,no,768,49,3.6.1,legacy,legacy,5 3 2 6 9 8,osweb,1.4.0,1,0,n,36,,0,right,right,right,rshift,right,right,right,743,11121,10153,5201,19378,8074,743,2,legacy,702,1280,24,800,24,34,25,1280,1632908797680,6,1024,2,48000,-16,experiment,1,odd,MacIntel,4,656307,370773,637954,653059,81,654089,576738,81,5303,98979,658315,655098,659073,81,658315,Sternberg_updated,79,84307,99,yes,1024
80,80,852,852,black,no,experiment,Mozilla,Netscape,"5.0 (Macintosh; Intel Mac OS X 10_15_7) AppleWebKit/605.1.15 (KHTML, like Gecko) Version/14.1.2 Safari/605.1.15",legacy,legacy,legacy,0,uniform,1,1,left,99,99,99,99,0,0,0,99,99,0,0,0,99,99,99,0,0,99,99,0,29-08-21,29-08-21,11:46:29,Wed Sep 29 2021 11:46:29 GMT+0200 (CEST),The main experiment item,yes,0,0,/Users/ethan/Documents/GitHub/OpenSesame/Sternberg/experiment_files,0,0,0,no,mono,no,18,no,white,no,no,768,49,3.6.1,legacy,legacy,1 4 9 3,osweb,1.4.0,1,0,n,36,,0,left,right,right,rshift,right,right,left,853,11121,10153,5201,19378,8074,853,2,legacy,702,1280,24,800,24,34,25,1280,1632908797680,4,1024,2,48000,-16,experiment,1,odd,MacIntel,5,662326,370773,637954,653059,81,660103,659077,81,5303,98979,664333,661116,665191,81,664332,Sternberg_updated,80,85160,100,yes,1024
80,80,850,850,black,no,experiment,Mozilla,Netscape,"5.0 (Macintosh; Intel Mac OS X 10_15_7) AppleWebKit/605.1.15 (KHTML, like Gecko) Version/14.1.2 Safari/605.1.15",legacy,legacy,legacy,0,uniform,1,1,right,100,100,100,100,0,0,0,100,100,0,0,0,100,100,100,0,0,100,100,0,29-08-21,29-08-21,11:46:29,Wed Sep 29 2021 11:46:29 GMT+0200 (CEST),The main experiment item,yes,0,0,/Users/ethan/Documents/GitHub/OpenSesame/Sternberg/experiment_files,0,0,0,no,mono,no,18,no,white,no,no,768,49,3.6.1,legacy,legacy,7 1 3,osweb,1.4.0,1,2,y,36,,0,right,right,right,rshift,right,right,right,710,11121,10153,5201,19378,8074,710,2,legacy,702,1280,24,800,24,34,25,1280,1632908797680,3,1024,2,48000,-16,experiment,1,odd,MacIntel,1,668443,370773,637954,665194,81,666221,659077,81,5303,98979,670448,667234,671173,81,670448,Sternberg_updated,81,85870,101,yes,1024
80,80,849,849,black,no,experiment,Mozilla,Netscape,"5.0 (Macintosh; Intel Mac OS X 10_15_7) AppleWebKit/605.1.15 (KHTML, like Gecko) Version/14.1.2 Safari/605.1.15",legacy,legacy,legacy,0,uniform,1,1,right,101,101,101,101,0,0,0,101,101,0,0,0,101,101,101,0,0,101,101,0,29-08-21,29-08-21,11:46:29,Wed Sep 29 2021 11:46:29 GMT+0200 (CEST),The main experiment item,yes,0,0,/Users/ethan/Documents/GitHub/OpenSesame/Sternberg/experiment_files,0,0,0,no,mono,no,18,no,white,no,no,768,49,3.6.1,legacy,legacy,4 6 5 8,osweb,1.4.0,1,1,y,36,,0,right,right,right,rshift,right,right,right,690,11121,10153,5201,19378,8074,690,2,legacy,702,1280,24,800,24,34,25,1280,1632908797680,4,1024,2,48000,-16,experiment,1,odd,MacIntel,4,674425,370773,637954,671176,81,672203,659077,81,5303,98979,676431,673216,677121,81,676431,Sternberg_updated,82,86560,102,yes,1024
80,80,848,848,black,no,experiment,Mozilla,Netscape,"5.0 (Macintosh; Intel Mac OS X 10_15_7) AppleWebKit/605.1.15 (KHTML, like Gecko) Version/14.1.2 Safari/605.1.15",legacy,legacy,legacy,0,uniform,0,0,right,102,102,102,102,0,0,0,102,102,0,0,0,102,102,102,0,0,102,102,0,29-08-21,29-08-21,11:46:29,Wed Sep 29 2021 11:46:29 GMT+0200 (CEST),The main experiment item,yes,0,0,/Users/ethan/Documents/GitHub/OpenSesame/Sternberg/experiment_files,0,0,0,no,mono,no,18,no,white,no,no,768,49,3.6.1,legacy,legacy,8 9 5 7 1 6,osweb,1.4.0,1,4,y,36,,0,left,right,right,rshift,right,right,left,807,11121,10153,5201,19378,8074,807,2,legacy,702,1280,24,800,24,34,25,1280,1632908797680,6,1024,2,48000,-16,experiment,1,odd,MacIntel,7,680374,370773,637954,677125,81,678153,659077,81,5303,98979,682381,679165,683205,81,682381,Sternberg_updated,82,87367,103,yes,1024
80,80,849,849,black,no,experiment,Mozilla,Netscape,"5.0 (Macintosh; Intel Mac OS X 10_15_7) AppleWebKit/605.1.15 (KHTML, like Gecko) Version/14.1.2 Safari/605.1.15",legacy,legacy,legacy,0,uniform,1,1,right,103,103,103,103,0,0,0,103,103,0,0,0,103,103,103,0,0,103,103,0,29-08-21,29-08-21,11:46:29,Wed Sep 29 2021 11:46:29 GMT+0200 (CEST),The main experiment item,yes,0,0,/Users/ethan/Documents/GitHub/OpenSesame/Sternberg/experiment_files,0,0,0,no,mono,no,18,no,white,no,no,768,49,3.6.1,legacy,legacy,6 5,osweb,1.4.0,1,2,y,36,,0,right,right,right,rshift,right,right,right,893,11121,10153,5201,19378,8074,893,2,legacy,702,1280,24,800,24,34,25,1280,1632908797680,2,1024,2,48000,-16,experiment,1,odd,MacIntel,5,686458,370773,637954,677125,81,684235,683209,81,5303,98979,688463,685248,689371,81,688463,Sternberg_updated,83,88260,104,yes,1024
80,80,848,848,black,no,experiment,Mozilla,Netscape,"5.0 (Macintosh; Intel Mac OS X 10_15_7) AppleWebKit/605.1.15 (KHTML, like Gecko) Version/14.1.2 Safari/605.1.15",legacy,legacy,legacy,0,uniform,1,1,left,104,104,104,104,0,0,0,104,104,0,0,0,104,104,104,0,0,104,104,0,29-08-21,29-08-21,11:46:29,Wed Sep 29 2021 11:46:29 GMT+0200 (CEST),The main experiment item,yes,0,0,/Users/ethan/Documents/GitHub/OpenSesame/Sternberg/experiment_files,0,0,0,no,mono,no,18,no,white,no,no,768,49,3.6.1,legacy,legacy,2 8 6 3 1,osweb,1.4.0,1,0,n,36,,0,left,right,right,rshift,right,right,left,793,11121,10153,5201,19378,8074,793,2,legacy,702,1280,24,800,24,34,25,1280,1632908797680,5,1024,2,48000,-16,experiment,1,odd,MacIntel,7,692629,370773,637954,689374,81,690400,683209,81,5303,98979,694637,691414,695432,81,694637,Sternberg_updated,84,89053,105,yes,1024
80,80,846,846,black,no,experiment,Mozilla,Netscape,"5.0 (Macintosh; Intel Mac OS X 10_15_7) AppleWebKit/605.1.15 (KHTML, like Gecko) Version/14.1.2 Safari/605.1.15",legacy,legacy,legacy,0,uniform,1,1,right,105,105,105,105,0,0,0,105,105,0,0,0,105,105,105,0,0,105,105,0,29-08-21,29-08-21,11:46:29,Wed Sep 29 2021 11:46:29 GMT+0200 (CEST),The main experiment item,yes,0,0,/Users/ethan/Documents/GitHub/OpenSesame/Sternberg/experiment_files,0,0,0,no,mono,no,18,no,white,no,no,768,49,3.6.1,legacy,legacy,3 5 9 6 2 4,osweb,1.4.0,1,1,y,36,,0,right,right,right,rshift,right,right,right,613,11121,10153,5201,19378,8074,613,2,legacy,702,1280,24,800,24,34,25,1280,1632908797680,6,1024,2,48000,-16,experiment,1,odd,MacIntel,3,698690,370773,637954,695436,81,696464,683209,81,5303,98979,700697,697473,701311,81,700697,Sternberg_updated,85,89666,106,yes,1024
80,80,855,855,black,no,experiment,Mozilla,Netscape,"5.0 (Macintosh; Intel Mac OS X 10_15_7) AppleWebKit/605.1.15 (KHTML, like Gecko) Version/14.1.2 Safari/605.1.15",legacy,legacy,legacy,0,uniform,1,1,left,106,106,106,106,0,0,0,106,106,0,0,0,106,106,106,0,0,106,106,0,29-08-21,29-08-21,11:46:29,Wed Sep 29 2021 11:46:29 GMT+0200 (CEST),The main experiment item,yes,0,0,/Users/ethan/Documents/GitHub/OpenSesame/Sternberg/experiment_files,0,0,0,no,mono,no,18,no,white,no,no,768,49,3.6.1,legacy,legacy,6 8 4,osweb,1.4.0,1,0,n,36,,0,left,right,right,rshift,right,right,left,1870,11121,10153,5201,19378,8074,1870,2,legacy,702,1280,24,800,24,34,25,1280,1632908797680,3,1024,2,48000,-16,experiment,1,odd,MacIntel,1,704565,370773,637954,701314,81,702344,683209,81,5303,98979,706571,703362,708442,81,706571,Sternberg_updated,86,91536,107,yes,1024
81,81,859,859,black,no,experiment,Mozilla,Netscape,"5.0 (Macintosh; Intel Mac OS X 10_15_7) AppleWebKit/605.1.15 (KHTML, like Gecko) Version/14.1.2 Safari/605.1.15",legacy,legacy,legacy,0,uniform,1,1,left,107,107,107,107,0,0,0,107,107,0,0,0,107,107,107,0,0,107,107,0,29-08-21,29-08-21,11:46:29,Wed Sep 29 2021 11:46:29 GMT+0200 (CEST),The main experiment item,yes,0,0,/Users/ethan/Documents/GitHub/OpenSesame/Sternberg/experiment_files,0,0,0,no,mono,no,18,no,white,no,no,768,49,3.6.1,legacy,legacy,6 7 5 9,osweb,1.4.0,1,0,n,36,,0,left,right,right,rshift,right,right,left,1213,11121,10153,5201,19378,8074,1213,2,legacy,702,1280,24,800,24,34,25,1280,1632908797680,4,1024,2,48000,-16,experiment,1,odd,MacIntel,2,711700,370773,637954,708446,81,709471,683209,81,5303,98979,713708,710483,714934,81,713708,Sternberg_updated,87,92749,108,yes,1024
81,81,857,857,black,no,experiment,Mozilla,Netscape,"5.0 (Macintosh; Intel Mac OS X 10_15_7) AppleWebKit/605.1.15 (KHTML, like Gecko) Version/14.1.2 Safari/605.1.15",legacy,legacy,legacy,0,uniform,1,1,left,108,108,108,108,0,0,0,108,108,0,0,0,108,108,108,0,0,108,108,0,29-08-21,29-08-21,11:46:29,Wed Sep 29 2021 11:46:29 GMT+0200 (CEST),The main experiment item,yes,0,0,/Users/ethan/Documents/GitHub/OpenSesame/Sternberg/experiment_files,0,0,0,no,mono,no,18,no,white,no,no,768,49,3.6.1,legacy,legacy,1,osweb,1.4.0,1,0,n,36,,0,left,right,right,rshift,right,right,left,674,11121,10153,5201,19378,8074,674,2,legacy,702,1280,24,800,24,34,25,1280,1632908797680,1,1024,2,48000,-16,experiment,1,odd,MacIntel,7,718187,370773,637954,714937,81,715964,683209,81,5303,98979,720194,716977,720869,81,720194,Sternberg_updated,88,93423,109,yes,1024
81,81,857,857,black,no,experiment,Mozilla,Netscape,"5.0 (Macintosh; Intel Mac OS X 10_15_7) AppleWebKit/605.1.15 (KHTML, like Gecko) Version/14.1.2 Safari/605.1.15",legacy,legacy,legacy,0,uniform,1,1,right,109,109,109,109,0,0,0,109,109,0,0,0,109,109,109,0,0,109,109,0,29-08-21,29-08-21,11:46:29,Wed Sep 29 2021 11:46:29 GMT+0200 (CEST),The main experiment item,yes,0,0,/Users/ethan/Documents/GitHub/OpenSesame/Sternberg/experiment_files,0,0,0,no,mono,no,18,no,white,no,no,768,49,3.6.1,legacy,legacy,3 5 7 1,osweb,1.4.0,1,3,y,36,,0,right,right,right,rshift,right,right,right,878,11121,10153,5201,19378,8074,878,2,legacy,702,1280,24,800,24,34,25,1280,1632908797680,4,1024,2,48000,-16,experiment,1,odd,MacIntel,7,724123,370773,637954,720872,81,721900,683209,81,5303,98979,726130,722913,727023,81,726130,Sternberg_updated,89,94301,110,yes,1024
81,81,855,855,black,no,experiment,Mozilla,Netscape,"5.0 (Macintosh; Intel Mac OS X 10_15_7) AppleWebKit/605.1.15 (KHTML, like Gecko) Version/14.1.2 Safari/605.1.15",legacy,legacy,legacy,0,uniform,1,1,left,110,110,110,110,0,0,0,110,110,0,0,0,110,110,110,0,0,110,110,0,29-08-21,29-08-21,11:46:29,Wed Sep 29 2021 11:46:29 GMT+0200 (CEST),The main experiment item,yes,0,0,/Users/ethan/Documents/GitHub/OpenSesame/Sternberg/experiment_files,0,0,0,no,mono,no,18,no,white,no,no,768,49,3.6.1,legacy,legacy,3 9 1,osweb,1.4.0,1,0,n,36,,0,left,right,right,rshift,right,right,left,590,11121,10153,5201,19378,8074,590,2,legacy,702,1280,24,800,24,34,25,1280,1632908797680,3,1024,2,48000,-16,experiment,1,odd,MacIntel,7,730276,370773,637954,727027,81,728053,683209,81,5303,98979,732283,729066,732874,81,732283,Sternberg_updated,90,94891,111,yes,1024
81,81,853,853,black,no,experiment,Mozilla,Netscape,"5.0 (Macintosh; Intel Mac OS X 10_15_7) AppleWebKit/605.1.15 (KHTML, like Gecko) Version/14.1.2 Safari/605.1.15",legacy,legacy,legacy,0,uniform,1,1,left,111,111,111,111,0,0,0,111,111,0,0,0,111,111,111,0,0,111,111,0,29-08-21,29-08-21,11:46:29,Wed Sep 29 2021 11:46:29 GMT+0200 (CEST),The main experiment item,yes,0,0,/Users/ethan/Documents/GitHub/OpenSesame/Sternberg/experiment_files,0,0,0,no,mono,no,18,no,white,no,no,768,49,3.6.1,legacy,legacy,6 2 9 3 8 4,osweb,1.4.0,1,0,n,36,,0,left,right,right,rshift,right,right,left,644,11121,10153,5201,19378,8074,644,2,legacy,702,1280,24,800,24,34,25,1280,1632908797680,6,1024,2,48000,-16,experiment,1,odd,MacIntel,1,736129,370773,637954,732877,81,733906,683209,81,5303,98979,738136,734919,738794,81,738136,Sternberg_updated,91,95535,112,yes,1024
81,81,852,852,black,no,experiment,Mozilla,Netscape,"5.0 (Macintosh; Intel Mac OS X 10_15_7) AppleWebKit/605.1.15 (KHTML, like Gecko) Version/14.1.2 Safari/605.1.15",legacy,legacy,legacy,0,uniform,1,1,left,112,112,112,112,0,0,0,112,112,0,0,0,112,112,112,0,0,112,112,0,29-08-21,29-08-21,11:46:29,Wed Sep 29 2021 11:46:29 GMT+0200 (CEST),The main experiment item,yes,0,0,/Users/ethan/Documents/GitHub/OpenSesame/Sternberg/experiment_files,0,0,0,no,mono,no,18,no,white,no,no,768,49,3.6.1,legacy,legacy,8 5 7 3 6,osweb,1.4.0,1,0,n,36,,0,left,right,right,rshift,right,right,left,715,11121,10153,5201,19378,8074,715,2,legacy,702,1280,24,800,24,34,25,1280,1632908797680,5,1024,2,48000,-16,experiment,1,odd,MacIntel,9,742048,370773,637954,738797,81,739825,683209,81,5303,98979,744056,740839,744782,81,744056,Sternberg_updated,92,96250,113,yes,1024
81,81,851,851,black,no,experiment,Mozilla,Netscape,"5.0 (Macintosh; Intel Mac OS X 10_15_7) AppleWebKit/605.1.15 (KHTML, like Gecko) Version/14.1.2 Safari/605.1.15",legacy,legacy,legacy,0,uniform,0,0,right,113,113,113,113,0,0,0,113,113,0,0,0,113,113,113,0,0,113,113,0,29-08-21,29-08-21,11:46:29,Wed Sep 29 2021 11:46:29 GMT+0200 (CEST),The main experiment item,yes,0,0,/Users/ethan/Documents/GitHub/OpenSesame/Sternberg/experiment_files,0,0,0,no,mono,no,18,no,white,no,no,768,49,3.6.1,legacy,legacy,6 9 3 1,osweb,1.4.0,1,4,y,36,,0,left,right,right,rshift,right,right,left,799,11121,10153,5201,19378,8074,799,2,legacy,702,1280,24,800,24,34,25,1280,1632908797680,4,1024,2,48000,-16,experiment,1,odd,MacIntel,1,748035,370773,637954,744785,81,745812,683209,81,5303,98979,750042,746825,750852,81,750042,Sternberg_updated,92,97049,114,yes,1024
80,80,851,851,black,no,experiment,Mozilla,Netscape,"5.0 (Macintosh; Intel Mac OS X 10_15_7) AppleWebKit/605.1.15 (KHTML, like Gecko) Version/14.1.2 Safari/605.1.15",legacy,legacy,legacy,0,uniform,0,0,right,114,114,114,114,0,0,0,114,114,0,0,0,114,114,114,0,0,114,114,0,29-08-21,29-08-21,11:46:29,Wed Sep 29 2021 11:46:29 GMT+0200 (CEST),The main experiment item,yes,0,0,/Users/ethan/Documents/GitHub/OpenSesame/Sternberg/experiment_files,0,0,0,no,mono,no,18,no,white,no,no,768,49,3.6.1,legacy,legacy,4 3 2 5 8,osweb,1.4.0,1,2,y,36,,0,left,right,right,rshift,right,right,left,854,11121,10153,5201,19378,8074,854,2,legacy,702,1280,24,800,24,34,25,1280,1632908797680,5,1024,2,48000,-16,experiment,1,odd,MacIntel,3,754105,370773,637954,744785,81,751883,750855,81,5303,98979,756112,752895,756971,81,756112,Sternberg_updated,92,97903,115,yes,1024
80,80,848,848,black,no,experiment,Mozilla,Netscape,"5.0 (Macintosh; Intel Mac OS X 10_15_7) AppleWebKit/605.1.15 (KHTML, like Gecko) Version/14.1.2 Safari/605.1.15",legacy,legacy,legacy,0,uniform,1,1,left,115,115,115,115,0,0,0,115,115,0,0,0,115,115,115,0,0,115,115,0,29-08-21,29-08-21,11:46:29,Wed Sep 29 2021 11:46:29 GMT+0200 (CEST),The main experiment item,yes,0,0,/Users/ethan/Documents/GitHub/OpenSesame/Sternberg/experiment_files,0,0,0,no,mono,no,18,no,white,no,no,768,49,3.6.1,legacy,legacy,1 8 7,osweb,1.4.0,1,0,n,36,,0,left,right,right,rshift,right,right,left,509,11121,10153,5201,19378,8074,509,2,legacy,702,1280,24,800,24,34,25,1280,1632908797680,3,1024,2,48000,-16,experiment,1,odd,MacIntel,4,760224,370773,637954,744785,81,758001,756975,81,5303,98979,762231,759014,762757,81,762231,Sternberg_updated,93,98412,116,yes,1024
79,79,847,847,black,no,experiment,Mozilla,Netscape,"5.0 (Macintosh; Intel Mac OS X 10_15_7) AppleWebKit/605.1.15 (KHTML, like Gecko) Version/14.1.2 Safari/605.1.15",legacy,legacy,legacy,0,uniform,0,0,right,116,116,116,116,0,0,0,116,116,0,0,0,116,116,116,0,0,116,116,0,29-08-21,29-08-21,11:46:29,Wed Sep 29 2021 11:46:29 GMT+0200 (CEST),The main experiment item,yes,0,0,/Users/ethan/Documents/GitHub/OpenSesame/Sternberg/experiment_files,0,0,0,no,mono,no,18,no,white,no,no,768,49,3.6.1,legacy,legacy,8 5 3 7 4 6,osweb,1.4.0,1,6,y,36,,0,left,right,right,rshift,right,right,left,668,11121,10153,5201,19378,8074,668,2,legacy,702,1280,24,800,24,34,25,1280,1632908797680,6,1024,2,48000,-16,experiment,1,odd,MacIntel,6,766010,370773,637954,762760,81,763792,756975,81,5303,98979,768017,764802,768693,81,768017,Sternberg_updated,93,99080,117,yes,1024
80,80,847,847,black,no,experiment,Mozilla,Netscape,"5.0 (Macintosh; Intel Mac OS X 10_15_7) AppleWebKit/605.1.15 (KHTML, like Gecko) Version/14.1.2 Safari/605.1.15",legacy,legacy,legacy,0,uniform,1,1,right,117,117,117,117,0,0,0,117,117,0,0,0,117,117,117,0,0,117,117,0,29-08-21,29-08-21,11:46:29,Wed Sep 29 2021 11:46:29 GMT+0200 (CEST),The main experiment item,yes,0,0,/Users/ethan/Documents/GitHub/OpenSesame/Sternberg/experiment_files,0,0,0,no,mono,no,18,no,white,no,no,768,49,3.6.1,legacy,legacy,3 9 6 2,osweb,1.4.0,1,4,y,36,,0,right,right,right,rshift,right,right,right,835,11121,10153,5201,19378,8074,835,2,legacy,702,1280,24,800,24,34,25,1280,1632908797680,4,1024,2,48000,-16,experiment,1,odd,MacIntel,2,771946,370773,637954,762760,81,769724,768701,81,5303,98979,773954,770736,774796,81,773954,Sternberg_updated,94,99915,118,yes,1024
80,80,845,845,black,no,experiment,Mozilla,Netscape,"5.0 (Macintosh; Intel Mac OS X 10_15_7) AppleWebKit/605.1.15 (KHTML, like Gecko) Version/14.1.2 Safari/605.1.15",legacy,legacy,legacy,0,uniform,1,1,left,118,118,118,118,0,0,0,118,118,0,0,0,118,118,118,0,0,118,118,0,29-08-21,29-08-21,11:46:29,Wed Sep 29 2021 11:46:29 GMT+0200 (CEST),The main experiment item,yes,0,0,/Users/ethan/Documents/GitHub/OpenSesame/Sternberg/experiment_files,0,0,0,no,mono,no,18,no,white,no,no,768,49,3.6.1,legacy,legacy,1 7 5 2 9,osweb,1.4.0,1,0,n,36,,0,left,right,right,rshift,right,right,left,661,11121,10153,5201,19378,8074,661,2,legacy,702,1280,24,800,24,34,25,1280,1632908797680,5,1024,2,48000,-16,experiment,1,odd,MacIntel,3,778049,370773,637954,774800,81,775826,768701,81,5303,98979,780056,776840,780732,81,780056,Sternberg_updated,95,100576,119,yes,1024
80,80,845,845,black,no,experiment,Mozilla,Netscape,"5.0 (Macintosh; Intel Mac OS X 10_15_7) AppleWebKit/605.1.15 (KHTML, like Gecko) Version/14.1.2 Safari/605.1.15",legacy,legacy,legacy,0,uniform,1,1,right,119,119,119,119,0,0,0,119,119,0,0,0,119,119,119,0,0,119,119,0,29-08-21,29-08-21,11:46:29,Wed Sep 29 2021 11:46:29 GMT+0200 (CEST),The main experiment item,yes,0,0,/Users/ethan/Documents/GitHub/OpenSesame/Sternberg/experiment_files,0,0,0,no,mono,no,18,no,white,no,no,768,49,3.6.1,legacy,legacy,3 5 4 7,osweb,1.4.0,1,1,y,36,,0,right,right,right,rshift,right,right,right,792,11121,10153,5201,19378,8074,792,2,legacy,702,1280,24,800,24,34,25,1280,1632908797680,4,1024,2,48000,-16,experiment,1,odd,MacIntel,3,783985,370773,637954,780736,81,781764,768701,81,5303,98979,785992,782776,786784,81,785992,Sternberg_updated,96,101368,120,yes,1024
79,79,844,844,black,no,experiment,Mozilla,Netscape,"5.0 (Macintosh; Intel Mac OS X 10_15_7) AppleWebKit/605.1.15 (KHTML, like Gecko) Version/14.1.2 Safari/605.1.15",legacy,legacy,legacy,0,uniform,0,0,right,120,120,120,120,0,0,0,120,120,0,0,0,120,120,120,0,0,120,120,0,29-08-21,29-08-21,11:46:29,Wed Sep 29 2021 11:46:29 GMT+0200 (CEST),The main experiment item,yes,0,0,/Users/ethan/Documents/GitHub/OpenSesame/Sternberg/experiment_files,0,0,0,no,mono,no,18,no,white,no,no,768,49,3.6.1,legacy,legacy,6 7 9 3 1 2,osweb,1.4.0,1,1,y,36,,0,left,right,right,rshift,right,right,left,794,11121,10153,5201,19378,8074,794,2,legacy,702,1280,24,800,24,34,25,1280,1632908797680,6,1024,2,48000,-16,experiment,1,odd,MacIntel,6,790038,370773,637954,786787,81,787816,768701,81,5303,98979,792045,788828,792854,81,792045,Sternberg_updated,96,102162,121,yes,1024
