acc,accuracy,average_response_time,avg_rt,background,bidi,block,browser_codename,browser_name,browser_version,canvas_backend,clock_backend,color_backend,compensation,coordinates,correct,correct_keyboard_response,correct_response,count_ISI,count_break1,count_break_2,count_correct_feedback,count_credits,count_experiment,count_experimentLoop,count_fixation,count_incorrect_feedback,count_instructions1a,count_instructions1b,count_instructions2,count_keyboard_response,count_memory_set,count_new_logger,count_osweb,count_practiceLoop,count_practiceSequence,count_probe,count_thankYou,date_startdate,date_startdateUTC,date_starttime,datetime,description,disable_garbage_collection,experiment_debug,experiment_parameters,experiment_path,experiment_pilot,experiment_taskname,experiment_taskversion,font_bold,font_family,font_italic,font_size,font_underline,foreground,form_clicks,fullscreen,height,jatosStudyResultId,jatosVersion,keyboard_backend,mouse_backend,numberSet,opensesame_codename,opensesame_version,penwidth,posInSet,present,queryParams_batchId,queryParams_generalMultiple,repeat_cycle,response,response_break1,response_break_2,response_instructions1a,response_instructions1b,response_instructions2,response_keyboard_response,response_time,response_time_break1,response_time_break_2,response_time_instructions1a,response_time_instructions1b,response_time_instructions2,response_time_keyboard_response,round_decimals,sampler_backend,screen_availableHeight,screen_availableWidth,screen_colorDepth,screen_height,screen_pixelDepth,screen_screenX,screen_screenY,screen_width,sessionid,setSize,sound_buf_size,sound_channels,sound_freq,sound_sample_size,start,subject_nr,subject_parity,system_os,target,time_ISI,time_break1,time_break_2,time_correct_feedback,time_experimentLoop,time_fixation,time_incorrect_feedback,time_instructions1a,time_instructions1b,time_instructions2,time_keyboard_response,time_memory_set,time_new_logger,time_practiceLoop,time_probe,title,total_correct,total_response_time,total_responses,uniform_coordinates,width
100,100,809,809,black,no,practice,Mozilla,Netscape,"5.0 (X11; CrOS x86_64 13729.45.0) AppleWebKit/537.36 (KHTML, like Gecko) Chrome/89.0.4389.82 Safari/537.36",legacy,legacy,legacy,0,uniform,1,1,left,0,0,0,0,0,0,0,0,0,0,0,0,0,0,0,0,0,0,0,0,30-08-21,29-08-21,01:44:04,Thu Sep 30 2021 01:44:04 GMT+0200 (Central European Summer Time),The main experiment item,yes,0,0,/Users/ethan/Documents/GitHub/OpenSesame/Sternberg/experiment_files,0,0,0,no,mono,no,18,no,white,no,no,768,94,3.6.1,legacy,legacy,9 6 7 4 5,osweb,1.4.0,1,0,n,36,,0,left,,,space,space,,left,809,,,7370,3864,,809,2,legacy,720,1366,24,768,24,0,0,1366,1632959142453,5,1024,2,48000,-16,experiment,0,even,Linux x86_64,3,13592,,,,77,11366,,77,7450,,15608,12377,16422,77,15607,Sternberg_updated,1,809,1,yes,1024
50,50,1216,1216,black,no,practice,Mozilla,Netscape,"5.0 (X11; CrOS x86_64 13729.45.0) AppleWebKit/537.36 (KHTML, like Gecko) Chrome/89.0.4389.82 Safari/537.36",legacy,legacy,legacy,0,uniform,0,0,left,1,1,1,1,0,0,0,1,1,0,0,0,1,1,1,0,0,1,1,0,30-08-21,29-08-21,01:44:04,Thu Sep 30 2021 01:44:04 GMT+0200 (Central European Summer Time),The main experiment item,yes,0,0,/Users/ethan/Documents/GitHub/OpenSesame/Sternberg/experiment_files,0,0,0,no,mono,no,18,no,white,no,no,768,94,3.6.1,legacy,legacy,2 1,osweb,1.4.0,1,0,n,36,,0,right,,,space,space,,right,1623,,,7370,3864,,1623,2,legacy,720,1366,24,768,24,0,0,1366,1632959142453,2,1024,2,48000,-16,experiment,0,even,Linux x86_64,5,19686,,,16427,77,17468,,77,7450,,21701,18471,23332,77,21701,Sternberg_updated,1,2432,2,yes,1024
33,33,1481,1481,black,no,practice,Mozilla,Netscape,"5.0 (X11; CrOS x86_64 13729.45.0) AppleWebKit/537.36 (KHTML, like Gecko) Chrome/89.0.4389.82 Safari/537.36",legacy,legacy,legacy,0,uniform,0,0,left,2,2,2,2,0,0,0,2,2,0,0,0,2,2,2,0,0,2,2,0,30-08-21,29-08-21,01:44:04,Thu Sep 30 2021 01:44:04 GMT+0200 (Central European Summer Time),The main experiment item,yes,0,0,/Users/ethan/Documents/GitHub/OpenSesame/Sternberg/experiment_files,0,0,0,no,mono,no,18,no,white,no,no,768,94,3.6.1,legacy,legacy,4 1 5,osweb,1.4.0,1,0,n,36,,0,None,,,space,space,,None,2012,,,7370,3864,,2012,2,legacy,720,1366,24,768,24,0,0,1366,1632959142453,3,1024,2,48000,-16,experiment,0,even,Linux x86_64,2,26596,,,16427,77,24373,23333,77,7450,,28612,25380,30625,77,28612,Sternberg_updated,1,4444,3,yes,1024
25,25,1343,1343,black,no,practice,Mozilla,Netscape,"5.0 (X11; CrOS x86_64 13729.45.0) AppleWebKit/537.36 (KHTML, like Gecko) Chrome/89.0.4389.82 Safari/537.36",legacy,legacy,legacy,0,uniform,0,0,left,3,3,3,3,0,0,0,3,3,0,0,0,3,3,3,0,0,3,3,0,30-08-21,29-08-21,01:44:04,Thu Sep 30 2021 01:44:04 GMT+0200 (Central European Summer Time),The main experiment item,yes,0,0,/Users/ethan/Documents/GitHub/OpenSesame/Sternberg/experiment_files,0,0,0,no,mono,no,18,no,white,no,no,768,94,3.6.1,legacy,legacy,5,osweb,1.4.0,1,0,n,36,,0,right,,,space,space,,right,928,,,7370,3864,,928,2,legacy,720,1366,24,768,24,0,0,1366,1632959142453,1,1024,2,48000,-16,experiment,0,even,Linux x86_64,3,33889,,,16427,77,31663,30633,77,7450,,35905,32673,36835,77,35903,Sternberg_updated,1,5372,4,yes,1024
20,20,1305,1305,black,no,practice,Mozilla,Netscape,"5.0 (X11; CrOS x86_64 13729.45.0) AppleWebKit/537.36 (KHTML, like Gecko) Chrome/89.0.4389.82 Safari/537.36",legacy,legacy,legacy,0,uniform,0,0,right,4,4,4,4,0,0,0,4,4,0,0,0,4,4,4,0,0,4,4,0,30-08-21,29-08-21,01:44:04,Thu Sep 30 2021 01:44:04 GMT+0200 (Central European Summer Time),The main experiment item,yes,0,0,/Users/ethan/Documents/GitHub/OpenSesame/Sternberg/experiment_files,0,0,0,no,mono,no,18,no,white,no,no,768,94,3.6.1,legacy,legacy,2 9 4,osweb,1.4.0,1,3,y,36,,0,left,,,space,space,,left,1151,,,7370,3864,,1151,2,legacy,720,1366,24,768,24,0,0,1366,1632959142453,3,1024,2,48000,-16,experiment,0,even,Linux x86_64,4,40099,,,16427,77,37875,36838,77,7450,,42114,38884,43279,77,42114,Sternberg_updated,1,6523,5,yes,1024
33,33,1271,1271,black,no,practice,Mozilla,Netscape,"5.0 (X11; CrOS x86_64 13729.45.0) AppleWebKit/537.36 (KHTML, like Gecko) Chrome/89.0.4389.82 Safari/537.36",legacy,legacy,legacy,0,uniform,1,1,right,5,5,5,5,0,0,0,5,5,0,0,0,5,5,5,0,0,5,5,0,30-08-21,29-08-21,01:44:04,Thu Sep 30 2021 01:44:04 GMT+0200 (Central European Summer Time),The main experiment item,yes,0,0,/Users/ethan/Documents/GitHub/OpenSesame/Sternberg/experiment_files,0,0,0,no,mono,no,18,no,white,no,no,768,94,3.6.1,legacy,legacy,6,osweb,1.4.0,1,1,y,36,,0,right,,,space,space,,right,1101,,,7370,3864,,1101,2,legacy,720,1366,24,768,24,0,0,1366,1632959142453,1,1024,2,48000,-16,experiment,0,even,Linux x86_64,6,46543,,,16427,77,44321,43281,77,7450,,48558,45329,49673,77,48558,Sternberg_updated,2,7624,6,yes,1024
43,43,1253,1253,black,no,practice,Mozilla,Netscape,"5.0 (X11; CrOS x86_64 13729.45.0) AppleWebKit/537.36 (KHTML, like Gecko) Chrome/89.0.4389.82 Safari/537.36",legacy,legacy,legacy,0,uniform,1,1,right,6,6,6,6,0,0,0,6,6,0,0,0,6,6,6,0,0,6,6,0,30-08-21,29-08-21,01:44:04,Thu Sep 30 2021 01:44:04 GMT+0200 (Central European Summer Time),The main experiment item,yes,0,0,/Users/ethan/Documents/GitHub/OpenSesame/Sternberg/experiment_files,0,0,0,no,mono,no,18,no,white,no,no,768,94,3.6.1,legacy,legacy,4 3 1 7 9 8,osweb,1.4.0,1,1,y,36,,0,right,,,space,space,,right,1148,,,7370,3864,,1148,2,legacy,720,1366,24,768,24,0,0,1366,1632959142453,6,1024,2,48000,-16,experiment,0,even,Linux x86_64,4,52936,,,49674,77,50713,43281,77,7450,,54951,51721,56100,77,54951,Sternberg_updated,3,8772,7,yes,1024
50,50,1239,1239,black,no,practice,Mozilla,Netscape,"5.0 (X11; CrOS x86_64 13729.45.0) AppleWebKit/537.36 (KHTML, like Gecko) Chrome/89.0.4389.82 Safari/537.36",legacy,legacy,legacy,0,uniform,1,1,right,7,7,7,7,0,0,0,7,7,0,0,0,7,7,7,0,0,7,7,0,30-08-21,29-08-21,01:44:04,Thu Sep 30 2021 01:44:04 GMT+0200 (Central European Summer Time),The main experiment item,yes,0,0,/Users/ethan/Documents/GitHub/OpenSesame/Sternberg/experiment_files,0,0,0,no,mono,no,18,no,white,no,no,768,94,3.6.1,legacy,legacy,1 7 9 8 5,osweb,1.4.0,1,4,y,36,,0,right,,,space,space,,right,1138,,,7370,3864,,1138,2,legacy,720,1366,24,768,24,0,0,1366,1632959142453,5,1024,2,48000,-16,experiment,0,even,Linux x86_64,8,59365,,,56101,77,57140,43281,77,7450,,61379,58148,62527,77,61379,Sternberg_updated,4,9910,8,yes,1024
56,56,1164,1164,black,no,practice,Mozilla,Netscape,"5.0 (X11; CrOS x86_64 13729.45.0) AppleWebKit/537.36 (KHTML, like Gecko) Chrome/89.0.4389.82 Safari/537.36",legacy,legacy,legacy,0,uniform,1,1,right,8,8,8,8,0,0,0,8,8,0,0,0,8,8,8,0,0,8,8,0,30-08-21,29-08-21,01:44:04,Thu Sep 30 2021 01:44:04 GMT+0200 (Central European Summer Time),The main experiment item,yes,0,0,/Users/ethan/Documents/GitHub/OpenSesame/Sternberg/experiment_files,0,0,0,no,mono,no,18,no,white,no,no,768,94,3.6.1,legacy,legacy,4 8,osweb,1.4.0,1,1,y,36,,0,right,,,space,space,,right,570,,,7370,3864,,570,2,legacy,720,1366,24,768,24,0,0,1366,1632959142453,2,1024,2,48000,-16,experiment,0,even,Linux x86_64,4,65791,,,62533,77,63570,43281,77,7450,,67806,64575,68388,77,67806,Sternberg_updated,5,10480,9,yes,1024
60,60,1130,1130,black,no,practice,Mozilla,Netscape,"5.0 (X11; CrOS x86_64 13729.45.0) AppleWebKit/537.36 (KHTML, like Gecko) Chrome/89.0.4389.82 Safari/537.36",legacy,legacy,legacy,0,uniform,1,1,left,9,9,9,9,0,0,0,9,9,0,0,0,9,9,9,0,0,9,9,0,30-08-21,29-08-21,01:44:04,Thu Sep 30 2021 01:44:04 GMT+0200 (Central European Summer Time),The main experiment item,yes,0,0,/Users/ethan/Documents/GitHub/OpenSesame/Sternberg/experiment_files,0,0,0,no,mono,no,18,no,white,no,no,768,94,3.6.1,legacy,legacy,5 7 8 4 1 2,osweb,1.4.0,1,0,n,36,,0,left,,,space,space,,left,819,,,7370,3864,,819,2,legacy,720,1366,24,768,24,0,0,1366,1632959142453,6,1024,2,48000,-16,experiment,0,even,Linux x86_64,6,71652,,,68390,77,69431,43281,77,7450,,73667,70436,74499,77,73667,Sternberg_updated,6,11299,10,yes,1024
64,64,1105,1105,black,no,practice,Mozilla,Netscape,"5.0 (X11; CrOS x86_64 13729.45.0) AppleWebKit/537.36 (KHTML, like Gecko) Chrome/89.0.4389.82 Safari/537.36",legacy,legacy,legacy,0,uniform,1,1,left,10,10,10,10,0,0,0,10,10,0,0,0,10,10,10,0,0,10,10,0,30-08-21,29-08-21,01:44:04,Thu Sep 30 2021 01:44:04 GMT+0200 (Central European Summer Time),The main experiment item,yes,0,0,/Users/ethan/Documents/GitHub/OpenSesame/Sternberg/experiment_files,0,0,0,no,mono,no,18,no,white,no,no,768,94,3.6.1,legacy,legacy,3 1 9 4,osweb,1.4.0,1,0,n,36,,0,left,,,space,space,,left,852,,,7370,3864,,852,2,legacy,720,1366,24,768,24,0,0,1366,1632959142453,4,1024,2,48000,-16,experiment,0,even,Linux x86_64,6,77762,,,74500,77,75545,43281,77,7450,,79777,76554,80642,77,79777,Sternberg_updated,7,12151,11,yes,1024
67,67,1118,1118,black,no,practice,Mozilla,Netscape,"5.0 (X11; CrOS x86_64 13729.45.0) AppleWebKit/537.36 (KHTML, like Gecko) Chrome/89.0.4389.82 Safari/537.36",legacy,legacy,legacy,0,uniform,1,1,right,11,11,11,11,0,0,0,11,11,0,0,0,11,11,11,0,0,11,11,0,30-08-21,29-08-21,01:44:04,Thu Sep 30 2021 01:44:04 GMT+0200 (Central European Summer Time),The main experiment item,yes,0,0,/Users/ethan/Documents/GitHub/OpenSesame/Sternberg/experiment_files,0,0,0,no,mono,no,18,no,white,no,no,768,94,3.6.1,legacy,legacy,1 5 2 9,osweb,1.4.0,1,2,y,36,,0,right,,,space,space,,right,1266,,,7370,3864,,1266,2,legacy,720,1366,24,768,24,0,0,1366,1632959142453,4,1024,2,48000,-16,experiment,0,even,Linux x86_64,5,83906,,,80647,77,81684,43281,77,7450,,85921,82691,87187,77,85921,Sternberg_updated,8,13417,12,yes,1024
69,69,1081,1081,black,no,experiment,Mozilla,Netscape,"5.0 (X11; CrOS x86_64 13729.45.0) AppleWebKit/537.36 (KHTML, like Gecko) Chrome/89.0.4389.82 Safari/537.36",legacy,legacy,legacy,0,uniform,1,1,left,12,12,12,12,0,0,0,12,12,0,0,0,12,12,12,0,0,12,12,0,30-08-21,29-08-21,01:44:04,Thu Sep 30 2021 01:44:04 GMT+0200 (Central European Summer Time),The main experiment item,yes,0,0,/Users/ethan/Documents/GitHub/OpenSesame/Sternberg/experiment_files,0,0,0,no,mono,no,18,no,white,no,no,768,94,3.6.1,legacy,legacy,8 9,osweb,1.4.0,1,0,n,36,,0,left,,,space,space,space,left,639,,,7370,3864,61954,639,2,legacy,720,1366,24,768,24,0,0,1366,1632959142453,2,1024,2,48000,-16,experiment,0,even,Linux x86_64,5,152422,,,87189,77,150198,43281,77,7450,88208,154437,151207,155086,77,154437,Sternberg_updated,9,14056,13,yes,1024
71,71,1122,1122,black,no,experiment,Mozilla,Netscape,"5.0 (X11; CrOS x86_64 13729.45.0) AppleWebKit/537.36 (KHTML, like Gecko) Chrome/89.0.4389.82 Safari/537.36",legacy,legacy,legacy,0,uniform,1,1,right,13,13,13,13,0,0,0,13,13,0,0,0,13,13,13,0,0,13,13,0,30-08-21,29-08-21,01:44:04,Thu Sep 30 2021 01:44:04 GMT+0200 (Central European Summer Time),The main experiment item,yes,0,0,/Users/ethan/Documents/GitHub/OpenSesame/Sternberg/experiment_files,0,0,0,no,mono,no,18,no,white,no,no,768,94,3.6.1,legacy,legacy,4 1 8 7 5,osweb,1.4.0,1,3,y,36,,0,right,,,space,space,space,right,1647,,,7370,3864,61954,1647,2,legacy,720,1366,24,768,24,0,0,1366,1632959142453,5,1024,2,48000,-16,experiment,0,even,Linux x86_64,8,158350,,,155090,77,156128,43281,77,7450,88208,160365,157135,162013,77,160365,Sternberg_updated,10,15703,14,yes,1024
73,73,1111,1111,black,no,experiment,Mozilla,Netscape,"5.0 (X11; CrOS x86_64 13729.45.0) AppleWebKit/537.36 (KHTML, like Gecko) Chrome/89.0.4389.82 Safari/537.36",legacy,legacy,legacy,0,uniform,1,1,left,14,14,14,14,0,0,0,14,14,0,0,0,14,14,14,0,0,14,14,0,30-08-21,29-08-21,01:44:04,Thu Sep 30 2021 01:44:04 GMT+0200 (Central European Summer Time),The main experiment item,yes,0,0,/Users/ethan/Documents/GitHub/OpenSesame/Sternberg/experiment_files,0,0,0,no,mono,no,18,no,white,no,no,768,94,3.6.1,legacy,legacy,1 5 3 2 8,osweb,1.4.0,1,0,n,36,,0,left,,,space,space,space,left,961,,,7370,3864,61954,961,2,legacy,720,1366,24,768,24,0,0,1366,1632959142453,5,1024,2,48000,-16,experiment,0,even,Linux x86_64,4,165293,,,162014,77,163061,43281,77,7450,88208,167308,164078,168273,77,167308,Sternberg_updated,11,16664,15,yes,1024
75,75,1131,1131,black,no,experiment,Mozilla,Netscape,"5.0 (X11; CrOS x86_64 13729.45.0) AppleWebKit/537.36 (KHTML, like Gecko) Chrome/89.0.4389.82 Safari/537.36",legacy,legacy,legacy,0,uniform,1,1,right,15,15,15,15,0,0,0,15,15,0,0,0,15,15,15,0,0,15,15,0,30-08-21,29-08-21,01:44:04,Thu Sep 30 2021 01:44:04 GMT+0200 (Central European Summer Time),The main experiment item,yes,0,0,/Users/ethan/Documents/GitHub/OpenSesame/Sternberg/experiment_files,0,0,0,no,mono,no,18,no,white,no,no,768,94,3.6.1,legacy,legacy,2 4 8 5 1 3,osweb,1.4.0,1,1,y,36,,0,right,,,space,space,space,right,1427,,,7370,3864,61954,1427,2,legacy,720,1366,24,768,24,0,0,1366,1632959142453,6,1024,2,48000,-16,experiment,0,even,Linux x86_64,2,171537,,,168274,77,169312,43281,77,7450,88208,173554,170322,174984,77,173554,Sternberg_updated,12,18091,16,yes,1024
76,76,1116,1116,black,no,experiment,Mozilla,Netscape,"5.0 (X11; CrOS x86_64 13729.45.0) AppleWebKit/537.36 (KHTML, like Gecko) Chrome/89.0.4389.82 Safari/537.36",legacy,legacy,legacy,0,uniform,1,1,right,16,16,16,16,0,0,0,16,16,0,0,0,16,16,16,0,0,16,16,0,30-08-21,29-08-21,01:44:04,Thu Sep 30 2021 01:44:04 GMT+0200 (Central European Summer Time),The main experiment item,yes,0,0,/Users/ethan/Documents/GitHub/OpenSesame/Sternberg/experiment_files,0,0,0,no,mono,no,18,no,white,no,no,768,94,3.6.1,legacy,legacy,2 3 7 4,osweb,1.4.0,1,1,y,36,,0,right,,,space,space,space,right,882,,,7370,3864,61954,882,2,legacy,720,1366,24,768,24,0,0,1366,1632959142453,4,1024,2,48000,-16,experiment,0,even,Linux x86_64,2,178247,,,174991,77,176028,43281,77,7450,88208,180262,177032,181161,77,180262,Sternberg_updated,13,18973,17,yes,1024
78,78,1103,1103,black,no,experiment,Mozilla,Netscape,"5.0 (X11; CrOS x86_64 13729.45.0) AppleWebKit/537.36 (KHTML, like Gecko) Chrome/89.0.4389.82 Safari/537.36",legacy,legacy,legacy,0,uniform,1,1,right,17,17,17,17,0,0,0,17,17,0,0,0,17,17,17,0,0,17,17,0,30-08-21,29-08-21,01:44:04,Thu Sep 30 2021 01:44:04 GMT+0200 (Central European Summer Time),The main experiment item,yes,0,0,/Users/ethan/Documents/GitHub/OpenSesame/Sternberg/experiment_files,0,0,0,no,mono,no,18,no,white,no,no,768,94,3.6.1,legacy,legacy,3 2 1 4 7,osweb,1.4.0,1,2,y,36,,0,right,,,space,space,space,right,881,,,7370,3864,61954,881,2,legacy,720,1366,24,768,24,0,0,1366,1632959142453,5,1024,2,48000,-16,experiment,0,even,Linux x86_64,2,184425,,,181162,77,182199,43281,77,7450,88208,186439,183210,187321,77,186439,Sternberg_updated,14,19854,18,yes,1024
79,79,1081,1081,black,no,experiment,Mozilla,Netscape,"5.0 (X11; CrOS x86_64 13729.45.0) AppleWebKit/537.36 (KHTML, like Gecko) Chrome/89.0.4389.82 Safari/537.36",legacy,legacy,legacy,0,uniform,1,1,left,18,18,18,18,0,0,0,18,18,0,0,0,18,18,18,0,0,18,18,0,30-08-21,29-08-21,01:44:04,Thu Sep 30 2021 01:44:04 GMT+0200 (Central European Summer Time),The main experiment item,yes,0,0,/Users/ethan/Documents/GitHub/OpenSesame/Sternberg/experiment_files,0,0,0,no,mono,no,18,no,white,no,no,768,94,3.6.1,legacy,legacy,8 4 3 5,osweb,1.4.0,1,0,n,36,,0,left,,,space,space,space,left,692,,,7370,3864,61954,692,2,legacy,720,1366,24,768,24,0,0,1366,1632959142453,4,1024,2,48000,-16,experiment,0,even,Linux x86_64,6,190585,,,187323,77,188361,43281,77,7450,88208,192600,189370,193299,77,192600,Sternberg_updated,15,20546,19,yes,1024
80,80,1118,1118,black,no,experiment,Mozilla,Netscape,"5.0 (X11; CrOS x86_64 13729.45.0) AppleWebKit/537.36 (KHTML, like Gecko) Chrome/89.0.4389.82 Safari/537.36",legacy,legacy,legacy,0,uniform,1,1,right,19,19,19,19,0,0,0,19,19,0,0,0,19,19,19,0,0,19,19,0,30-08-21,29-08-21,01:44:04,Thu Sep 30 2021 01:44:04 GMT+0200 (Central European Summer Time),The main experiment item,yes,0,0,/Users/ethan/Documents/GitHub/OpenSesame/Sternberg/experiment_files,0,0,0,no,mono,no,18,no,white,no,no,768,94,3.6.1,legacy,legacy,6 7 8 5,osweb,1.4.0,1,3,y,36,,0,right,,,space,space,space,right,1805,,,7370,3864,61954,1805,2,legacy,720,1366,24,768,24,0,0,1366,1632959142453,4,1024,2,48000,-16,experiment,0,even,Linux x86_64,8,196563,,,193301,77,194340,43281,77,7450,88208,198577,195347,200392,77,198577,Sternberg_updated,16,22351,20,yes,1024
81,81,1105,1105,black,no,experiment,Mozilla,Netscape,"5.0 (X11; CrOS x86_64 13729.45.0) AppleWebKit/537.36 (KHTML, like Gecko) Chrome/89.0.4389.82 Safari/537.36",legacy,legacy,legacy,0,uniform,1,1,left,20,20,20,20,0,0,0,20,20,0,0,0,20,20,20,0,0,20,20,0,30-08-21,29-08-21,01:44:04,Thu Sep 30 2021 01:44:04 GMT+0200 (Central European Summer Time),The main experiment item,yes,0,0,/Users/ethan/Documents/GitHub/OpenSesame/Sternberg/experiment_files,0,0,0,no,mono,no,18,no,white,no,no,768,94,3.6.1,legacy,legacy,8 5 7 3 6,osweb,1.4.0,1,0,n,36,,0,left,,,space,space,space,left,863,,,7370,3864,61954,863,2,legacy,720,1366,24,768,24,0,0,1366,1632959142453,5,1024,2,48000,-16,experiment,0,even,Linux x86_64,9,203656,,,200393,77,201436,43281,77,7450,88208,205671,202441,206536,77,205671,Sternberg_updated,17,23214,21,yes,1024
82,82,1094,1094,black,no,experiment,Mozilla,Netscape,"5.0 (X11; CrOS x86_64 13729.45.0) AppleWebKit/537.36 (KHTML, like Gecko) Chrome/89.0.4389.82 Safari/537.36",legacy,legacy,legacy,0,uniform,1,1,left,21,21,21,21,0,0,0,21,21,0,0,0,21,21,21,0,0,21,21,0,30-08-21,29-08-21,01:44:04,Thu Sep 30 2021 01:44:04 GMT+0200 (Central European Summer Time),The main experiment item,yes,0,0,/Users/ethan/Documents/GitHub/OpenSesame/Sternberg/experiment_files,0,0,0,no,mono,no,18,no,white,no,no,768,94,3.6.1,legacy,legacy,7 1 5 6 3,osweb,1.4.0,1,0,n,36,,0,left,,,space,space,space,left,844,,,7370,3864,61954,844,2,legacy,720,1366,24,768,24,0,0,1366,1632959142453,5,1024,2,48000,-16,experiment,0,even,Linux x86_64,8,209800,,,206540,77,207581,43281,77,7450,88208,211815,208585,212663,77,211815,Sternberg_updated,18,24058,22,yes,1024
83,83,1106,1106,black,no,experiment,Mozilla,Netscape,"5.0 (X11; CrOS x86_64 13729.45.0) AppleWebKit/537.36 (KHTML, like Gecko) Chrome/89.0.4389.82 Safari/537.36",legacy,legacy,legacy,0,uniform,1,1,left,22,22,22,22,0,0,0,22,22,0,0,0,22,22,22,0,0,22,22,0,30-08-21,29-08-21,01:44:04,Thu Sep 30 2021 01:44:04 GMT+0200 (Central European Summer Time),The main experiment item,yes,0,0,/Users/ethan/Documents/GitHub/OpenSesame/Sternberg/experiment_files,0,0,0,no,mono,no,18,no,white,no,no,768,94,3.6.1,legacy,legacy,9 5 3 2 8 6,osweb,1.4.0,1,0,n,36,,0,left,,,space,space,space,left,1378,,,7370,3864,61954,1378,2,legacy,720,1366,24,768,24,0,0,1366,1632959142453,6,1024,2,48000,-16,experiment,0,even,Linux x86_64,7,215927,,,212665,77,213704,43281,77,7450,88208,217942,214712,219323,77,217942,Sternberg_updated,19,25436,23,yes,1024
83,83,1115,1115,black,no,experiment,Mozilla,Netscape,"5.0 (X11; CrOS x86_64 13729.45.0) AppleWebKit/537.36 (KHTML, like Gecko) Chrome/89.0.4389.82 Safari/537.36",legacy,legacy,legacy,0,uniform,1,1,left,23,23,23,23,0,0,0,23,23,0,0,0,23,23,23,0,0,23,23,0,30-08-21,29-08-21,01:44:04,Thu Sep 30 2021 01:44:04 GMT+0200 (Central European Summer Time),The main experiment item,yes,0,0,/Users/ethan/Documents/GitHub/OpenSesame/Sternberg/experiment_files,0,0,0,no,mono,no,18,no,white,no,no,768,94,3.6.1,legacy,legacy,1 7 8 3 9,osweb,1.4.0,1,0,n,36,,0,left,,,space,space,space,left,1313,,,7370,3864,61954,1313,2,legacy,720,1366,24,768,24,0,0,1366,1632959142453,5,1024,2,48000,-16,experiment,0,even,Linux x86_64,2,222587,,,219327,77,220363,43281,77,7450,88208,224602,221372,225917,77,224602,Sternberg_updated,20,26749,24,yes,1024
80,80,1121,1121,black,no,experiment,Mozilla,Netscape,"5.0 (X11; CrOS x86_64 13729.45.0) AppleWebKit/537.36 (KHTML, like Gecko) Chrome/89.0.4389.82 Safari/537.36",legacy,legacy,legacy,0,uniform,0,0,right,24,24,24,24,0,0,0,24,24,0,0,0,24,24,24,0,0,24,24,0,30-08-21,29-08-21,01:44:04,Thu Sep 30 2021 01:44:04 GMT+0200 (Central European Summer Time),The main experiment item,yes,0,0,/Users/ethan/Documents/GitHub/OpenSesame/Sternberg/experiment_files,0,0,0,no,mono,no,18,no,white,no,no,768,94,3.6.1,legacy,legacy,6 8 9 3 4 9,osweb,1.4.0,1,5,y,36,,0,left,,,space,space,space,left,1274,,,7370,3864,61954,1274,2,legacy,720,1366,24,768,24,0,0,1366,1632959142453,6,1024,2,48000,-16,experiment,0,even,Linux x86_64,4,229181,,,225918,77,226955,43281,77,7450,88208,231196,227966,232477,77,231196,Sternberg_updated,20,28023,25,yes,1024
77,77,1109,1109,black,no,experiment,Mozilla,Netscape,"5.0 (X11; CrOS x86_64 13729.45.0) AppleWebKit/537.36 (KHTML, like Gecko) Chrome/89.0.4389.82 Safari/537.36",legacy,legacy,legacy,0,uniform,0,0,right,25,25,25,25,0,0,0,25,25,0,0,0,25,25,25,0,0,25,25,0,30-08-21,29-08-21,01:44:04,Thu Sep 30 2021 01:44:04 GMT+0200 (Central European Summer Time),The main experiment item,yes,0,0,/Users/ethan/Documents/GitHub/OpenSesame/Sternberg/experiment_files,0,0,0,no,mono,no,18,no,white,no,no,768,94,3.6.1,legacy,legacy,6 7 9 3 1 2,osweb,1.4.0,1,1,y,36,,0,left,,,space,space,space,left,802,,,7370,3864,61954,802,2,legacy,720,1366,24,768,24,0,0,1366,1632959142453,6,1024,2,48000,-16,experiment,0,even,Linux x86_64,6,235741,,,225918,77,233520,232481,77,7450,88208,237756,234526,238571,77,237756,Sternberg_updated,20,28825,26,yes,1024
78,78,1140,1140,black,no,experiment,Mozilla,Netscape,"5.0 (X11; CrOS x86_64 13729.45.0) AppleWebKit/537.36 (KHTML, like Gecko) Chrome/89.0.4389.82 Safari/537.36",legacy,legacy,legacy,0,uniform,1,1,left,26,26,26,26,0,0,0,26,26,0,0,0,26,26,26,0,0,26,26,0,30-08-21,29-08-21,01:44:04,Thu Sep 30 2021 01:44:04 GMT+0200 (Central European Summer Time),The main experiment item,yes,0,0,/Users/ethan/Documents/GitHub/OpenSesame/Sternberg/experiment_files,0,0,0,no,mono,no,18,no,white,no,no,768,94,3.6.1,legacy,legacy,2 3 8 5 6 7,osweb,1.4.0,1,0,n,36,,0,left,,,space,space,space,left,1962,,,7370,3864,61954,1962,2,legacy,720,1366,24,768,24,0,0,1366,1632959142453,6,1024,2,48000,-16,experiment,0,even,Linux x86_64,1,241835,,,225918,77,239612,238573,77,7450,88208,243850,240620,245814,77,243850,Sternberg_updated,21,30787,27,yes,1024
79,79,1168,1168,black,no,experiment,Mozilla,Netscape,"5.0 (X11; CrOS x86_64 13729.45.0) AppleWebKit/537.36 (KHTML, like Gecko) Chrome/89.0.4389.82 Safari/537.36",legacy,legacy,legacy,0,uniform,1,1,right,27,27,27,27,0,0,0,27,27,0,0,0,27,27,27,0,0,27,27,0,30-08-21,29-08-21,01:44:04,Thu Sep 30 2021 01:44:04 GMT+0200 (Central European Summer Time),The main experiment item,yes,0,0,/Users/ethan/Documents/GitHub/OpenSesame/Sternberg/experiment_files,0,0,0,no,mono,no,18,no,white,no,no,768,94,3.6.1,legacy,legacy,7 8 4 6 9 5,osweb,1.4.0,1,4,y,36,,0,right,,,space,space,space,right,1907,,,7370,3864,61954,1907,2,legacy,720,1366,24,768,24,0,0,1366,1632959142453,6,1024,2,48000,-16,experiment,0,even,Linux x86_64,6,249079,,,245816,77,246860,238573,77,7450,88208,251093,247863,253007,77,251093,Sternberg_updated,22,32694,28,yes,1024
79,79,1143,1143,black,no,experiment,Mozilla,Netscape,"5.0 (X11; CrOS x86_64 13729.45.0) AppleWebKit/537.36 (KHTML, like Gecko) Chrome/89.0.4389.82 Safari/537.36",legacy,legacy,legacy,0,uniform,1,1,right,28,28,28,28,0,0,0,28,28,0,0,0,28,28,28,0,0,28,28,0,30-08-21,29-08-21,01:44:04,Thu Sep 30 2021 01:44:04 GMT+0200 (Central European Summer Time),The main experiment item,yes,0,0,/Users/ethan/Documents/GitHub/OpenSesame/Sternberg/experiment_files,0,0,0,no,mono,no,18,no,white,no,no,768,94,3.6.1,legacy,legacy,2 8 5 1,osweb,1.4.0,1,4,y,36,,0,right,,,space,space,space,right,461,,,7370,3864,61954,461,2,legacy,720,1366,24,768,24,0,0,1366,1632959142453,4,1024,2,48000,-16,experiment,0,even,Linux x86_64,1,256271,,,253009,77,254050,238573,77,7450,88208,258286,255057,258751,77,258286,Sternberg_updated,23,33155,29,yes,1024
80,80,1126,1126,black,no,experiment,Mozilla,Netscape,"5.0 (X11; CrOS x86_64 13729.45.0) AppleWebKit/537.36 (KHTML, like Gecko) Chrome/89.0.4389.82 Safari/537.36",legacy,legacy,legacy,0,uniform,1,1,right,29,29,29,29,0,0,0,29,29,0,0,0,29,29,29,0,0,29,29,0,30-08-21,29-08-21,01:44:04,Thu Sep 30 2021 01:44:04 GMT+0200 (Central European Summer Time),The main experiment item,yes,0,0,/Users/ethan/Documents/GitHub/OpenSesame/Sternberg/experiment_files,0,0,0,no,mono,no,18,no,white,no,no,768,94,3.6.1,legacy,legacy,8 9 5 7 1 6,osweb,1.4.0,1,4,y,36,,0,right,,,space,space,space,right,639,,,7370,3864,61954,639,2,legacy,720,1366,24,768,24,0,0,1366,1632959142453,6,1024,2,48000,-16,experiment,0,even,Linux x86_64,7,262015,,,258753,77,259794,238573,77,7450,88208,264030,260800,264679,77,264030,Sternberg_updated,24,33794,30,yes,1024
81,81,1123,1123,black,no,experiment,Mozilla,Netscape,"5.0 (X11; CrOS x86_64 13729.45.0) AppleWebKit/537.36 (KHTML, like Gecko) Chrome/89.0.4389.82 Safari/537.36",legacy,legacy,legacy,0,uniform,1,1,left,30,30,30,30,0,0,0,30,30,0,0,0,30,30,30,0,0,30,30,0,30-08-21,29-08-21,01:44:04,Thu Sep 30 2021 01:44:04 GMT+0200 (Central European Summer Time),The main experiment item,yes,0,0,/Users/ethan/Documents/GitHub/OpenSesame/Sternberg/experiment_files,0,0,0,no,mono,no,18,no,white,no,no,768,94,3.6.1,legacy,legacy,2 6 4 3 9,osweb,1.4.0,1,0,n,36,,0,left,,,space,space,space,left,1004,,,7370,3864,61954,1004,2,legacy,720,1366,24,768,24,0,0,1366,1632959142453,5,1024,2,48000,-16,experiment,0,even,Linux x86_64,1,267943,,,264680,77,265722,238573,77,7450,88208,269960,266728,270973,77,269958,Sternberg_updated,25,34798,31,yes,1024
81,81,1121,1121,black,no,experiment,Mozilla,Netscape,"5.0 (X11; CrOS x86_64 13729.45.0) AppleWebKit/537.36 (KHTML, like Gecko) Chrome/89.0.4389.82 Safari/537.36",legacy,legacy,legacy,0,uniform,1,1,right,31,31,31,31,0,0,0,31,31,0,0,0,31,31,31,0,0,31,31,0,30-08-21,29-08-21,01:44:04,Thu Sep 30 2021 01:44:04 GMT+0200 (Central European Summer Time),The main experiment item,yes,0,0,/Users/ethan/Documents/GitHub/OpenSesame/Sternberg/experiment_files,0,0,0,no,mono,no,18,no,white,no,no,768,94,3.6.1,legacy,legacy,6 9 3 1,osweb,1.4.0,1,4,y,36,,0,right,,,space,space,space,right,1068,,,7370,3864,61954,1068,2,legacy,720,1366,24,768,24,0,0,1366,1632959142453,4,1024,2,48000,-16,experiment,0,even,Linux x86_64,1,274237,,,270975,77,272012,238573,77,7450,88208,276251,273022,277333,77,276251,Sternberg_updated,26,35866,32,yes,1024
82,82,1113,1113,black,no,experiment,Mozilla,Netscape,"5.0 (X11; CrOS x86_64 13729.45.0) AppleWebKit/537.36 (KHTML, like Gecko) Chrome/89.0.4389.82 Safari/537.36",legacy,legacy,legacy,0,uniform,1,1,left,32,32,32,32,0,0,0,32,32,0,0,0,32,32,32,0,0,32,32,0,30-08-21,29-08-21,01:44:04,Thu Sep 30 2021 01:44:04 GMT+0200 (Central European Summer Time),The main experiment item,yes,0,0,/Users/ethan/Documents/GitHub/OpenSesame/Sternberg/experiment_files,0,0,0,no,mono,no,18,no,white,no,no,768,94,3.6.1,legacy,legacy,6 8 4,osweb,1.4.0,1,0,n,36,,0,left,,,space,space,space,left,861,,,7370,3864,61954,861,2,legacy,720,1366,24,768,24,0,0,1366,1632959142453,3,1024,2,48000,-16,experiment,0,even,Linux x86_64,1,280597,,,277335,77,278371,238573,77,7450,88208,282613,279382,283477,77,282613,Sternberg_updated,27,36727,33,yes,1024
82,82,1125,1125,black,no,experiment,Mozilla,Netscape,"5.0 (X11; CrOS x86_64 13729.45.0) AppleWebKit/537.36 (KHTML, like Gecko) Chrome/89.0.4389.82 Safari/537.36",legacy,legacy,legacy,0,uniform,1,1,left,33,33,33,33,0,0,0,33,33,0,0,0,33,33,33,0,0,33,33,0,30-08-21,29-08-21,01:44:04,Thu Sep 30 2021 01:44:04 GMT+0200 (Central European Summer Time),The main experiment item,yes,0,0,/Users/ethan/Documents/GitHub/OpenSesame/Sternberg/experiment_files,0,0,0,no,mono,no,18,no,white,no,no,768,94,3.6.1,legacy,legacy,5 9 2 3,osweb,1.4.0,1,0,n,36,,0,left,,,space,space,space,left,1536,,,7370,3864,61954,1536,2,legacy,720,1366,24,768,24,0,0,1366,1632959142453,4,1024,2,48000,-16,experiment,0,even,Linux x86_64,8,286741,,,283479,77,284519,238573,77,7450,88208,288756,285526,290304,77,288756,Sternberg_updated,28,38263,34,yes,1024
83,83,1122,1122,black,no,experiment,Mozilla,Netscape,"5.0 (X11; CrOS x86_64 13729.45.0) AppleWebKit/537.36 (KHTML, like Gecko) Chrome/89.0.4389.82 Safari/537.36",legacy,legacy,legacy,0,uniform,1,1,left,34,34,34,34,0,0,0,34,34,0,0,0,34,34,34,0,0,34,34,0,30-08-21,29-08-21,01:44:04,Thu Sep 30 2021 01:44:04 GMT+0200 (Central European Summer Time),The main experiment item,yes,0,0,/Users/ethan/Documents/GitHub/OpenSesame/Sternberg/experiment_files,0,0,0,no,mono,no,18,no,white,no,no,768,94,3.6.1,legacy,legacy,2 8 6 3 1,osweb,1.4.0,1,0,n,36,,0,left,,,space,space,space,left,1017,,,7370,3864,61954,1017,2,legacy,720,1366,24,768,24,0,0,1366,1632959142453,5,1024,2,48000,-16,experiment,0,even,Linux x86_64,7,293569,,,290305,77,291346,238573,77,7450,88208,295583,292355,296614,77,295583,Sternberg_updated,29,39280,35,yes,1024
81,81,1147,1147,black,no,experiment,Mozilla,Netscape,"5.0 (X11; CrOS x86_64 13729.45.0) AppleWebKit/537.36 (KHTML, like Gecko) Chrome/89.0.4389.82 Safari/537.36",legacy,legacy,legacy,0,uniform,0,0,right,35,35,35,35,0,0,0,35,35,0,0,0,35,35,35,0,0,35,35,0,30-08-21,29-08-21,01:44:04,Thu Sep 30 2021 01:44:04 GMT+0200 (Central European Summer Time),The main experiment item,yes,0,0,/Users/ethan/Documents/GitHub/OpenSesame/Sternberg/experiment_files,0,0,0,no,mono,no,18,no,white,no,no,768,94,3.6.1,legacy,legacy,6 9 7 4 5 1,osweb,1.4.0,1,2,y,36,,0,None,,,space,space,space,None,2014,,,7370,3864,61954,2014,2,legacy,720,1366,24,768,24,0,0,1366,1632959142453,6,1024,2,48000,-16,experiment,0,even,Linux x86_64,9,299878,,,296617,77,297655,238573,77,7450,88208,301893,298665,303907,77,301893,Sternberg_updated,29,41294,36,yes,1024
81,81,1139,1139,black,no,experiment,Mozilla,Netscape,"5.0 (X11; CrOS x86_64 13729.45.0) AppleWebKit/537.36 (KHTML, like Gecko) Chrome/89.0.4389.82 Safari/537.36",legacy,legacy,legacy,0,uniform,1,1,left,36,36,36,36,0,0,0,36,36,0,0,0,36,36,36,0,0,36,36,0,30-08-21,29-08-21,01:44:04,Thu Sep 30 2021 01:44:04 GMT+0200 (Central European Summer Time),The main experiment item,yes,0,0,/Users/ethan/Documents/GitHub/OpenSesame/Sternberg/experiment_files,0,0,0,no,mono,no,18,no,white,no,no,768,94,3.6.1,legacy,legacy,6 9 5,osweb,1.4.0,1,0,n,36,,0,left,,,space,space,space,left,842,,,7370,3864,61954,842,2,legacy,720,1366,24,768,24,0,0,1366,1632959142453,3,1024,2,48000,-16,experiment,0,even,Linux x86_64,8,307172,,,296617,77,304950,303909,77,7450,88208,309186,305957,310035,77,309186,Sternberg_updated,30,42136,37,yes,1024
82,82,1136,1136,black,no,experiment,Mozilla,Netscape,"5.0 (X11; CrOS x86_64 13729.45.0) AppleWebKit/537.36 (KHTML, like Gecko) Chrome/89.0.4389.82 Safari/537.36",legacy,legacy,legacy,0,uniform,1,1,left,37,37,37,37,0,0,0,37,37,0,0,0,37,37,37,0,0,37,37,0,30-08-21,29-08-21,01:44:04,Thu Sep 30 2021 01:44:04 GMT+0200 (Central European Summer Time),The main experiment item,yes,0,0,/Users/ethan/Documents/GitHub/OpenSesame/Sternberg/experiment_files,0,0,0,no,mono,no,18,no,white,no,no,768,94,3.6.1,legacy,legacy,6 2 9 3 8 4,osweb,1.4.0,1,0,n,36,,0,left,,,space,space,space,left,1014,,,7370,3864,61954,1014,2,legacy,720,1366,24,768,24,0,0,1366,1632959142453,6,1024,2,48000,-16,experiment,0,even,Linux x86_64,1,313298,,,310036,77,311075,303909,77,7450,88208,315315,312083,316330,77,315315,Sternberg_updated,31,43150,38,yes,1024
82,82,1128,1128,black,no,experiment,Mozilla,Netscape,"5.0 (X11; CrOS x86_64 13729.45.0) AppleWebKit/537.36 (KHTML, like Gecko) Chrome/89.0.4389.82 Safari/537.36",legacy,legacy,legacy,0,uniform,1,1,left,38,38,38,38,0,0,0,38,38,0,0,0,38,38,38,0,0,38,38,0,30-08-21,29-08-21,01:44:04,Thu Sep 30 2021 01:44:04 GMT+0200 (Central European Summer Time),The main experiment item,yes,0,0,/Users/ethan/Documents/GitHub/OpenSesame/Sternberg/experiment_files,0,0,0,no,mono,no,18,no,white,no,no,768,94,3.6.1,legacy,legacy,6 9 4 5 2,osweb,1.4.0,1,0,n,36,,0,left,,,space,space,space,left,857,,,7370,3864,61954,857,2,legacy,720,1366,24,768,24,0,0,1366,1632959142453,5,1024,2,48000,-16,experiment,0,even,Linux x86_64,1,319592,,,316331,77,317367,303909,77,7450,88208,321607,318377,322473,77,321607,Sternberg_updated,32,44007,39,yes,1024
83,83,1135,1135,black,no,experiment,Mozilla,Netscape,"5.0 (X11; CrOS x86_64 13729.45.0) AppleWebKit/537.36 (KHTML, like Gecko) Chrome/89.0.4389.82 Safari/537.36",legacy,legacy,legacy,0,uniform,1,1,right,39,39,39,39,0,0,0,39,39,0,0,0,39,39,39,0,0,39,39,0,30-08-21,29-08-21,01:44:04,Thu Sep 30 2021 01:44:04 GMT+0200 (Central European Summer Time),The main experiment item,yes,0,0,/Users/ethan/Documents/GitHub/OpenSesame/Sternberg/experiment_files,0,0,0,no,mono,no,18,no,white,no,no,768,94,3.6.1,legacy,legacy,4 6 2 5 1,osweb,1.4.0,1,5,y,36,,0,right,,,space,space,space,right,1410,,,7370,3864,61954,1410,2,legacy,720,1366,24,768,24,0,0,1366,1632959142453,5,1024,2,48000,-16,experiment,0,even,Linux x86_64,1,325736,,,322477,77,323513,303909,77,7450,88208,327751,324523,329166,77,327751,Sternberg_updated,33,45417,40,yes,1024
83,83,1133,1133,black,no,experiment,Mozilla,Netscape,"5.0 (X11; CrOS x86_64 13729.45.0) AppleWebKit/537.36 (KHTML, like Gecko) Chrome/89.0.4389.82 Safari/537.36",legacy,legacy,legacy,0,uniform,1,1,right,40,40,40,40,0,0,0,40,40,0,0,0,40,40,40,0,0,40,40,0,30-08-21,29-08-21,01:44:04,Thu Sep 30 2021 01:44:04 GMT+0200 (Central European Summer Time),The main experiment item,yes,0,0,/Users/ethan/Documents/GitHub/OpenSesame/Sternberg/experiment_files,0,0,0,no,mono,no,18,no,white,no,no,768,94,3.6.1,legacy,legacy,7 1 8 5 6 2,osweb,1.4.0,1,2,y,36,,0,right,,,space,space,space,right,1048,,,7370,3864,61954,1048,2,legacy,720,1366,24,768,24,0,0,1366,1632959142453,6,1024,2,48000,-16,experiment,0,even,Linux x86_64,1,332430,,,329168,77,330203,303909,77,7450,88208,334445,331214,335493,77,334445,Sternberg_updated,34,46465,41,yes,1024
83,83,1122,1122,black,no,experiment,Mozilla,Netscape,"5.0 (X11; CrOS x86_64 13729.45.0) AppleWebKit/537.36 (KHTML, like Gecko) Chrome/89.0.4389.82 Safari/537.36",legacy,legacy,legacy,0,uniform,1,1,right,41,41,41,41,0,0,0,41,41,0,0,0,41,41,41,0,0,41,41,0,30-08-21,29-08-21,01:44:04,Thu Sep 30 2021 01:44:04 GMT+0200 (Central European Summer Time),The main experiment item,yes,0,0,/Users/ethan/Documents/GitHub/OpenSesame/Sternberg/experiment_files,0,0,0,no,mono,no,18,no,white,no,no,768,94,3.6.1,legacy,legacy,7 6,osweb,1.4.0,1,2,y,36,,0,right,,,space,space,space,right,672,,,7370,3864,61954,672,2,legacy,720,1366,24,768,24,0,0,1366,1632959142453,2,1024,2,48000,-16,experiment,0,even,Linux x86_64,6,338757,,,335497,77,336537,303909,77,7450,88208,340774,337542,341454,77,340774,Sternberg_updated,35,47137,42,yes,1024
84,84,1118,1118,black,no,experiment,Mozilla,Netscape,"5.0 (X11; CrOS x86_64 13729.45.0) AppleWebKit/537.36 (KHTML, like Gecko) Chrome/89.0.4389.82 Safari/537.36",legacy,legacy,legacy,0,uniform,1,1,left,42,42,42,42,0,0,0,42,42,0,0,0,42,42,42,0,0,42,42,0,30-08-21,29-08-21,01:44:04,Thu Sep 30 2021 01:44:04 GMT+0200 (Central European Summer Time),The main experiment item,yes,0,0,/Users/ethan/Documents/GitHub/OpenSesame/Sternberg/experiment_files,0,0,0,no,mono,no,18,no,white,no,no,768,94,3.6.1,legacy,legacy,7 1,osweb,1.4.0,1,0,n,36,,0,left,,,space,space,space,left,918,,,7370,3864,61954,918,2,legacy,720,1366,24,768,24,0,0,1366,1632959142453,2,1024,2,48000,-16,experiment,0,even,Linux x86_64,8,344734,,,341455,77,342514,303909,77,7450,88208,346749,343519,347681,77,346749,Sternberg_updated,36,48055,43,yes,1024
84,84,1116,1116,black,no,experiment,Mozilla,Netscape,"5.0 (X11; CrOS x86_64 13729.45.0) AppleWebKit/537.36 (KHTML, like Gecko) Chrome/89.0.4389.82 Safari/537.36",legacy,legacy,legacy,0,uniform,1,1,left,43,43,43,43,0,0,0,43,43,0,0,0,43,43,43,0,0,43,43,0,30-08-21,29-08-21,01:44:04,Thu Sep 30 2021 01:44:04 GMT+0200 (Central European Summer Time),The main experiment item,yes,0,0,/Users/ethan/Documents/GitHub/OpenSesame/Sternberg/experiment_files,0,0,0,no,mono,no,18,no,white,no,no,768,94,3.6.1,legacy,legacy,5 3 8 7 2 4,osweb,1.4.0,1,0,n,36,,0,left,,,space,space,space,left,1063,,,7370,3864,61954,1063,2,legacy,720,1366,24,768,24,0,0,1366,1632959142453,6,1024,2,48000,-16,experiment,0,even,Linux x86_64,9,350945,,,347684,77,348726,303909,77,7450,88208,352960,349730,354025,77,352960,Sternberg_updated,37,49118,44,yes,1024
84,84,1123,1123,black,no,experiment,Mozilla,Netscape,"5.0 (X11; CrOS x86_64 13729.45.0) AppleWebKit/537.36 (KHTML, like Gecko) Chrome/89.0.4389.82 Safari/537.36",legacy,legacy,legacy,0,uniform,1,1,right,44,44,44,44,0,0,0,44,44,0,0,0,44,44,44,0,0,44,44,0,30-08-21,29-08-21,01:44:04,Thu Sep 30 2021 01:44:04 GMT+0200 (Central European Summer Time),The main experiment item,yes,0,0,/Users/ethan/Documents/GitHub/OpenSesame/Sternberg/experiment_files,0,0,0,no,mono,no,18,no,white,no,no,768,94,3.6.1,legacy,legacy,8 9 6 1,osweb,1.4.0,1,2,y,36,,0,right,,,space,space,space,right,1425,,,7370,3864,61954,1425,2,legacy,720,1366,24,768,24,0,0,1366,1632959142453,4,1024,2,48000,-16,experiment,0,even,Linux x86_64,9,357289,,,354026,77,355066,303909,77,7450,88208,359304,356073,360735,77,359303,Sternberg_updated,38,50543,45,yes,1024
85,85,1125,1125,black,no,experiment,Mozilla,Netscape,"5.0 (X11; CrOS x86_64 13729.45.0) AppleWebKit/537.36 (KHTML, like Gecko) Chrome/89.0.4389.82 Safari/537.36",legacy,legacy,legacy,0,uniform,1,1,right,45,45,45,45,0,0,0,45,45,0,0,0,45,45,45,0,0,45,45,0,30-08-21,29-08-21,01:44:04,Thu Sep 30 2021 01:44:04 GMT+0200 (Central European Summer Time),The main experiment item,yes,0,0,/Users/ethan/Documents/GitHub/OpenSesame/Sternberg/experiment_files,0,0,0,no,mono,no,18,no,white,no,no,768,94,3.6.1,legacy,legacy,9 3 1 2 5,osweb,1.4.0,1,4,y,36,,0,right,,,space,space,space,right,1198,,,7370,3864,61954,1198,2,legacy,720,1366,24,768,24,0,0,1366,1632959142453,5,1024,2,48000,-16,experiment,0,even,Linux x86_64,2,363999,,,360736,77,361773,303909,77,7450,88208,366014,362784,367212,77,366014,Sternberg_updated,39,51741,46,yes,1024
85,85,1118,1118,black,no,experiment,Mozilla,Netscape,"5.0 (X11; CrOS x86_64 13729.45.0) AppleWebKit/537.36 (KHTML, like Gecko) Chrome/89.0.4389.82 Safari/537.36",legacy,legacy,legacy,0,uniform,1,1,right,46,46,46,46,0,0,0,46,46,0,0,0,46,46,46,0,0,46,46,0,30-08-21,29-08-21,01:44:04,Thu Sep 30 2021 01:44:04 GMT+0200 (Central European Summer Time),The main experiment item,yes,0,0,/Users/ethan/Documents/GitHub/OpenSesame/Sternberg/experiment_files,0,0,0,no,mono,no,18,no,white,no,no,768,94,3.6.1,legacy,legacy,8 7 3,osweb,1.4.0,1,1,y,36,,0,right,,,space,space,space,right,789,,,7370,3864,61954,789,2,legacy,720,1366,24,768,24,0,0,1366,1632959142453,3,1024,2,48000,-16,experiment,0,even,Linux x86_64,8,370476,,,367215,77,368251,303909,77,7450,88208,372491,369261,373289,77,372491,Sternberg_updated,40,52530,47,yes,1024
85,85,1113,1113,black,no,experiment,Mozilla,Netscape,"5.0 (X11; CrOS x86_64 13729.45.0) AppleWebKit/537.36 (KHTML, like Gecko) Chrome/89.0.4389.82 Safari/537.36",legacy,legacy,legacy,0,uniform,1,1,left,47,47,47,47,0,0,0,47,47,0,0,0,47,47,47,0,0,47,47,0,30-08-21,29-08-21,01:44:04,Thu Sep 30 2021 01:44:04 GMT+0200 (Central European Summer Time),The main experiment item,yes,0,0,/Users/ethan/Documents/GitHub/OpenSesame/Sternberg/experiment_files,0,0,0,no,mono,no,18,no,white,no,no,768,94,3.6.1,legacy,legacy,8 5 4 2 9 6,osweb,1.4.0,1,0,n,36,,0,left,,,space,space,space,left,916,,,7370,3864,61954,916,2,legacy,720,1366,24,768,24,0,0,1366,1632959142453,6,1024,2,48000,-16,experiment,0,even,Linux x86_64,3,376553,,,373292,77,374329,303909,77,7450,88208,378568,375338,379500,77,378568,Sternberg_updated,41,53446,48,yes,1024
86,86,1113,1113,black,no,experiment,Mozilla,Netscape,"5.0 (X11; CrOS x86_64 13729.45.0) AppleWebKit/537.36 (KHTML, like Gecko) Chrome/89.0.4389.82 Safari/537.36",legacy,legacy,legacy,0,uniform,1,1,left,48,48,48,48,0,0,0,48,48,0,0,0,48,48,48,0,0,48,48,0,30-08-21,29-08-21,01:44:04,Thu Sep 30 2021 01:44:04 GMT+0200 (Central European Summer Time),The main experiment item,yes,0,0,/Users/ethan/Documents/GitHub/OpenSesame/Sternberg/experiment_files,0,0,0,no,mono,no,18,no,white,no,no,768,94,3.6.1,legacy,legacy,7 3 2 8,osweb,1.4.0,1,0,n,36,,0,left,,,space,space,space,left,1115,,,7370,3864,61954,1115,2,legacy,720,1366,24,768,24,0,0,1366,1632959142453,4,1024,2,48000,-16,experiment,0,even,Linux x86_64,4,382764,,,379502,77,380540,303909,77,7450,88208,384779,381549,385895,77,384779,Sternberg_updated,42,54561,49,yes,1024
84,84,1113,1113,black,no,experiment,Mozilla,Netscape,"5.0 (X11; CrOS x86_64 13729.45.0) AppleWebKit/537.36 (KHTML, like Gecko) Chrome/89.0.4389.82 Safari/537.36",legacy,legacy,legacy,0,uniform,0,0,left,49,49,49,49,0,0,0,49,49,0,0,0,49,49,49,0,0,49,49,0,30-08-21,29-08-21,01:44:04,Thu Sep 30 2021 01:44:04 GMT+0200 (Central European Summer Time),The main experiment item,yes,0,0,/Users/ethan/Documents/GitHub/OpenSesame/Sternberg/experiment_files,0,0,0,no,mono,no,18,no,white,no,no,768,94,3.6.1,legacy,legacy,1 7 5 2 9,osweb,1.4.0,1,0,n,36,,0,right,,,space,space,space,right,1064,,,7370,3864,61954,1064,2,legacy,720,1366,24,768,24,0,0,1366,1632959142453,5,1024,2,48000,-16,experiment,0,even,Linux x86_64,3,389158,,,385900,77,386934,303909,77,7450,88208,391173,387942,392238,77,391173,Sternberg_updated,42,55625,50,yes,1024
84,84,1107,1107,black,no,experiment,Mozilla,Netscape,"5.0 (X11; CrOS x86_64 13729.45.0) AppleWebKit/537.36 (KHTML, like Gecko) Chrome/89.0.4389.82 Safari/537.36",legacy,legacy,legacy,0,uniform,1,1,right,50,50,50,50,0,0,0,50,50,0,0,0,50,50,50,0,0,50,50,0,30-08-21,29-08-21,01:44:04,Thu Sep 30 2021 01:44:04 GMT+0200 (Central European Summer Time),The main experiment item,yes,0,0,/Users/ethan/Documents/GitHub/OpenSesame/Sternberg/experiment_files,0,0,0,no,mono,no,18,no,white,no,no,768,94,3.6.1,legacy,legacy,7 2 3,osweb,1.4.0,1,3,y,36,,0,right,,,space,space,space,right,847,,,7370,3864,61954,847,2,legacy,720,1366,24,768,24,0,0,1366,1632959142453,3,1024,2,48000,-16,experiment,0,even,Linux x86_64,3,395502,,,385900,77,393277,392240,77,7450,88208,397516,394286,398365,77,397516,Sternberg_updated,43,56472,51,yes,1024
85,85,1113,1113,black,no,experiment,Mozilla,Netscape,"5.0 (X11; CrOS x86_64 13729.45.0) AppleWebKit/537.36 (KHTML, like Gecko) Chrome/89.0.4389.82 Safari/537.36",legacy,legacy,legacy,0,uniform,1,1,right,51,51,51,51,0,0,0,51,51,0,0,0,51,51,51,0,0,51,51,0,30-08-21,29-08-21,01:44:04,Thu Sep 30 2021 01:44:04 GMT+0200 (Central European Summer Time),The main experiment item,yes,0,0,/Users/ethan/Documents/GitHub/OpenSesame/Sternberg/experiment_files,0,0,0,no,mono,no,18,no,white,no,no,768,94,3.6.1,legacy,legacy,3 4 9 6 2 9,osweb,1.4.0,1,5,y,36,,0,right,,,space,space,space,right,1408,,,7370,3864,61954,1408,2,legacy,720,1366,24,768,24,0,0,1366,1632959142453,6,1024,2,48000,-16,experiment,0,even,Linux x86_64,2,401629,,,398377,77,399403,392240,77,7450,88208,403643,400413,405058,77,403643,Sternberg_updated,44,57880,52,yes,1024
85,85,1111,1111,black,no,experiment,Mozilla,Netscape,"5.0 (X11; CrOS x86_64 13729.45.0) AppleWebKit/537.36 (KHTML, like Gecko) Chrome/89.0.4389.82 Safari/537.36",legacy,legacy,legacy,0,uniform,1,1,left,52,52,52,52,0,0,0,52,52,0,0,0,52,52,52,0,0,52,52,0,30-08-21,29-08-21,01:44:04,Thu Sep 30 2021 01:44:04 GMT+0200 (Central European Summer Time),The main experiment item,yes,0,0,/Users/ethan/Documents/GitHub/OpenSesame/Sternberg/experiment_files,0,0,0,no,mono,no,18,no,white,no,no,768,94,3.6.1,legacy,legacy,7 4 2 8 1 9,osweb,1.4.0,1,0,n,36,,0,left,,,space,space,space,left,1012,,,7370,3864,61954,1012,2,legacy,720,1366,24,768,24,0,0,1366,1632959142453,6,1024,2,48000,-16,experiment,0,even,Linux x86_64,5,408322,,,405060,77,406099,392240,77,7450,88208,410337,407107,411352,77,410337,Sternberg_updated,45,58892,53,yes,1024
85,85,1108,1108,black,no,experiment,Mozilla,Netscape,"5.0 (X11; CrOS x86_64 13729.45.0) AppleWebKit/537.36 (KHTML, like Gecko) Chrome/89.0.4389.82 Safari/537.36",legacy,legacy,legacy,0,uniform,1,1,left,53,53,53,53,0,0,0,53,53,0,0,0,53,53,53,0,0,53,53,0,30-08-21,29-08-21,01:44:04,Thu Sep 30 2021 01:44:04 GMT+0200 (Central European Summer Time),The main experiment item,yes,0,0,/Users/ethan/Documents/GitHub/OpenSesame/Sternberg/experiment_files,0,0,0,no,mono,no,18,no,white,no,no,768,94,3.6.1,legacy,legacy,7 1 8 4 9 3,osweb,1.4.0,1,0,n,36,,0,left,,,space,space,space,left,965,,,7370,3864,61954,965,2,legacy,720,1366,24,768,24,0,0,1366,1632959142453,6,1024,2,48000,-16,experiment,0,even,Linux x86_64,6,414616,,,411353,77,412392,392240,77,7450,88208,416631,413401,417597,77,416631,Sternberg_updated,46,59857,54,yes,1024
84,84,1108,1108,black,no,experiment,Mozilla,Netscape,"5.0 (X11; CrOS x86_64 13729.45.0) AppleWebKit/537.36 (KHTML, like Gecko) Chrome/89.0.4389.82 Safari/537.36",legacy,legacy,legacy,0,uniform,0,0,left,54,54,54,54,0,0,0,54,54,0,0,0,54,54,54,0,0,54,54,0,30-08-21,29-08-21,01:44:04,Thu Sep 30 2021 01:44:04 GMT+0200 (Central European Summer Time),The main experiment item,yes,0,0,/Users/ethan/Documents/GitHub/OpenSesame/Sternberg/experiment_files,0,0,0,no,mono,no,18,no,white,no,no,768,94,3.6.1,legacy,legacy,1 6 4 3 9 7,osweb,1.4.0,1,0,n,36,,0,right,,,space,space,space,right,1087,,,7370,3864,61954,1087,2,legacy,720,1366,24,768,24,0,0,1366,1632959142453,6,1024,2,48000,-16,experiment,0,even,Linux x86_64,8,420860,,,417601,77,418634,392240,77,7450,88208,422875,419645,423973,77,422875,Sternberg_updated,46,60944,55,yes,1024
82,82,1091,1091,black,no,experiment,Mozilla,Netscape,"5.0 (X11; CrOS x86_64 13729.45.0) AppleWebKit/537.36 (KHTML, like Gecko) Chrome/89.0.4389.82 Safari/537.36",legacy,legacy,legacy,0,uniform,0,0,left,55,55,55,55,0,0,0,55,55,0,0,0,55,55,55,0,0,55,55,0,30-08-21,29-08-21,01:44:04,Thu Sep 30 2021 01:44:04 GMT+0200 (Central European Summer Time),The main experiment item,yes,0,0,/Users/ethan/Documents/GitHub/OpenSesame/Sternberg/experiment_files,0,0,0,no,mono,no,18,no,white,no,no,768,94,3.6.1,legacy,legacy,1,osweb,1.4.0,1,0,n,36,,0,right,space,,space,space,space,right,156,39083,,7370,3864,61954,156,2,legacy,720,1366,24,768,24,0,0,1366,1632959142453,1,1024,2,48000,-16,experiment,0,even,Linux x86_64,7,466332,424990,,417601,77,464112,423977,77,7450,88208,468347,465117,468513,77,468347,Sternberg_updated,46,61100,56,yes,1024
82,82,1087,1087,black,no,experiment,Mozilla,Netscape,"5.0 (X11; CrOS x86_64 13729.45.0) AppleWebKit/537.36 (KHTML, like Gecko) Chrome/89.0.4389.82 Safari/537.36",legacy,legacy,legacy,0,uniform,1,1,right,56,56,56,56,0,0,0,56,56,0,0,0,56,56,56,0,0,56,56,0,30-08-21,29-08-21,01:44:04,Thu Sep 30 2021 01:44:04 GMT+0200 (Central European Summer Time),The main experiment item,yes,0,0,/Users/ethan/Documents/GitHub/OpenSesame/Sternberg/experiment_files,0,0,0,no,mono,no,18,no,white,no,no,768,94,3.6.1,legacy,legacy,5 2 6,osweb,1.4.0,1,2,y,36,,0,right,space,,space,space,space,right,843,39083,,7370,3864,61954,843,2,legacy,720,1366,24,768,24,0,0,1366,1632959142453,3,1024,2,48000,-16,experiment,0,even,Linux x86_64,2,471777,424990,,417601,77,469554,468521,77,7450,88208,473794,470562,474641,77,473794,Sternberg_updated,47,61943,57,yes,1024
83,83,1087,1087,black,no,experiment,Mozilla,Netscape,"5.0 (X11; CrOS x86_64 13729.45.0) AppleWebKit/537.36 (KHTML, like Gecko) Chrome/89.0.4389.82 Safari/537.36",legacy,legacy,legacy,0,uniform,1,1,left,57,57,57,57,0,0,0,57,57,0,0,0,57,57,57,0,0,57,57,0,30-08-21,29-08-21,01:44:04,Thu Sep 30 2021 01:44:04 GMT+0200 (Central European Summer Time),The main experiment item,yes,0,0,/Users/ethan/Documents/GitHub/OpenSesame/Sternberg/experiment_files,0,0,0,no,mono,no,18,no,white,no,no,768,94,3.6.1,legacy,legacy,8 4 3 9,osweb,1.4.0,1,0,n,36,,0,left,space,,space,space,space,left,1124,39083,,7370,3864,61954,1124,2,legacy,720,1366,24,768,24,0,0,1366,1632959142453,4,1024,2,48000,-16,experiment,0,even,Linux x86_64,5,477904,424990,,474643,77,475679,468521,77,7450,88208,479921,476689,481051,77,479921,Sternberg_updated,48,63067,58,yes,1024
83,83,1091,1091,black,no,experiment,Mozilla,Netscape,"5.0 (X11; CrOS x86_64 13729.45.0) AppleWebKit/537.36 (KHTML, like Gecko) Chrome/89.0.4389.82 Safari/537.36",legacy,legacy,legacy,0,uniform,1,1,right,58,58,58,58,0,0,0,58,58,0,0,0,58,58,58,0,0,58,58,0,30-08-21,29-08-21,01:44:04,Thu Sep 30 2021 01:44:04 GMT+0200 (Central European Summer Time),The main experiment item,yes,0,0,/Users/ethan/Documents/GitHub/OpenSesame/Sternberg/experiment_files,0,0,0,no,mono,no,18,no,white,no,no,768,94,3.6.1,legacy,legacy,4,osweb,1.4.0,1,1,y,36,,0,right,space,,space,space,space,right,1330,39083,,7370,3864,61954,1330,2,legacy,720,1366,24,768,24,0,0,1366,1632959142453,1,1024,2,48000,-16,experiment,0,even,Linux x86_64,4,484314,424990,,481052,77,482090,468521,77,7450,88208,486329,483099,487662,77,486329,Sternberg_updated,49,64397,59,yes,1024
83,83,1092,1092,black,no,experiment,Mozilla,Netscape,"5.0 (X11; CrOS x86_64 13729.45.0) AppleWebKit/537.36 (KHTML, like Gecko) Chrome/89.0.4389.82 Safari/537.36",legacy,legacy,legacy,0,uniform,1,1,left,59,59,59,59,0,0,0,59,59,0,0,0,59,59,59,0,0,59,59,0,30-08-21,29-08-21,01:44:04,Thu Sep 30 2021 01:44:04 GMT+0200 (Central European Summer Time),The main experiment item,yes,0,0,/Users/ethan/Documents/GitHub/OpenSesame/Sternberg/experiment_files,0,0,0,no,mono,no,18,no,white,no,no,768,94,3.6.1,legacy,legacy,2 8 7 9 5 3,osweb,1.4.0,1,0,n,36,,0,left,space,,space,space,space,left,1129,39083,,7370,3864,61954,1129,2,legacy,720,1366,24,768,24,0,0,1366,1632959142453,6,1024,2,48000,-16,experiment,0,even,Linux x86_64,6,490925,424990,,487663,77,488702,468521,77,7450,88208,492940,489709,494071,77,492939,Sternberg_updated,50,65526,60,yes,1024
84,84,1092,1092,black,no,experiment,Mozilla,Netscape,"5.0 (X11; CrOS x86_64 13729.45.0) AppleWebKit/537.36 (KHTML, like Gecko) Chrome/89.0.4389.82 Safari/537.36",legacy,legacy,legacy,0,uniform,1,1,left,60,60,60,60,0,0,0,60,60,0,0,0,60,60,60,0,0,60,60,0,30-08-21,29-08-21,01:44:04,Thu Sep 30 2021 01:44:04 GMT+0200 (Central European Summer Time),The main experiment item,yes,0,0,/Users/ethan/Documents/GitHub/OpenSesame/Sternberg/experiment_files,0,0,0,no,mono,no,18,no,white,no,no,768,94,3.6.1,legacy,legacy,4 2 7 6 1 3,osweb,1.4.0,1,0,n,36,,0,left,space,,space,space,space,left,1068,39083,,7370,3864,61954,1068,2,legacy,720,1366,24,768,24,0,0,1366,1632959142453,6,1024,2,48000,-16,experiment,0,even,Linux x86_64,8,497335,424990,,494074,77,495118,468521,77,7450,88208,499350,496120,500432,77,499350,Sternberg_updated,51,66594,61,yes,1024
84,84,1085,1085,black,no,experiment,Mozilla,Netscape,"5.0 (X11; CrOS x86_64 13729.45.0) AppleWebKit/537.36 (KHTML, like Gecko) Chrome/89.0.4389.82 Safari/537.36",legacy,legacy,legacy,0,uniform,1,1,right,61,61,61,61,0,0,0,61,61,0,0,0,61,61,61,0,0,61,61,0,30-08-21,29-08-21,01:44:04,Thu Sep 30 2021 01:44:04 GMT+0200 (Central European Summer Time),The main experiment item,yes,0,0,/Users/ethan/Documents/GitHub/OpenSesame/Sternberg/experiment_files,0,0,0,no,mono,no,18,no,white,no,no,768,94,3.6.1,legacy,legacy,7 1 3,osweb,1.4.0,1,2,y,36,,0,right,space,,space,space,space,right,701,39083,,7370,3864,61954,701,2,legacy,720,1366,24,768,24,0,0,1366,1632959142453,3,1024,2,48000,-16,experiment,0,even,Linux x86_64,1,503695,424990,,500434,77,501470,468521,77,7450,88208,505710,502480,506411,77,505710,Sternberg_updated,52,67295,62,yes,1024
84,84,1077,1077,black,no,experiment,Mozilla,Netscape,"5.0 (X11; CrOS x86_64 13729.45.0) AppleWebKit/537.36 (KHTML, like Gecko) Chrome/89.0.4389.82 Safari/537.36",legacy,legacy,legacy,0,uniform,1,1,right,62,62,62,62,0,0,0,62,62,0,0,0,62,62,62,0,0,62,62,0,30-08-21,29-08-21,01:44:04,Thu Sep 30 2021 01:44:04 GMT+0200 (Central European Summer Time),The main experiment item,yes,0,0,/Users/ethan/Documents/GitHub/OpenSesame/Sternberg/experiment_files,0,0,0,no,mono,no,18,no,white,no,no,768,94,3.6.1,legacy,legacy,6 5,osweb,1.4.0,1,2,y,36,,0,right,space,,space,space,space,right,569,39083,,7370,3864,61954,569,2,legacy,720,1366,24,768,24,0,0,1366,1632959142453,2,1024,2,48000,-16,experiment,0,even,Linux x86_64,5,509673,424990,,506412,77,507448,468521,77,7450,88208,511690,508458,512270,77,511690,Sternberg_updated,53,67864,63,yes,1024
84,84,1072,1072,black,no,experiment,Mozilla,Netscape,"5.0 (X11; CrOS x86_64 13729.45.0) AppleWebKit/537.36 (KHTML, like Gecko) Chrome/89.0.4389.82 Safari/537.36",legacy,legacy,legacy,0,uniform,1,1,right,63,63,63,63,0,0,0,63,63,0,0,0,63,63,63,0,0,63,63,0,30-08-21,29-08-21,01:44:04,Thu Sep 30 2021 01:44:04 GMT+0200 (Central European Summer Time),The main experiment item,yes,0,0,/Users/ethan/Documents/GitHub/OpenSesame/Sternberg/experiment_files,0,0,0,no,mono,no,18,no,white,no,no,768,94,3.6.1,legacy,legacy,2 5 4 8 7,osweb,1.4.0,1,3,y,36,,0,right,space,,space,space,space,right,748,39083,,7370,3864,61954,748,2,legacy,720,1366,24,768,24,0,0,1366,1632959142453,5,1024,2,48000,-16,experiment,0,even,Linux x86_64,4,515534,424990,,512271,77,513313,468521,77,7450,88208,517549,514319,518297,77,517549,Sternberg_updated,54,68612,64,yes,1024
85,85,1064,1064,black,no,experiment,Mozilla,Netscape,"5.0 (X11; CrOS x86_64 13729.45.0) AppleWebKit/537.36 (KHTML, like Gecko) Chrome/89.0.4389.82 Safari/537.36",legacy,legacy,legacy,0,uniform,1,1,right,64,64,64,64,0,0,0,64,64,0,0,0,64,64,64,0,0,64,64,0,30-08-21,29-08-21,01:44:04,Thu Sep 30 2021 01:44:04 GMT+0200 (Central European Summer Time),The main experiment item,yes,0,0,/Users/ethan/Documents/GitHub/OpenSesame/Sternberg/experiment_files,0,0,0,no,mono,no,18,no,white,no,no,768,94,3.6.1,legacy,legacy,7 8 6 3 1,osweb,1.4.0,1,5,y,36,,0,right,space,,space,space,space,right,529,39083,,7370,3864,61954,529,2,legacy,720,1366,24,768,24,0,0,1366,1632959142453,5,1024,2,48000,-16,experiment,0,even,Linux x86_64,1,521561,424990,,518302,77,519340,468521,77,7450,88208,523576,520346,524109,77,523576,Sternberg_updated,55,69141,65,yes,1024
85,85,1058,1058,black,no,experiment,Mozilla,Netscape,"5.0 (X11; CrOS x86_64 13729.45.0) AppleWebKit/537.36 (KHTML, like Gecko) Chrome/89.0.4389.82 Safari/537.36",legacy,legacy,legacy,0,uniform,1,1,right,65,65,65,65,0,0,0,65,65,0,0,0,65,65,65,0,0,65,65,0,30-08-21,29-08-21,01:44:04,Thu Sep 30 2021 01:44:04 GMT+0200 (Central European Summer Time),The main experiment item,yes,0,0,/Users/ethan/Documents/GitHub/OpenSesame/Sternberg/experiment_files,0,0,0,no,mono,no,18,no,white,no,no,768,94,3.6.1,legacy,legacy,5 7 3 6 2,osweb,1.4.0,1,5,y,36,,0,right,space,,space,space,space,right,698,39083,,7370,3864,61954,698,2,legacy,720,1366,24,768,24,0,0,1366,1632959142453,5,1024,2,48000,-16,experiment,0,even,Linux x86_64,2,527372,424990,,524111,77,525149,468521,77,7450,88208,529387,526158,530086,77,529387,Sternberg_updated,56,69839,66,yes,1024
85,85,1056,1056,black,no,experiment,Mozilla,Netscape,"5.0 (X11; CrOS x86_64 13729.45.0) AppleWebKit/537.36 (KHTML, like Gecko) Chrome/89.0.4389.82 Safari/537.36",legacy,legacy,legacy,0,uniform,1,1,right,66,66,66,66,0,0,0,66,66,0,0,0,66,66,66,0,0,66,66,0,30-08-21,29-08-21,01:44:04,Thu Sep 30 2021 01:44:04 GMT+0200 (Central European Summer Time),The main experiment item,yes,0,0,/Users/ethan/Documents/GitHub/OpenSesame/Sternberg/experiment_files,0,0,0,no,mono,no,18,no,white,no,no,768,94,3.6.1,legacy,legacy,9 5 3 8 4,osweb,1.4.0,1,1,y,36,,0,right,space,,space,space,space,right,887,39083,,7370,3864,61954,887,2,legacy,720,1366,24,768,24,0,0,1366,1632959142453,5,1024,2,48000,-16,experiment,0,even,Linux x86_64,9,533351,424990,,530087,77,531127,468521,77,7450,88208,535365,532134,536263,77,535365,Sternberg_updated,57,70726,67,yes,1024
85,85,1054,1054,black,no,experiment,Mozilla,Netscape,"5.0 (X11; CrOS x86_64 13729.45.0) AppleWebKit/537.36 (KHTML, like Gecko) Chrome/89.0.4389.82 Safari/537.36",legacy,legacy,legacy,0,uniform,1,1,left,67,67,67,67,0,0,0,67,67,0,0,0,67,67,67,0,0,67,67,0,30-08-21,29-08-21,01:44:04,Thu Sep 30 2021 01:44:04 GMT+0200 (Central European Summer Time),The main experiment item,yes,0,0,/Users/ethan/Documents/GitHub/OpenSesame/Sternberg/experiment_files,0,0,0,no,mono,no,18,no,white,no,no,768,94,3.6.1,legacy,legacy,7 8 6 1,osweb,1.4.0,1,0,n,36,,0,left,space,,space,space,space,left,934,39083,,7370,3864,61954,934,2,legacy,720,1366,24,768,24,0,0,1366,1632959142453,4,1024,2,48000,-16,experiment,0,even,Linux x86_64,3,539527,424990,,536265,77,537302,468521,77,7450,88208,541542,538312,542491,77,541542,Sternberg_updated,58,71660,68,yes,1024
86,86,1049,1049,black,no,experiment,Mozilla,Netscape,"5.0 (X11; CrOS x86_64 13729.45.0) AppleWebKit/537.36 (KHTML, like Gecko) Chrome/89.0.4389.82 Safari/537.36",legacy,legacy,legacy,0,uniform,1,1,right,68,68,68,68,0,0,0,68,68,0,0,0,68,68,68,0,0,68,68,0,30-08-21,29-08-21,01:44:04,Thu Sep 30 2021 01:44:04 GMT+0200 (Central European Summer Time),The main experiment item,yes,0,0,/Users/ethan/Documents/GitHub/OpenSesame/Sternberg/experiment_files,0,0,0,no,mono,no,18,no,white,no,no,768,94,3.6.1,legacy,legacy,8,osweb,1.4.0,1,1,y,36,,0,right,space,,space,space,space,right,703,39083,,7370,3864,61954,703,2,legacy,720,1366,24,768,24,0,0,1366,1632959142453,1,1024,2,48000,-16,experiment,0,even,Linux x86_64,8,545771,424990,,542492,77,543538,468521,77,7450,88208,547786,544556,548501,77,547786,Sternberg_updated,59,72363,69,yes,1024
84,84,1054,1054,black,no,experiment,Mozilla,Netscape,"5.0 (X11; CrOS x86_64 13729.45.0) AppleWebKit/537.36 (KHTML, like Gecko) Chrome/89.0.4389.82 Safari/537.36",legacy,legacy,legacy,0,uniform,0,0,right,69,69,69,69,0,0,0,69,69,0,0,0,69,69,69,0,0,69,69,0,30-08-21,29-08-21,01:44:04,Thu Sep 30 2021 01:44:04 GMT+0200 (Central European Summer Time),The main experiment item,yes,0,0,/Users/ethan/Documents/GitHub/OpenSesame/Sternberg/experiment_files,0,0,0,no,mono,no,18,no,white,no,no,768,94,3.6.1,legacy,legacy,9 3 8 2 1 4,osweb,1.4.0,1,3,y,36,,0,left,space,,space,space,space,left,1407,39083,,7370,3864,61954,1407,2,legacy,720,1366,24,768,24,0,0,1366,1632959142453,6,1024,2,48000,-16,experiment,0,even,Linux x86_64,8,551765,424990,,548504,77,549544,468521,77,7450,88208,553780,550550,555195,77,553780,Sternberg_updated,59,73770,70,yes,1024
83,83,1053,1053,black,no,experiment,Mozilla,Netscape,"5.0 (X11; CrOS x86_64 13729.45.0) AppleWebKit/537.36 (KHTML, like Gecko) Chrome/89.0.4389.82 Safari/537.36",legacy,legacy,legacy,0,uniform,0,0,right,70,70,70,70,0,0,0,70,70,0,0,0,70,70,70,0,0,70,70,0,30-08-21,29-08-21,01:44:04,Thu Sep 30 2021 01:44:04 GMT+0200 (Central European Summer Time),The main experiment item,yes,0,0,/Users/ethan/Documents/GitHub/OpenSesame/Sternberg/experiment_files,0,0,0,no,mono,no,18,no,white,no,no,768,94,3.6.1,legacy,legacy,3 5 4 7,osweb,1.4.0,1,1,y,36,,0,left,space,,space,space,space,left,1000,39083,,7370,3864,61954,1000,2,legacy,720,1366,24,768,24,0,0,1366,1632959142453,4,1024,2,48000,-16,experiment,0,even,Linux x86_64,3,558459,424990,,548504,77,556233,555196,77,7450,88208,560476,557243,561489,77,560476,Sternberg_updated,59,74770,71,yes,1024
82,82,1064,1064,black,no,experiment,Mozilla,Netscape,"5.0 (X11; CrOS x86_64 13729.45.0) AppleWebKit/537.36 (KHTML, like Gecko) Chrome/89.0.4389.82 Safari/537.36",legacy,legacy,legacy,0,uniform,0,0,right,71,71,71,71,0,0,0,71,71,0,0,0,71,71,71,0,0,71,71,0,30-08-21,29-08-21,01:44:04,Thu Sep 30 2021 01:44:04 GMT+0200 (Central European Summer Time),The main experiment item,yes,0,0,/Users/ethan/Documents/GitHub/OpenSesame/Sternberg/experiment_files,0,0,0,no,mono,no,18,no,white,no,no,768,94,3.6.1,legacy,legacy,1 4 9 3 2 5,osweb,1.4.0,1,3,y,36,,0,left,space,,space,space,space,left,1860,39083,,7370,3864,61954,1860,2,legacy,720,1366,24,768,24,0,0,1366,1632959142453,6,1024,2,48000,-16,experiment,0,even,Linux x86_64,9,564753,424990,,548504,77,562532,561492,77,7450,88208,566767,563537,568632,77,566767,Sternberg_updated,59,76630,72,yes,1024
82,82,1074,1074,black,no,experiment,Mozilla,Netscape,"5.0 (X11; CrOS x86_64 13729.45.0) AppleWebKit/537.36 (KHTML, like Gecko) Chrome/89.0.4389.82 Safari/537.36",legacy,legacy,legacy,0,uniform,1,1,left,72,72,72,72,0,0,0,72,72,0,0,0,72,72,72,0,0,72,72,0,30-08-21,29-08-21,01:44:04,Thu Sep 30 2021 01:44:04 GMT+0200 (Central European Summer Time),The main experiment item,yes,0,0,/Users/ethan/Documents/GitHub/OpenSesame/Sternberg/experiment_files,0,0,0,no,mono,no,18,no,white,no,no,768,94,3.6.1,legacy,legacy,2 5 1 4,osweb,1.4.0,1,0,n,36,,0,left,space,,space,space,space,left,1761,39083,,7370,3864,61954,1761,2,legacy,720,1366,24,768,24,0,0,1366,1632959142453,4,1024,2,48000,-16,experiment,0,even,Linux x86_64,6,571895,424990,,548504,77,569672,568634,77,7450,88208,573910,570680,575675,77,573910,Sternberg_updated,60,78391,73,yes,1024
82,82,1073,1073,black,no,experiment,Mozilla,Netscape,"5.0 (X11; CrOS x86_64 13729.45.0) AppleWebKit/537.36 (KHTML, like Gecko) Chrome/89.0.4389.82 Safari/537.36",legacy,legacy,legacy,0,uniform,1,1,right,73,73,73,73,0,0,0,73,73,0,0,0,73,73,73,0,0,73,73,0,30-08-21,29-08-21,01:44:04,Thu Sep 30 2021 01:44:04 GMT+0200 (Central European Summer Time),The main experiment item,yes,0,0,/Users/ethan/Documents/GitHub/OpenSesame/Sternberg/experiment_files,0,0,0,no,mono,no,18,no,white,no,no,768,94,3.6.1,legacy,legacy,3 5 9 6 2 4,osweb,1.4.0,1,1,y,36,,0,right,space,,space,space,space,right,1017,39083,,7370,3864,61954,1017,2,legacy,720,1366,24,768,24,0,0,1366,1632959142453,6,1024,2,48000,-16,experiment,0,even,Linux x86_64,3,578939,424990,,575676,77,576712,568634,77,7450,88208,580954,577723,581985,77,580954,Sternberg_updated,61,79408,74,yes,1024
83,83,1076,1076,black,no,experiment,Mozilla,Netscape,"5.0 (X11; CrOS x86_64 13729.45.0) AppleWebKit/537.36 (KHTML, like Gecko) Chrome/89.0.4389.82 Safari/537.36",legacy,legacy,legacy,0,uniform,1,1,left,74,74,74,74,0,0,0,74,74,0,0,0,74,74,74,0,0,74,74,0,30-08-21,29-08-21,01:44:04,Thu Sep 30 2021 01:44:04 GMT+0200 (Central European Summer Time),The main experiment item,yes,0,0,/Users/ethan/Documents/GitHub/OpenSesame/Sternberg/experiment_files,0,0,0,no,mono,no,18,no,white,no,no,768,94,3.6.1,legacy,legacy,1 4 9 3,osweb,1.4.0,1,0,n,36,,0,left,space,,space,space,space,left,1267,39083,,7370,3864,61954,1267,2,legacy,720,1366,24,768,24,0,0,1366,1632959142453,4,1024,2,48000,-16,experiment,0,even,Linux x86_64,5,585249,424990,,581986,77,583026,568634,77,7450,88208,587264,584033,588531,77,587264,Sternberg_updated,62,80675,75,yes,1024
83,83,1078,1078,black,no,experiment,Mozilla,Netscape,"5.0 (X11; CrOS x86_64 13729.45.0) AppleWebKit/537.36 (KHTML, like Gecko) Chrome/89.0.4389.82 Safari/537.36",legacy,legacy,legacy,0,uniform,1,1,left,75,75,75,75,0,0,0,75,75,0,0,0,75,75,75,0,0,75,75,0,30-08-21,29-08-21,01:44:04,Thu Sep 30 2021 01:44:04 GMT+0200 (Central European Summer Time),The main experiment item,yes,0,0,/Users/ethan/Documents/GitHub/OpenSesame/Sternberg/experiment_files,0,0,0,no,mono,no,18,no,white,no,no,768,94,3.6.1,legacy,legacy,2 8 9 4 1,osweb,1.4.0,1,0,n,36,,0,left,space,,space,space,space,left,1253,39083,,7370,3864,61954,1253,2,legacy,720,1366,24,768,24,0,0,1366,1632959142453,5,1024,2,48000,-16,experiment,0,even,Linux x86_64,5,591793,424990,,588533,77,589574,568634,77,7450,88208,593809,590577,595073,77,593809,Sternberg_updated,63,81928,76,yes,1024
83,83,1084,1084,black,no,experiment,Mozilla,Netscape,"5.0 (X11; CrOS x86_64 13729.45.0) AppleWebKit/537.36 (KHTML, like Gecko) Chrome/89.0.4389.82 Safari/537.36",legacy,legacy,legacy,0,uniform,1,1,right,76,76,76,76,0,0,0,76,76,0,0,0,76,76,76,0,0,76,76,0,30-08-21,29-08-21,01:44:04,Thu Sep 30 2021 01:44:04 GMT+0200 (Central European Summer Time),The main experiment item,yes,0,0,/Users/ethan/Documents/GitHub/OpenSesame/Sternberg/experiment_files,0,0,0,no,mono,no,18,no,white,no,no,768,94,3.6.1,legacy,legacy,9 1 7 2,osweb,1.4.0,1,2,y,36,,0,right,space,,space,space,space,right,1512,39083,,7370,3864,61954,1512,2,legacy,720,1366,24,768,24,0,0,1366,1632959142453,4,1024,2,48000,-16,experiment,0,even,Linux x86_64,1,598337,424990,,595075,77,596113,568634,77,7450,88208,600353,597123,601866,77,600353,Sternberg_updated,64,83440,77,yes,1024
82,82,1086,1086,black,no,experiment,Mozilla,Netscape,"5.0 (X11; CrOS x86_64 13729.45.0) AppleWebKit/537.36 (KHTML, like Gecko) Chrome/89.0.4389.82 Safari/537.36",legacy,legacy,legacy,0,uniform,0,0,right,77,77,77,77,0,0,0,77,77,0,0,0,77,77,77,0,0,77,77,0,30-08-21,29-08-21,01:44:04,Thu Sep 30 2021 01:44:04 GMT+0200 (Central European Summer Time),The main experiment item,yes,0,0,/Users/ethan/Documents/GitHub/OpenSesame/Sternberg/experiment_files,0,0,0,no,mono,no,18,no,white,no,no,768,94,3.6.1,legacy,legacy,9 5 8 1,osweb,1.4.0,1,2,y,36,,0,left,space,,space,space,space,left,1274,39083,,7370,3864,61954,1274,2,legacy,720,1366,24,768,24,0,0,1366,1632959142453,4,1024,2,48000,-16,experiment,0,even,Linux x86_64,5,605130,424990,,601867,77,602907,568634,77,7450,88208,607145,603914,608426,77,607145,Sternberg_updated,64,84714,78,yes,1024
82,82,1088,1088,black,no,experiment,Mozilla,Netscape,"5.0 (X11; CrOS x86_64 13729.45.0) AppleWebKit/537.36 (KHTML, like Gecko) Chrome/89.0.4389.82 Safari/537.36",legacy,legacy,legacy,0,uniform,1,1,left,78,78,78,78,0,0,0,78,78,0,0,0,78,78,78,0,0,78,78,0,30-08-21,29-08-21,01:44:04,Thu Sep 30 2021 01:44:04 GMT+0200 (Central European Summer Time),The main experiment item,yes,0,0,/Users/ethan/Documents/GitHub/OpenSesame/Sternberg/experiment_files,0,0,0,no,mono,no,18,no,white,no,no,768,94,3.6.1,legacy,legacy,7 6 4 8 1 2,osweb,1.4.0,1,0,n,36,,0,left,space,,space,space,space,left,1272,39083,,7370,3864,61954,1272,2,legacy,720,1366,24,768,24,0,0,1366,1632959142453,6,1024,2,48000,-16,experiment,0,even,Linux x86_64,9,611690,424990,,601867,77,609467,608428,77,7450,88208,613706,610474,614986,77,613705,Sternberg_updated,65,85986,79,yes,1024
83,83,1088,1088,black,no,experiment,Mozilla,Netscape,"5.0 (X11; CrOS x86_64 13729.45.0) AppleWebKit/537.36 (KHTML, like Gecko) Chrome/89.0.4389.82 Safari/537.36",legacy,legacy,legacy,0,uniform,1,1,right,79,79,79,79,0,0,0,79,79,0,0,0,79,79,79,0,0,79,79,0,30-08-21,29-08-21,01:44:04,Thu Sep 30 2021 01:44:04 GMT+0200 (Central European Summer Time),The main experiment item,yes,0,0,/Users/ethan/Documents/GitHub/OpenSesame/Sternberg/experiment_files,0,0,0,no,mono,no,18,no,white,no,no,768,94,3.6.1,legacy,legacy,2 4 6 9,osweb,1.4.0,1,3,y,36,,0,right,space,,space,space,space,right,1090,39083,,7370,3864,61954,1090,2,legacy,720,1366,24,768,24,0,0,1366,1632959142453,4,1024,2,48000,-16,experiment,0,even,Linux x86_64,6,618250,424990,,614989,77,616025,608428,77,7450,88208,620265,617035,621364,77,620265,Sternberg_updated,66,87076,80,yes,1024
83,83,1082,1082,black,no,experiment,Mozilla,Netscape,"5.0 (X11; CrOS x86_64 13729.45.0) AppleWebKit/537.36 (KHTML, like Gecko) Chrome/89.0.4389.82 Safari/537.36",legacy,legacy,legacy,0,uniform,1,1,right,80,80,80,80,0,0,0,80,80,0,0,0,80,80,80,0,0,80,80,0,30-08-21,29-08-21,01:44:04,Thu Sep 30 2021 01:44:04 GMT+0200 (Central European Summer Time),The main experiment item,yes,0,0,/Users/ethan/Documents/GitHub/OpenSesame/Sternberg/experiment_files,0,0,0,no,mono,no,18,no,white,no,no,768,94,3.6.1,legacy,legacy,2 3,osweb,1.4.0,1,1,y,36,,0,right,space,,space,space,space,right,562,39083,,7370,3864,61954,562,2,legacy,720,1366,24,768,24,0,0,1366,1632959142453,2,1024,2,48000,-16,experiment,0,even,Linux x86_64,2,624627,424990,,621365,77,622402,608428,77,7450,88208,626642,623412,627208,77,626642,Sternberg_updated,67,87638,81,yes,1024
83,83,1082,1082,black,no,experiment,Mozilla,Netscape,"5.0 (X11; CrOS x86_64 13729.45.0) AppleWebKit/537.36 (KHTML, like Gecko) Chrome/89.0.4389.82 Safari/537.36",legacy,legacy,legacy,0,uniform,1,1,left,81,81,81,81,0,0,0,81,81,0,0,0,81,81,81,0,0,81,81,0,30-08-21,29-08-21,01:44:04,Thu Sep 30 2021 01:44:04 GMT+0200 (Central European Summer Time),The main experiment item,yes,0,0,/Users/ethan/Documents/GitHub/OpenSesame/Sternberg/experiment_files,0,0,0,no,mono,no,18,no,white,no,no,768,94,3.6.1,legacy,legacy,9 8 2 7 4,osweb,1.4.0,1,0,n,36,,0,left,space,,space,space,space,left,1082,39083,,7370,3864,61954,1082,2,legacy,720,1366,24,768,24,0,0,1366,1632959142453,5,1024,2,48000,-16,experiment,0,even,Linux x86_64,5,630471,424990,,627209,77,628249,608428,77,7450,88208,632488,629258,633585,77,632488,Sternberg_updated,68,88720,82,yes,1024
83,83,1077,1077,black,no,experiment,Mozilla,Netscape,"5.0 (X11; CrOS x86_64 13729.45.0) AppleWebKit/537.36 (KHTML, like Gecko) Chrome/89.0.4389.82 Safari/537.36",legacy,legacy,legacy,0,uniform,1,1,right,82,82,82,82,0,0,0,82,82,0,0,0,82,82,82,0,0,82,82,0,30-08-21,29-08-21,01:44:04,Thu Sep 30 2021 01:44:04 GMT+0200 (Central European Summer Time),The main experiment item,yes,0,0,/Users/ethan/Documents/GitHub/OpenSesame/Sternberg/experiment_files,0,0,0,no,mono,no,18,no,white,no,no,768,94,3.6.1,legacy,legacy,8 5 3 7 4 6,osweb,1.4.0,1,6,y,36,,0,right,space,,space,space,space,right,643,39083,,7370,3864,61954,643,2,legacy,720,1366,24,768,24,0,0,1366,1632959142453,6,1024,2,48000,-16,experiment,0,even,Linux x86_64,6,636849,424990,,633586,77,634623,608428,77,7450,88208,638864,635633,639512,77,638864,Sternberg_updated,69,89363,83,yes,1024
83,83,1072,1072,black,no,experiment,Mozilla,Netscape,"5.0 (X11; CrOS x86_64 13729.45.0) AppleWebKit/537.36 (KHTML, like Gecko) Chrome/89.0.4389.82 Safari/537.36",legacy,legacy,legacy,0,uniform,1,1,right,83,83,83,83,0,0,0,83,83,0,0,0,83,83,83,0,0,83,83,0,30-08-21,29-08-21,01:44:04,Thu Sep 30 2021 01:44:04 GMT+0200 (Central European Summer Time),The main experiment item,yes,0,0,/Users/ethan/Documents/GitHub/OpenSesame/Sternberg/experiment_files,0,0,0,no,mono,no,18,no,white,no,no,768,94,3.6.1,legacy,legacy,9 8 4,osweb,1.4.0,1,1,y,36,,0,right,space,,space,space,space,right,686,39083,,7370,3864,61954,686,2,legacy,720,1366,24,768,24,0,0,1366,1632959142453,3,1024,2,48000,-16,experiment,0,even,Linux x86_64,9,642776,424990,,639514,77,640553,608428,77,7450,88208,644791,641560,645490,77,644791,Sternberg_updated,70,90049,84,yes,1024
84,84,1071,1071,black,no,experiment,Mozilla,Netscape,"5.0 (X11; CrOS x86_64 13729.45.0) AppleWebKit/537.36 (KHTML, like Gecko) Chrome/89.0.4389.82 Safari/537.36",legacy,legacy,legacy,0,uniform,1,1,right,84,84,84,84,0,0,0,84,84,0,0,0,84,84,84,0,0,84,84,0,30-08-21,29-08-21,01:44:04,Thu Sep 30 2021 01:44:04 GMT+0200 (Central European Summer Time),The main experiment item,yes,0,0,/Users/ethan/Documents/GitHub/OpenSesame/Sternberg/experiment_files,0,0,0,no,mono,no,18,no,white,no,no,768,94,3.6.1,legacy,legacy,8 3,osweb,1.4.0,1,2,y,36,,0,right,space,,space,space,space,right,1004,39083,,7370,3864,61954,1004,2,legacy,720,1366,24,768,24,0,0,1366,1632959142453,2,1024,2,48000,-16,experiment,0,even,Linux x86_64,3,648754,424990,,645491,77,646533,608428,77,7450,88208,650770,647538,651784,77,650770,Sternberg_updated,71,91053,85,yes,1024
84,84,1068,1068,black,no,experiment,Mozilla,Netscape,"5.0 (X11; CrOS x86_64 13729.45.0) AppleWebKit/537.36 (KHTML, like Gecko) Chrome/89.0.4389.82 Safari/537.36",legacy,legacy,legacy,0,uniform,1,1,left,85,85,85,85,0,0,0,85,85,0,0,0,85,85,85,0,0,85,85,0,30-08-21,29-08-21,01:44:04,Thu Sep 30 2021 01:44:04 GMT+0200 (Central European Summer Time),The main experiment item,yes,0,0,/Users/ethan/Documents/GitHub/OpenSesame/Sternberg/experiment_files,0,0,0,no,mono,no,18,no,white,no,no,768,94,3.6.1,legacy,legacy,5 7 3,osweb,1.4.0,1,0,n,36,,0,left,space,,space,space,space,left,807,39083,,7370,3864,61954,807,2,legacy,720,1366,24,768,24,0,0,1366,1632959142453,3,1024,2,48000,-16,experiment,0,even,Linux x86_64,9,655064,424990,,651785,77,652832,608428,77,7450,88208,657079,653849,657894,77,657079,Sternberg_updated,72,91860,86,yes,1024
84,84,1063,1063,black,no,experiment,Mozilla,Netscape,"5.0 (X11; CrOS x86_64 13729.45.0) AppleWebKit/537.36 (KHTML, like Gecko) Chrome/89.0.4389.82 Safari/537.36",legacy,legacy,legacy,0,uniform,1,1,right,86,86,86,86,0,0,0,86,86,0,0,0,86,86,86,0,0,86,86,0,30-08-21,29-08-21,01:44:04,Thu Sep 30 2021 01:44:04 GMT+0200 (Central European Summer Time),The main experiment item,yes,0,0,/Users/ethan/Documents/GitHub/OpenSesame/Sternberg/experiment_files,0,0,0,no,mono,no,18,no,white,no,no,768,94,3.6.1,legacy,legacy,4 7 6 8 2 3,osweb,1.4.0,1,6,y,36,,0,right,space,,space,space,space,right,647,39083,,7370,3864,61954,647,2,legacy,720,1366,24,768,24,0,0,1366,1632959142453,6,1024,2,48000,-16,experiment,0,even,Linux x86_64,3,661158,424990,,657897,77,658934,608428,77,7450,88208,663173,659943,663821,77,663173,Sternberg_updated,73,92507,87,yes,1024
84,84,1064,1064,black,no,experiment,Mozilla,Netscape,"5.0 (X11; CrOS x86_64 13729.45.0) AppleWebKit/537.36 (KHTML, like Gecko) Chrome/89.0.4389.82 Safari/537.36",legacy,legacy,legacy,0,uniform,1,1,left,87,87,87,87,0,0,0,87,87,0,0,0,87,87,87,0,0,87,87,0,30-08-21,29-08-21,01:44:04,Thu Sep 30 2021 01:44:04 GMT+0200 (Central European Summer Time),The main experiment item,yes,0,0,/Users/ethan/Documents/GitHub/OpenSesame/Sternberg/experiment_files,0,0,0,no,mono,no,18,no,white,no,no,768,94,3.6.1,legacy,legacy,8 6 3 4 7,osweb,1.4.0,1,0,n,36,,0,left,space,,space,space,space,left,1090,39083,,7370,3864,61954,1090,2,legacy,720,1366,24,768,24,0,0,1366,1632959142453,5,1024,2,48000,-16,experiment,0,even,Linux x86_64,1,667086,424990,,663823,77,664864,608428,77,7450,88208,669100,665870,670199,77,669100,Sternberg_updated,74,93597,88,yes,1024
84,84,1065,1065,black,no,experiment,Mozilla,Netscape,"5.0 (X11; CrOS x86_64 13729.45.0) AppleWebKit/537.36 (KHTML, like Gecko) Chrome/89.0.4389.82 Safari/537.36",legacy,legacy,legacy,0,uniform,1,1,left,88,88,88,88,0,0,0,88,88,0,0,0,88,88,88,0,0,88,88,0,30-08-21,29-08-21,01:44:04,Thu Sep 30 2021 01:44:04 GMT+0200 (Central European Summer Time),The main experiment item,yes,0,0,/Users/ethan/Documents/GitHub/OpenSesame/Sternberg/experiment_files,0,0,0,no,mono,no,18,no,white,no,no,768,94,3.6.1,legacy,legacy,1 4 9 2 5,osweb,1.4.0,1,0,n,36,,0,left,space,,space,space,space,left,1159,39083,,7370,3864,61954,1159,2,legacy,720,1366,24,768,24,0,0,1366,1632959142453,5,1024,2,48000,-16,experiment,0,even,Linux x86_64,7,673463,424990,,670200,77,671236,608428,77,7450,88208,675480,672247,676643,77,675480,Sternberg_updated,75,94756,89,yes,1024
84,84,1066,1066,black,no,experiment,Mozilla,Netscape,"5.0 (X11; CrOS x86_64 13729.45.0) AppleWebKit/537.36 (KHTML, like Gecko) Chrome/89.0.4389.82 Safari/537.36",legacy,legacy,legacy,0,uniform,1,1,left,89,89,89,89,0,0,0,89,89,0,0,0,89,89,89,0,0,89,89,0,30-08-21,29-08-21,01:44:04,Thu Sep 30 2021 01:44:04 GMT+0200 (Central European Summer Time),The main experiment item,yes,0,0,/Users/ethan/Documents/GitHub/OpenSesame/Sternberg/experiment_files,0,0,0,no,mono,no,18,no,white,no,no,768,94,3.6.1,legacy,legacy,3 4 9 6 7 8,osweb,1.4.0,1,0,n,36,,0,left,space,,space,space,space,left,1160,39083,,7370,3864,61954,1160,2,legacy,720,1366,24,768,24,0,0,1366,1632959142453,6,1024,2,48000,-16,experiment,0,even,Linux x86_64,2,679906,424990,,676644,77,677683,608428,77,7450,88208,681921,678691,683086,77,681921,Sternberg_updated,76,95916,90,yes,1024
85,85,1071,1071,black,no,experiment,Mozilla,Netscape,"5.0 (X11; CrOS x86_64 13729.45.0) AppleWebKit/537.36 (KHTML, like Gecko) Chrome/89.0.4389.82 Safari/537.36",legacy,legacy,legacy,0,uniform,1,1,right,90,90,90,90,0,0,0,90,90,0,0,0,90,90,90,0,0,90,90,0,30-08-21,29-08-21,01:44:04,Thu Sep 30 2021 01:44:04 GMT+0200 (Central European Summer Time),The main experiment item,yes,0,0,/Users/ethan/Documents/GitHub/OpenSesame/Sternberg/experiment_files,0,0,0,no,mono,no,18,no,white,no,no,768,94,3.6.1,legacy,legacy,4 3 2 5 8,osweb,1.4.0,1,2,y,36,,0,right,space,,space,space,space,right,1571,39083,,7370,3864,61954,1571,2,legacy,720,1366,24,768,24,0,0,1366,1632959142453,5,1024,2,48000,-16,experiment,0,even,Linux x86_64,3,686350,424990,,683088,77,684131,608428,77,7450,88208,688367,685135,689946,77,688367,Sternberg_updated,77,97487,91,yes,1024
85,85,1072,1072,black,no,experiment,Mozilla,Netscape,"5.0 (X11; CrOS x86_64 13729.45.0) AppleWebKit/537.36 (KHTML, like Gecko) Chrome/89.0.4389.82 Safari/537.36",legacy,legacy,legacy,0,uniform,1,1,right,91,91,91,91,0,0,0,91,91,0,0,0,91,91,91,0,0,91,91,0,30-08-21,29-08-21,01:44:04,Thu Sep 30 2021 01:44:04 GMT+0200 (Central European Summer Time),The main experiment item,yes,0,0,/Users/ethan/Documents/GitHub/OpenSesame/Sternberg/experiment_files,0,0,0,no,mono,no,18,no,white,no,no,768,94,3.6.1,legacy,legacy,3 9 6 2,osweb,1.4.0,1,4,y,36,,0,right,space,,space,space,space,right,1119,39083,,7370,3864,61954,1119,2,legacy,720,1366,24,768,24,0,0,1366,1632959142453,4,1024,2,48000,-16,experiment,0,even,Linux x86_64,2,693210,424990,,689951,77,690987,608428,77,7450,88208,695226,691995,696357,77,695225,Sternberg_updated,78,98606,92,yes,1024
85,85,1068,1068,black,no,experiment,Mozilla,Netscape,"5.0 (X11; CrOS x86_64 13729.45.0) AppleWebKit/537.36 (KHTML, like Gecko) Chrome/89.0.4389.82 Safari/537.36",legacy,legacy,legacy,0,uniform,1,1,left,92,92,92,92,0,0,0,92,92,0,0,0,92,92,92,0,0,92,92,0,30-08-21,29-08-21,01:44:04,Thu Sep 30 2021 01:44:04 GMT+0200 (Central European Summer Time),The main experiment item,yes,0,0,/Users/ethan/Documents/GitHub/OpenSesame/Sternberg/experiment_files,0,0,0,no,mono,no,18,no,white,no,no,768,94,3.6.1,legacy,legacy,4 8 1 2,osweb,1.4.0,1,0,n,36,,0,left,space,,space,space,space,left,748,39083,,7370,3864,61954,748,2,legacy,720,1366,24,768,24,0,0,1366,1632959142453,4,1024,2,48000,-16,experiment,0,even,Linux x86_64,7,699620,424990,,696359,77,697395,608428,77,7450,88208,701636,698405,702401,77,701636,Sternberg_updated,79,99354,93,yes,1024
85,85,1067,1067,black,no,experiment,Mozilla,Netscape,"5.0 (X11; CrOS x86_64 13729.45.0) AppleWebKit/537.36 (KHTML, like Gecko) Chrome/89.0.4389.82 Safari/537.36",legacy,legacy,legacy,0,uniform,1,1,left,93,93,93,93,0,0,0,93,93,0,0,0,93,93,93,0,0,93,93,0,30-08-21,29-08-21,01:44:04,Thu Sep 30 2021 01:44:04 GMT+0200 (Central European Summer Time),The main experiment item,yes,0,0,/Users/ethan/Documents/GitHub/OpenSesame/Sternberg/experiment_files,0,0,0,no,mono,no,18,no,white,no,no,768,94,3.6.1,legacy,legacy,6 9 4 5 3 2,osweb,1.4.0,1,0,n,36,,0,left,space,,space,space,space,left,949,39083,,7370,3864,61954,949,2,legacy,720,1366,24,768,24,0,0,1366,1632959142453,6,1024,2,48000,-16,experiment,0,even,Linux x86_64,8,705665,424990,,702403,77,703444,608428,77,7450,88208,707679,704449,708628,77,707679,Sternberg_updated,80,100303,94,yes,1024
85,85,1068,1068,black,no,experiment,Mozilla,Netscape,"5.0 (X11; CrOS x86_64 13729.45.0) AppleWebKit/537.36 (KHTML, like Gecko) Chrome/89.0.4389.82 Safari/537.36",legacy,legacy,legacy,0,uniform,1,1,left,94,94,94,94,0,0,0,94,94,0,0,0,94,94,94,0,0,94,94,0,30-08-21,29-08-21,01:44:04,Thu Sep 30 2021 01:44:04 GMT+0200 (Central European Summer Time),The main experiment item,yes,0,0,/Users/ethan/Documents/GitHub/OpenSesame/Sternberg/experiment_files,0,0,0,no,mono,no,18,no,white,no,no,768,94,3.6.1,legacy,legacy,1 7 5 2,osweb,1.4.0,1,0,n,36,,0,left,space,,space,space,space,left,1128,39083,,7370,3864,61954,1128,2,legacy,720,1366,24,768,24,0,0,1366,1632959142453,4,1024,2,48000,-16,experiment,0,even,Linux x86_64,3,711892,424990,,708630,77,709670,608428,77,7450,88208,713907,710677,715039,77,713907,Sternberg_updated,81,101431,95,yes,1024
85,85,1070,1070,black,no,experiment,Mozilla,Netscape,"5.0 (X11; CrOS x86_64 13729.45.0) AppleWebKit/537.36 (KHTML, like Gecko) Chrome/89.0.4389.82 Safari/537.36",legacy,legacy,legacy,0,uniform,1,1,left,95,95,95,95,0,0,0,95,95,0,0,0,95,95,95,0,0,95,95,0,30-08-21,29-08-21,01:44:04,Thu Sep 30 2021 01:44:04 GMT+0200 (Central European Summer Time),The main experiment item,yes,0,0,/Users/ethan/Documents/GitHub/OpenSesame/Sternberg/experiment_files,0,0,0,no,mono,no,18,no,white,no,no,768,94,3.6.1,legacy,legacy,7 9,osweb,1.4.0,1,0,n,36,,0,left,space,,space,space,space,left,1270,39083,,7370,3864,61954,1270,2,legacy,720,1366,24,768,24,0,0,1366,1632959142453,2,1024,2,48000,-16,experiment,0,even,Linux x86_64,1,718302,424990,,715040,77,716083,608428,77,7450,88208,720317,717087,721599,77,720317,Sternberg_updated,82,102701,96,yes,1024
86,86,1070,1070,black,no,experiment,Mozilla,Netscape,"5.0 (X11; CrOS x86_64 13729.45.0) AppleWebKit/537.36 (KHTML, like Gecko) Chrome/89.0.4389.82 Safari/537.36",legacy,legacy,legacy,0,uniform,1,1,left,96,96,96,96,0,0,0,96,96,0,0,0,96,96,96,0,0,96,96,0,30-08-21,29-08-21,01:44:04,Thu Sep 30 2021 01:44:04 GMT+0200 (Central European Summer Time),The main experiment item,yes,0,0,/Users/ethan/Documents/GitHub/OpenSesame/Sternberg/experiment_files,0,0,0,no,mono,no,18,no,white,no,no,768,94,3.6.1,legacy,legacy,1 6 4,osweb,1.4.0,1,0,n,36,,0,left,space,,space,space,space,left,1050,39083,,7370,3864,61954,1050,2,legacy,720,1366,24,768,24,0,0,1366,1632959142453,3,1024,2,48000,-16,experiment,0,even,Linux x86_64,7,724862,424990,,721602,77,722646,608428,77,7450,88208,726877,723647,727928,77,726877,Sternberg_updated,83,103751,97,yes,1024
86,86,1071,1071,black,no,experiment,Mozilla,Netscape,"5.0 (X11; CrOS x86_64 13729.45.0) AppleWebKit/537.36 (KHTML, like Gecko) Chrome/89.0.4389.82 Safari/537.36",legacy,legacy,legacy,0,uniform,1,1,right,97,97,97,97,0,0,0,97,97,0,0,0,97,97,97,0,0,97,97,0,30-08-21,29-08-21,01:44:04,Thu Sep 30 2021 01:44:04 GMT+0200 (Central European Summer Time),The main experiment item,yes,0,0,/Users/ethan/Documents/GitHub/OpenSesame/Sternberg/experiment_files,0,0,0,no,mono,no,18,no,white,no,no,768,94,3.6.1,legacy,legacy,8 9 5 6 7,osweb,1.4.0,1,1,y,36,,0,right,space,enter,space,space,space,right,1184,39083,46537,7370,3864,61954,1184,2,legacy,720,1366,24,768,24,0,0,1366,1632959142453,5,1024,2,48000,-16,experiment,0,even,Linux x86_64,8,777727,424990,728942,727929,77,775504,608428,77,7450,88208,779742,776512,780926,77,779742,Sternberg_updated,84,104935,98,yes,1024
86,86,1069,1069,black,no,experiment,Mozilla,Netscape,"5.0 (X11; CrOS x86_64 13729.45.0) AppleWebKit/537.36 (KHTML, like Gecko) Chrome/89.0.4389.82 Safari/537.36",legacy,legacy,legacy,0,uniform,1,1,left,98,98,98,98,0,0,0,98,98,0,0,0,98,98,98,0,0,98,98,0,30-08-21,29-08-21,01:44:04,Thu Sep 30 2021 01:44:04 GMT+0200 (Central European Summer Time),The main experiment item,yes,0,0,/Users/ethan/Documents/GitHub/OpenSesame/Sternberg/experiment_files,0,0,0,no,mono,no,18,no,white,no,no,768,94,3.6.1,legacy,legacy,5,osweb,1.4.0,1,0,n,36,,0,left,space,enter,space,space,space,left,875,39083,46537,7370,3864,61954,875,2,legacy,720,1366,24,768,24,0,0,1366,1632959142453,1,1024,2,48000,-16,experiment,0,even,Linux x86_64,8,784188,424990,728942,780928,77,781964,608428,77,7450,88208,786203,782972,787084,77,786203,Sternberg_updated,85,105810,99,yes,1024
86,86,1068,1068,black,no,experiment,Mozilla,Netscape,"5.0 (X11; CrOS x86_64 13729.45.0) AppleWebKit/537.36 (KHTML, like Gecko) Chrome/89.0.4389.82 Safari/537.36",legacy,legacy,legacy,0,uniform,1,1,right,99,99,99,99,0,0,0,99,99,0,0,0,99,99,99,0,0,99,99,0,30-08-21,29-08-21,01:44:04,Thu Sep 30 2021 01:44:04 GMT+0200 (Central European Summer Time),The main experiment item,yes,0,0,/Users/ethan/Documents/GitHub/OpenSesame/Sternberg/experiment_files,0,0,0,no,mono,no,18,no,white,no,no,768,94,3.6.1,legacy,legacy,8 1 6,osweb,1.4.0,1,3,y,36,,0,right,space,enter,space,space,space,right,975,39083,46537,7370,3864,61954,975,2,legacy,720,1366,24,768,24,0,0,1366,1632959142453,3,1024,2,48000,-16,experiment,0,even,Linux x86_64,6,790348,424990,728942,787088,77,788123,608428,77,7450,88208,792363,789135,793345,77,792363,Sternberg_updated,86,106785,100,yes,1024
86,86,1073,1073,black,no,experiment,Mozilla,Netscape,"5.0 (X11; CrOS x86_64 13729.45.0) AppleWebKit/537.36 (KHTML, like Gecko) Chrome/89.0.4389.82 Safari/537.36",legacy,legacy,legacy,0,uniform,1,1,right,100,100,100,100,0,0,0,100,100,0,0,0,100,100,100,0,0,100,100,0,30-08-21,29-08-21,01:44:04,Thu Sep 30 2021 01:44:04 GMT+0200 (Central European Summer Time),The main experiment item,yes,0,0,/Users/ethan/Documents/GitHub/OpenSesame/Sternberg/experiment_files,0,0,0,no,mono,no,18,no,white,no,no,768,94,3.6.1,legacy,legacy,4 9 7 8 5 3,osweb,1.4.0,1,4,y,36,,0,right,space,enter,space,space,space,right,1614,39083,46537,7370,3864,61954,1614,2,legacy,720,1366,24,768,24,0,0,1366,1632959142453,6,1024,2,48000,-16,experiment,0,even,Linux x86_64,8,796626,424990,728942,793349,77,794394,608428,77,7450,88208,798640,795410,800255,77,798640,Sternberg_updated,87,108399,101,yes,1024
86,86,1071,1071,black,no,experiment,Mozilla,Netscape,"5.0 (X11; CrOS x86_64 13729.45.0) AppleWebKit/537.36 (KHTML, like Gecko) Chrome/89.0.4389.82 Safari/537.36",legacy,legacy,legacy,0,uniform,1,1,left,101,101,101,101,0,0,0,101,101,0,0,0,101,101,101,0,0,101,101,0,30-08-21,29-08-21,01:44:04,Thu Sep 30 2021 01:44:04 GMT+0200 (Central European Summer Time),The main experiment item,yes,0,0,/Users/ethan/Documents/GitHub/OpenSesame/Sternberg/experiment_files,0,0,0,no,mono,no,18,no,white,no,no,768,94,3.6.1,legacy,legacy,6 8,osweb,1.4.0,1,0,n,36,,0,left,space,enter,space,space,space,left,797,39083,46537,7370,3864,61954,797,2,legacy,720,1366,24,768,24,0,0,1366,1632959142453,2,1024,2,48000,-16,experiment,0,even,Linux x86_64,9,803519,424990,728942,800256,77,801294,608428,77,7450,88208,805533,802303,806333,77,805533,Sternberg_updated,88,109196,102,yes,1024
86,86,1067,1067,black,no,experiment,Mozilla,Netscape,"5.0 (X11; CrOS x86_64 13729.45.0) AppleWebKit/537.36 (KHTML, like Gecko) Chrome/89.0.4389.82 Safari/537.36",legacy,legacy,legacy,0,uniform,1,1,right,102,102,102,102,0,0,0,102,102,0,0,0,102,102,102,0,0,102,102,0,30-08-21,29-08-21,01:44:04,Thu Sep 30 2021 01:44:04 GMT+0200 (Central European Summer Time),The main experiment item,yes,0,0,/Users/ethan/Documents/GitHub/OpenSesame/Sternberg/experiment_files,0,0,0,no,mono,no,18,no,white,no,no,768,94,3.6.1,legacy,legacy,3 4,osweb,1.4.0,1,1,y,36,,0,right,space,enter,space,space,space,right,749,39083,46537,7370,3864,61954,749,2,legacy,720,1366,24,768,24,0,0,1366,1632959142453,2,1024,2,48000,-16,experiment,0,even,Linux x86_64,3,809596,424990,728942,806334,77,807375,608428,77,7450,88208,811611,808381,812376,77,811611,Sternberg_updated,89,109945,103,yes,1024
87,87,1064,1064,black,no,experiment,Mozilla,Netscape,"5.0 (X11; CrOS x86_64 13729.45.0) AppleWebKit/537.36 (KHTML, like Gecko) Chrome/89.0.4389.82 Safari/537.36",legacy,legacy,legacy,0,uniform,1,1,left,103,103,103,103,0,0,0,103,103,0,0,0,103,103,103,0,0,103,103,0,30-08-21,29-08-21,01:44:04,Thu Sep 30 2021 01:44:04 GMT+0200 (Central European Summer Time),The main experiment item,yes,0,0,/Users/ethan/Documents/GitHub/OpenSesame/Sternberg/experiment_files,0,0,0,no,mono,no,18,no,white,no,no,768,94,3.6.1,legacy,legacy,5 2,osweb,1.4.0,1,0,n,36,,0,left,space,enter,space,space,space,left,737,39083,46537,7370,3864,61954,737,2,legacy,720,1366,24,768,24,0,0,1366,1632959142453,2,1024,2,48000,-16,experiment,0,even,Linux x86_64,7,815640,424990,728942,812378,77,813420,608428,77,7450,88208,817655,814425,818404,77,817655,Sternberg_updated,90,110682,104,yes,1024
87,87,1066,1066,black,no,experiment,Mozilla,Netscape,"5.0 (X11; CrOS x86_64 13729.45.0) AppleWebKit/537.36 (KHTML, like Gecko) Chrome/89.0.4389.82 Safari/537.36",legacy,legacy,legacy,0,uniform,1,1,left,104,104,104,104,0,0,0,104,104,0,0,0,104,104,104,0,0,104,104,0,30-08-21,29-08-21,01:44:04,Thu Sep 30 2021 01:44:04 GMT+0200 (Central European Summer Time),The main experiment item,yes,0,0,/Users/ethan/Documents/GitHub/OpenSesame/Sternberg/experiment_files,0,0,0,no,mono,no,18,no,white,no,no,768,94,3.6.1,legacy,legacy,6 3 1 7 9 8,osweb,1.4.0,1,0,n,36,,0,left,space,enter,space,space,space,left,1217,39083,46537,7370,3864,61954,1217,2,legacy,720,1366,24,768,24,0,0,1366,1632959142453,6,1024,2,48000,-16,experiment,0,even,Linux x86_64,4,821668,424990,728942,818405,77,819448,608428,77,7450,88208,823683,820453,824914,77,823683,Sternberg_updated,91,111899,105,yes,1024
87,87,1064,1064,black,no,experiment,Mozilla,Netscape,"5.0 (X11; CrOS x86_64 13729.45.0) AppleWebKit/537.36 (KHTML, like Gecko) Chrome/89.0.4389.82 Safari/537.36",legacy,legacy,legacy,0,uniform,1,1,left,105,105,105,105,0,0,0,105,105,0,0,0,105,105,105,0,0,105,105,0,30-08-21,29-08-21,01:44:04,Thu Sep 30 2021 01:44:04 GMT+0200 (Central European Summer Time),The main experiment item,yes,0,0,/Users/ethan/Documents/GitHub/OpenSesame/Sternberg/experiment_files,0,0,0,no,mono,no,18,no,white,no,no,768,94,3.6.1,legacy,legacy,6 7 5 9,osweb,1.4.0,1,0,n,36,,0,left,space,enter,space,space,space,left,862,39083,46537,7370,3864,61954,862,2,legacy,720,1366,24,768,24,0,0,1366,1632959142453,4,1024,2,48000,-16,experiment,0,even,Linux x86_64,2,828178,424990,728942,824917,77,825955,608428,77,7450,88208,830193,826963,831058,77,830193,Sternberg_updated,92,112761,106,yes,1024
87,87,1061,1061,black,no,experiment,Mozilla,Netscape,"5.0 (X11; CrOS x86_64 13729.45.0) AppleWebKit/537.36 (KHTML, like Gecko) Chrome/89.0.4389.82 Safari/537.36",legacy,legacy,legacy,0,uniform,1,1,left,106,106,106,106,0,0,0,106,106,0,0,0,106,106,106,0,0,106,106,0,30-08-21,29-08-21,01:44:04,Thu Sep 30 2021 01:44:04 GMT+0200 (Central European Summer Time),The main experiment item,yes,0,0,/Users/ethan/Documents/GitHub/OpenSesame/Sternberg/experiment_files,0,0,0,no,mono,no,18,no,white,no,no,768,94,3.6.1,legacy,legacy,1 3 2 6 9,osweb,1.4.0,1,0,n,36,,0,left,space,enter,space,space,space,left,796,39083,46537,7370,3864,61954,796,2,legacy,720,1366,24,768,24,0,0,1366,1632959142453,5,1024,2,48000,-16,experiment,0,even,Linux x86_64,5,834322,424990,728942,831060,77,832097,608428,77,7450,88208,836337,833107,837136,77,836337,Sternberg_updated,93,113557,107,yes,1024
87,87,1065,1065,black,no,experiment,Mozilla,Netscape,"5.0 (X11; CrOS x86_64 13729.45.0) AppleWebKit/537.36 (KHTML, like Gecko) Chrome/89.0.4389.82 Safari/537.36",legacy,legacy,legacy,0,uniform,1,1,right,107,107,107,107,0,0,0,107,107,0,0,0,107,107,107,0,0,107,107,0,30-08-21,29-08-21,01:44:04,Thu Sep 30 2021 01:44:04 GMT+0200 (Central European Summer Time),The main experiment item,yes,0,0,/Users/ethan/Documents/GitHub/OpenSesame/Sternberg/experiment_files,0,0,0,no,mono,no,18,no,white,no,no,768,94,3.6.1,legacy,legacy,3 9 7 6 4,osweb,1.4.0,1,3,y,36,,0,right,space,enter,space,space,space,right,1441,39083,46537,7370,3864,61954,1441,2,legacy,720,1366,24,768,24,0,0,1366,1632959142453,5,1024,2,48000,-16,experiment,0,even,Linux x86_64,7,840400,424990,728942,837138,77,838176,608428,77,7450,88208,842414,839184,843863,77,842414,Sternberg_updated,94,114998,108,yes,1024
87,87,1063,1063,black,no,experiment,Mozilla,Netscape,"5.0 (X11; CrOS x86_64 13729.45.0) AppleWebKit/537.36 (KHTML, like Gecko) Chrome/89.0.4389.82 Safari/537.36",legacy,legacy,legacy,0,uniform,1,1,left,108,108,108,108,0,0,0,108,108,0,0,0,108,108,108,0,0,108,108,0,30-08-21,29-08-21,01:44:04,Thu Sep 30 2021 01:44:04 GMT+0200 (Central European Summer Time),The main experiment item,yes,0,0,/Users/ethan/Documents/GitHub/OpenSesame/Sternberg/experiment_files,0,0,0,no,mono,no,18,no,white,no,no,768,94,3.6.1,legacy,legacy,1 8 7,osweb,1.4.0,1,0,n,36,,0,left,space,enter,space,space,space,left,885,39083,46537,7370,3864,61954,885,2,legacy,720,1366,24,768,24,0,0,1366,1632959142453,3,1024,2,48000,-16,experiment,0,even,Linux x86_64,4,847126,424990,728942,843864,77,844900,608428,77,7450,88208,849141,845911,850039,77,849141,Sternberg_updated,95,115883,109,yes,1024
87,87,1062,1062,black,no,experiment,Mozilla,Netscape,"5.0 (X11; CrOS x86_64 13729.45.0) AppleWebKit/537.36 (KHTML, like Gecko) Chrome/89.0.4389.82 Safari/537.36",legacy,legacy,legacy,0,uniform,1,1,right,109,109,109,109,0,0,0,109,109,0,0,0,109,109,109,0,0,109,109,0,30-08-21,29-08-21,01:44:04,Thu Sep 30 2021 01:44:04 GMT+0200 (Central European Summer Time),The main experiment item,yes,0,0,/Users/ethan/Documents/GitHub/OpenSesame/Sternberg/experiment_files,0,0,0,no,mono,no,18,no,white,no,no,768,94,3.6.1,legacy,legacy,6 2,osweb,1.4.0,1,1,y,36,,0,right,space,enter,space,space,space,right,988,39083,46537,7370,3864,61954,988,2,legacy,720,1366,24,768,24,0,0,1366,1632959142453,2,1024,2,48000,-16,experiment,0,even,Linux x86_64,6,853304,424990,728942,850044,77,851079,608428,77,7450,88208,855318,852088,856317,77,855318,Sternberg_updated,96,116871,110,yes,1024
87,87,1063,1063,black,no,experiment,Mozilla,Netscape,"5.0 (X11; CrOS x86_64 13729.45.0) AppleWebKit/537.36 (KHTML, like Gecko) Chrome/89.0.4389.82 Safari/537.36",legacy,legacy,legacy,0,uniform,1,1,left,110,110,110,110,0,0,0,110,110,0,0,0,110,110,110,0,0,110,110,0,30-08-21,29-08-21,01:44:04,Thu Sep 30 2021 01:44:04 GMT+0200 (Central European Summer Time),The main experiment item,yes,0,0,/Users/ethan/Documents/GitHub/OpenSesame/Sternberg/experiment_files,0,0,0,no,mono,no,18,no,white,no,no,768,94,3.6.1,legacy,legacy,7 9 1 6,osweb,1.4.0,1,0,n,36,,0,left,space,enter,space,space,space,left,1071,39083,46537,7370,3864,61954,1071,2,legacy,720,1366,24,768,24,0,0,1366,1632959142453,4,1024,2,48000,-16,experiment,0,even,Linux x86_64,4,859581,424990,728942,856321,77,857357,608428,77,7450,88208,861596,858365,862678,77,861596,Sternberg_updated,97,117942,111,yes,1024
88,88,1065,1065,black,no,experiment,Mozilla,Netscape,"5.0 (X11; CrOS x86_64 13729.45.0) AppleWebKit/537.36 (KHTML, like Gecko) Chrome/89.0.4389.82 Safari/537.36",legacy,legacy,legacy,0,uniform,1,1,right,111,111,111,111,0,0,0,111,111,0,0,0,111,111,111,0,0,111,111,0,30-08-21,29-08-21,01:44:04,Thu Sep 30 2021 01:44:04 GMT+0200 (Central European Summer Time),The main experiment item,yes,0,0,/Users/ethan/Documents/GitHub/OpenSesame/Sternberg/experiment_files,0,0,0,no,mono,no,18,no,white,no,no,768,94,3.6.1,legacy,legacy,3 5 7 1,osweb,1.4.0,1,3,y,36,,0,right,space,enter,space,space,space,right,1314,39083,46537,7370,3864,61954,1314,2,legacy,720,1366,24,768,24,0,0,1366,1632959142453,4,1024,2,48000,-16,experiment,0,even,Linux x86_64,7,865941,424990,728942,862679,77,863719,608428,77,7450,88208,867956,864727,869271,77,867956,Sternberg_updated,98,119256,112,yes,1024
88,88,1063,1063,black,no,experiment,Mozilla,Netscape,"5.0 (X11; CrOS x86_64 13729.45.0) AppleWebKit/537.36 (KHTML, like Gecko) Chrome/89.0.4389.82 Safari/537.36",legacy,legacy,legacy,0,uniform,1,1,left,112,112,112,112,0,0,0,112,112,0,0,0,112,112,112,0,0,112,112,0,30-08-21,29-08-21,01:44:04,Thu Sep 30 2021 01:44:04 GMT+0200 (Central European Summer Time),The main experiment item,yes,0,0,/Users/ethan/Documents/GitHub/OpenSesame/Sternberg/experiment_files,0,0,0,no,mono,no,18,no,white,no,no,768,94,3.6.1,legacy,legacy,9,osweb,1.4.0,1,0,n,36,,0,left,space,enter,space,space,space,left,822,39083,46537,7370,3864,61954,822,2,legacy,720,1366,24,768,24,0,0,1366,1632959142453,1,1024,2,48000,-16,experiment,0,even,Linux x86_64,6,872534,424990,728942,869274,77,870310,608428,77,7450,88208,874550,871319,875382,77,874550,Sternberg_updated,99,120078,113,yes,1024
88,88,1059,1059,black,no,experiment,Mozilla,Netscape,"5.0 (X11; CrOS x86_64 13729.45.0) AppleWebKit/537.36 (KHTML, like Gecko) Chrome/89.0.4389.82 Safari/537.36",legacy,legacy,legacy,0,uniform,1,1,right,113,113,113,113,0,0,0,113,113,0,0,0,113,113,113,0,0,113,113,0,30-08-21,29-08-21,01:44:04,Thu Sep 30 2021 01:44:04 GMT+0200 (Central European Summer Time),The main experiment item,yes,0,0,/Users/ethan/Documents/GitHub/OpenSesame/Sternberg/experiment_files,0,0,0,no,mono,no,18,no,white,no,no,768,94,3.6.1,legacy,legacy,7 4 2 6 3 5,osweb,1.4.0,1,6,y,36,,0,right,space,enter,space,space,space,right,616,39083,46537,7370,3864,61954,616,2,legacy,720,1366,24,768,24,0,0,1366,1632959142453,6,1024,2,48000,-16,experiment,0,even,Linux x86_64,5,878645,424990,728942,875383,77,876425,608428,77,7450,88208,880660,877430,881292,77,880660,Sternberg_updated,100,120694,114,yes,1024
88,88,1054,1054,black,no,experiment,Mozilla,Netscape,"5.0 (X11; CrOS x86_64 13729.45.0) AppleWebKit/537.36 (KHTML, like Gecko) Chrome/89.0.4389.82 Safari/537.36",legacy,legacy,legacy,0,uniform,1,1,right,114,114,114,114,0,0,0,114,114,0,0,0,114,114,114,0,0,114,114,0,30-08-21,29-08-21,01:44:04,Thu Sep 30 2021 01:44:04 GMT+0200 (Central European Summer Time),The main experiment item,yes,0,0,/Users/ethan/Documents/GitHub/OpenSesame/Sternberg/experiment_files,0,0,0,no,mono,no,18,no,white,no,no,768,94,3.6.1,legacy,legacy,7,osweb,1.4.0,1,1,y,36,,0,right,space,enter,space,space,space,right,479,39083,46537,7370,3864,61954,479,2,legacy,720,1366,24,768,24,0,0,1366,1632959142453,1,1024,2,48000,-16,experiment,0,even,Linux x86_64,7,884556,424990,728942,881295,77,882331,608428,77,7450,88208,886571,883341,887053,77,886571,Sternberg_updated,101,121173,115,yes,1024
88,88,1052,1052,black,no,experiment,Mozilla,Netscape,"5.0 (X11; CrOS x86_64 13729.45.0) AppleWebKit/537.36 (KHTML, like Gecko) Chrome/89.0.4389.82 Safari/537.36",legacy,legacy,legacy,0,uniform,1,1,right,115,115,115,115,0,0,0,115,115,0,0,0,115,115,115,0,0,115,115,0,30-08-21,29-08-21,01:44:04,Thu Sep 30 2021 01:44:04 GMT+0200 (Central European Summer Time),The main experiment item,yes,0,0,/Users/ethan/Documents/GitHub/OpenSesame/Sternberg/experiment_files,0,0,0,no,mono,no,18,no,white,no,no,768,94,3.6.1,legacy,legacy,5 7 8 2 3 8,osweb,1.4.0,1,5,y,36,,0,right,space,enter,space,space,space,right,833,39083,46537,7370,3864,61954,833,2,legacy,720,1366,24,768,24,0,0,1366,1632959142453,6,1024,2,48000,-16,experiment,0,even,Linux x86_64,3,890317,424990,728942,887055,77,888094,608428,77,7450,88208,892332,889102,893181,77,892332,Sternberg_updated,102,122006,116,yes,1024
88,88,1050,1050,black,no,experiment,Mozilla,Netscape,"5.0 (X11; CrOS x86_64 13729.45.0) AppleWebKit/537.36 (KHTML, like Gecko) Chrome/89.0.4389.82 Safari/537.36",legacy,legacy,legacy,0,uniform,1,1,right,116,116,116,116,0,0,0,116,116,0,0,0,116,116,116,0,0,116,116,0,30-08-21,29-08-21,01:44:04,Thu Sep 30 2021 01:44:04 GMT+0200 (Central European Summer Time),The main experiment item,yes,0,0,/Users/ethan/Documents/GitHub/OpenSesame/Sternberg/experiment_files,0,0,0,no,mono,no,18,no,white,no,no,768,94,3.6.1,legacy,legacy,4 6 5 8,osweb,1.4.0,1,1,y,36,,0,right,space,enter,space,space,space,right,798,39083,46537,7370,3864,61954,798,2,legacy,720,1366,24,768,24,0,0,1366,1632959142453,4,1024,2,48000,-16,experiment,0,even,Linux x86_64,4,896445,424990,728942,893184,77,894219,608428,77,7450,88208,898461,895229,899275,77,898461,Sternberg_updated,103,122804,117,yes,1024
88,88,1046,1046,black,no,experiment,Mozilla,Netscape,"5.0 (X11; CrOS x86_64 13729.45.0) AppleWebKit/537.36 (KHTML, like Gecko) Chrome/89.0.4389.82 Safari/537.36",legacy,legacy,legacy,0,uniform,1,1,right,117,117,117,117,0,0,0,117,117,0,0,0,117,117,117,0,0,117,117,0,30-08-21,29-08-21,01:44:04,Thu Sep 30 2021 01:44:04 GMT+0200 (Central European Summer Time),The main experiment item,yes,0,0,/Users/ethan/Documents/GitHub/OpenSesame/Sternberg/experiment_files,0,0,0,no,mono,no,18,no,white,no,no,768,94,3.6.1,legacy,legacy,9 4 2,osweb,1.4.0,1,1,y,36,,0,right,space,enter,space,space,space,right,678,39083,46537,7370,3864,61954,678,2,legacy,720,1366,24,768,24,0,0,1366,1632959142453,3,1024,2,48000,-16,experiment,0,even,Linux x86_64,9,902539,424990,728942,899284,77,900318,608428,77,7450,88208,904553,901323,905236,77,904553,Sternberg_updated,104,123482,118,yes,1024
