acc,accuracy,average_response_time,avg_rt,background,bidi,block,browser_codename,browser_name,browser_version,canvas_backend,clock_backend,color_backend,compensation,coordinates,correct,correct_keyboard_response,correct_response,count_ISI,count_break1,count_break_2,count_correct_feedback,count_credits,count_experiment,count_experimentLoop,count_fixation,count_incorrect_feedback,count_instructions1a,count_instructions1b,count_instructions2,count_keyboard_response,count_memory_set,count_new_logger,count_osweb,count_practiceLoop,count_practiceSequence,count_probe,count_thankYou,date_startdate,date_startdateUTC,date_starttime,datetime,description,disable_garbage_collection,experiment_debug,experiment_parameters,experiment_path,experiment_pilot,experiment_taskname,experiment_taskversion,font_bold,font_family,font_italic,font_size,font_underline,foreground,form_clicks,fullscreen,height,jatosStudyResultId,jatosVersion,keyboard_backend,mouse_backend,numberSet,opensesame_codename,opensesame_version,penwidth,posInSet,present,queryParams_batchId,queryParams_generalMultiple,repeat_cycle,response,response_break1,response_break_2,response_instructions1a,response_instructions1b,response_instructions2,response_keyboard_response,response_time,response_time_break1,response_time_break_2,response_time_instructions1a,response_time_instructions1b,response_time_instructions2,response_time_keyboard_response,round_decimals,sampler_backend,screen_availableHeight,screen_availableWidth,screen_colorDepth,screen_height,screen_pixelDepth,screen_screenX,screen_screenY,screen_width,sessionid,setSize,sound_buf_size,sound_channels,sound_freq,sound_sample_size,start,subject_nr,subject_parity,system_os,target,time_ISI,time_break1,time_break_2,time_correct_feedback,time_experimentLoop,time_fixation,time_incorrect_feedback,time_instructions1a,time_instructions1b,time_instructions2,time_keyboard_response,time_memory_set,time_new_logger,time_practiceLoop,time_probe,title,total_correct,total_response_time,total_responses,uniform_coordinates,width
100,100,754,754,black,no,practice,Mozilla,Netscape,5.0 (Windows),legacy,legacy,legacy,0,uniform,1,1,left,0,0,0,0,0,0,0,0,0,0,0,0,0,0,0,0,0,0,0,0,30-08-21,30-08-21,09:17:17,Thu Sep 30 2021 09:17:17 GMT+0200 (Central European Summer Time),The main experiment item,yes,0,0,/Users/ethan/Documents/GitHub/OpenSesame/Sternberg/experiment_files,0,0,0,no,mono,no,18,no,white,no,no,768,98,3.6.1,legacy,legacy,5,osweb,1.4.0,1,0,n,37,,0,left,,,f11,right,,left,754,,,3295,27602,,754,2,legacy,728,1366,24,768,24,-8,-8,1366,1632986228036,1,1024,2,48000,-16,experiment,0,even,Win32,3,33420,,,,61,31185,,60,3476,,35440,32205,36196,61,35440,Sternberg_updated,1,754,1,yes,1024
100,100,1072,1072,black,no,practice,Mozilla,Netscape,5.0 (Windows),legacy,legacy,legacy,0,uniform,1,1,left,1,1,1,1,0,0,0,1,1,0,0,0,1,1,1,0,0,1,1,0,30-08-21,30-08-21,09:17:17,Thu Sep 30 2021 09:17:17 GMT+0200 (Central European Summer Time),The main experiment item,yes,0,0,/Users/ethan/Documents/GitHub/OpenSesame/Sternberg/experiment_files,0,0,0,no,mono,no,18,no,white,no,no,768,98,3.6.1,legacy,legacy,2 1,osweb,1.4.0,1,0,n,37,,0,left,,,f11,right,,left,1389,,,3295,27602,,1389,2,legacy,728,1366,24,768,24,-8,-8,1366,1632986228036,2,1024,2,48000,-16,experiment,0,even,Win32,5,39488,,,36206,61,37264,,60,3476,,41509,38274,42901,61,41509,Sternberg_updated,2,2143,2,yes,1024
100,100,952,952,black,no,practice,Mozilla,Netscape,5.0 (Windows),legacy,legacy,legacy,0,uniform,1,1,right,2,2,2,2,0,0,0,2,2,0,0,0,2,2,2,0,0,2,2,0,30-08-21,30-08-21,09:17:17,Thu Sep 30 2021 09:17:17 GMT+0200 (Central European Summer Time),The main experiment item,yes,0,0,/Users/ethan/Documents/GitHub/OpenSesame/Sternberg/experiment_files,0,0,0,no,mono,no,18,no,white,no,no,768,98,3.6.1,legacy,legacy,6,osweb,1.4.0,1,1,y,37,,0,right,,,f11,right,,right,712,,,3295,27602,,712,2,legacy,728,1366,24,768,24,-8,-8,1366,1632986228036,1,1024,2,48000,-16,experiment,0,even,Win32,6,46194,,,42907,61,43966,,60,3476,,48215,44981,48929,61,48214,Sternberg_updated,3,2855,3,yes,1024
100,100,996,996,black,no,practice,Mozilla,Netscape,5.0 (Windows),legacy,legacy,legacy,0,uniform,1,1,right,3,3,3,3,0,0,0,3,3,0,0,0,3,3,3,0,0,3,3,0,30-08-21,30-08-21,09:17:17,Thu Sep 30 2021 09:17:17 GMT+0200 (Central European Summer Time),The main experiment item,yes,0,0,/Users/ethan/Documents/GitHub/OpenSesame/Sternberg/experiment_files,0,0,0,no,mono,no,18,no,white,no,no,768,98,3.6.1,legacy,legacy,2 9 4,osweb,1.4.0,1,3,y,37,,0,right,,,f11,right,,right,1128,,,3295,27602,,1128,2,legacy,728,1366,24,768,24,-8,-8,1366,1632986228036,3,1024,2,48000,-16,experiment,0,even,Win32,4,52222,,,48934,61,49990,,60,3476,,54242,51008,55376,61,54242,Sternberg_updated,4,3983,4,yes,1024
80,80,955,955,black,no,practice,Mozilla,Netscape,5.0 (Windows),legacy,legacy,legacy,0,uniform,0,0,right,4,4,4,4,0,0,0,4,4,0,0,0,4,4,4,0,0,4,4,0,30-08-21,30-08-21,09:17:17,Thu Sep 30 2021 09:17:17 GMT+0200 (Central European Summer Time),The main experiment item,yes,0,0,/Users/ethan/Documents/GitHub/OpenSesame/Sternberg/experiment_files,0,0,0,no,mono,no,18,no,white,no,no,768,98,3.6.1,legacy,legacy,1 7 9 8 5,osweb,1.4.0,1,4,y,37,,0,left,,,f11,right,,left,790,,,3295,27602,,790,2,legacy,728,1366,24,768,24,-8,-8,1366,1632986228036,5,1024,2,48000,-16,experiment,0,even,Win32,8,58670,,,55382,61,56440,,60,3476,,60692,57455,61483,61,60692,Sternberg_updated,4,4773,5,yes,1024
83,83,979,979,black,no,practice,Mozilla,Netscape,5.0 (Windows),legacy,legacy,legacy,0,uniform,1,1,right,5,5,5,5,0,0,0,5,5,0,0,0,5,5,5,0,0,5,5,0,30-08-21,30-08-21,09:17:17,Thu Sep 30 2021 09:17:17 GMT+0200 (Central European Summer Time),The main experiment item,yes,0,0,/Users/ethan/Documents/GitHub/OpenSesame/Sternberg/experiment_files,0,0,0,no,mono,no,18,no,white,no,no,768,98,3.6.1,legacy,legacy,4 3 1 7 9 8,osweb,1.4.0,1,1,y,37,,0,right,,,f11,right,,right,1102,,,3295,27602,,1102,2,legacy,728,1366,24,768,24,-8,-8,1366,1632986228036,6,1024,2,48000,-16,experiment,0,even,Win32,4,64777,,,55382,61,62547,61491,60,3476,,66798,63563,67910,61,66797,Sternberg_updated,5,5875,6,yes,1024
86,86,932,932,black,no,practice,Mozilla,Netscape,5.0 (Windows),legacy,legacy,legacy,0,uniform,1,1,left,6,6,6,6,0,0,0,6,6,0,0,0,6,6,6,0,0,6,6,0,30-08-21,30-08-21,09:17:17,Thu Sep 30 2021 09:17:17 GMT+0200 (Central European Summer Time),The main experiment item,yes,0,0,/Users/ethan/Documents/GitHub/OpenSesame/Sternberg/experiment_files,0,0,0,no,mono,no,18,no,white,no,no,768,98,3.6.1,legacy,legacy,4 1 5,osweb,1.4.0,1,0,n,37,,0,left,,,f11,right,,left,651,,,3295,27602,,651,2,legacy,728,1366,24,768,24,-8,-8,1366,1632986228036,3,1024,2,48000,-16,experiment,0,even,Win32,2,71205,,,67917,61,68978,61491,60,3476,,73224,69990,73879,61,73224,Sternberg_updated,6,6526,7,yes,1024
88,88,944,944,black,no,practice,Mozilla,Netscape,5.0 (Windows),legacy,legacy,legacy,0,uniform,1,1,right,7,7,7,7,0,0,0,7,7,0,0,0,7,7,7,0,0,7,7,0,30-08-21,30-08-21,09:17:17,Thu Sep 30 2021 09:17:17 GMT+0200 (Central European Summer Time),The main experiment item,yes,0,0,/Users/ethan/Documents/GitHub/OpenSesame/Sternberg/experiment_files,0,0,0,no,mono,no,18,no,white,no,no,768,98,3.6.1,legacy,legacy,4 8,osweb,1.4.0,1,1,y,37,,0,right,,,f11,right,,right,1024,,,3295,27602,,1024,2,legacy,728,1366,24,768,24,-8,-8,1366,1632986228036,2,1024,2,48000,-16,experiment,0,even,Win32,4,77172,,,73884,61,74944,61491,60,3476,,79192,75957,80226,61,79192,Sternberg_updated,7,7550,8,yes,1024
89,89,924,924,black,no,practice,Mozilla,Netscape,5.0 (Windows),legacy,legacy,legacy,0,uniform,1,1,left,8,8,8,8,0,0,0,8,8,0,0,0,8,8,8,0,0,8,8,0,30-08-21,30-08-21,09:17:17,Thu Sep 30 2021 09:17:17 GMT+0200 (Central European Summer Time),The main experiment item,yes,0,0,/Users/ethan/Documents/GitHub/OpenSesame/Sternberg/experiment_files,0,0,0,no,mono,no,18,no,white,no,no,768,98,3.6.1,legacy,legacy,3 1 9 4,osweb,1.4.0,1,0,n,37,,0,left,,,f11,right,,left,762,,,3295,27602,,762,2,legacy,728,1366,24,768,24,-8,-8,1366,1632986228036,4,1024,2,48000,-16,experiment,0,even,Win32,6,83520,,,80232,61,81287,61491,60,3476,,85540,82305,86314,61,85540,Sternberg_updated,8,8312,9,yes,1024
90,90,977,977,black,no,practice,Mozilla,Netscape,5.0 (Windows),legacy,legacy,legacy,0,uniform,1,1,right,9,9,9,9,0,0,0,9,9,0,0,0,9,9,9,0,0,9,9,0,30-08-21,30-08-21,09:17:17,Thu Sep 30 2021 09:17:17 GMT+0200 (Central European Summer Time),The main experiment item,yes,0,0,/Users/ethan/Documents/GitHub/OpenSesame/Sternberg/experiment_files,0,0,0,no,mono,no,18,no,white,no,no,768,98,3.6.1,legacy,legacy,1 5 2 9,osweb,1.4.0,1,2,y,37,,0,right,,,f11,right,,right,1460,,,3295,27602,,1460,2,legacy,728,1366,24,768,24,-8,-8,1366,1632986228036,4,1024,2,48000,-16,experiment,0,even,Win32,5,89608,,,86319,61,87372,61491,60,3476,,91628,88392,93100,61,91628,Sternberg_updated,9,9772,10,yes,1024
91,91,958,958,black,no,practice,Mozilla,Netscape,5.0 (Windows),legacy,legacy,legacy,0,uniform,1,1,left,10,10,10,10,0,0,0,10,10,0,0,0,10,10,10,0,0,10,10,0,30-08-21,30-08-21,09:17:17,Thu Sep 30 2021 09:17:17 GMT+0200 (Central European Summer Time),The main experiment item,yes,0,0,/Users/ethan/Documents/GitHub/OpenSesame/Sternberg/experiment_files,0,0,0,no,mono,no,18,no,white,no,no,768,98,3.6.1,legacy,legacy,9 6 7 4 5,osweb,1.4.0,1,0,n,37,,0,left,,,f11,right,,left,770,,,3295,27602,,770,2,legacy,728,1366,24,768,24,-8,-8,1366,1632986228036,5,1024,2,48000,-16,experiment,0,even,Win32,3,96394,,,93106,61,94161,61491,60,3476,,98413,95179,99188,61,98413,Sternberg_updated,10,10542,11,yes,1024
92,92,940,940,black,no,practice,Mozilla,Netscape,5.0 (Windows),legacy,legacy,legacy,0,uniform,1,1,left,11,11,11,11,0,0,0,11,11,0,0,0,11,11,11,0,0,11,11,0,30-08-21,30-08-21,09:17:17,Thu Sep 30 2021 09:17:17 GMT+0200 (Central European Summer Time),The main experiment item,yes,0,0,/Users/ethan/Documents/GitHub/OpenSesame/Sternberg/experiment_files,0,0,0,no,mono,no,18,no,white,no,no,768,98,3.6.1,legacy,legacy,5 7 8 4 1 2,osweb,1.4.0,1,0,n,37,,0,left,,,f11,right,,left,737,,,3295,27602,,737,2,legacy,728,1366,24,768,24,-8,-8,1366,1632986228036,6,1024,2,48000,-16,experiment,0,even,Win32,6,102482,,,99193,61,100246,61491,60,3476,,104502,101267,105257,61,104501,Sternberg_updated,11,11279,12,yes,1024
92,92,969,969,black,no,experiment,Mozilla,Netscape,5.0 (Windows),legacy,legacy,legacy,0,uniform,1,1,right,12,12,12,12,0,0,0,12,12,0,0,0,12,12,12,0,0,12,12,0,30-08-21,30-08-21,09:17:17,Thu Sep 30 2021 09:17:17 GMT+0200 (Central European Summer Time),The main experiment item,yes,0,0,/Users/ethan/Documents/GitHub/OpenSesame/Sternberg/experiment_files,0,0,0,no,mono,no,18,no,white,no,no,768,98,3.6.1,legacy,legacy,1 4 9 3 2 5,osweb,1.4.0,1,3,y,37,,0,right,,,f11,right,left,right,1322,,,3295,27602,13798,1322,2,legacy,728,1366,24,768,24,-8,-8,1366,1632986228036,6,1024,2,48000,-16,experiment,0,even,Win32,9,122402,,,105263,61,120168,61491,60,3476,106312,124421,121187,125754,61,124421,Sternberg_updated,12,12601,13,yes,1024
86,86,949,949,black,no,experiment,Mozilla,Netscape,5.0 (Windows),legacy,legacy,legacy,0,uniform,0,0,right,13,13,13,13,0,0,0,13,13,0,0,0,13,13,13,0,0,13,13,0,30-08-21,30-08-21,09:17:17,Thu Sep 30 2021 09:17:17 GMT+0200 (Central European Summer Time),The main experiment item,yes,0,0,/Users/ethan/Documents/GitHub/OpenSesame/Sternberg/experiment_files,0,0,0,no,mono,no,18,no,white,no,no,768,98,3.6.1,legacy,legacy,7 4 2 6 3 5,osweb,1.4.0,1,6,y,37,,0,left,,,f11,right,left,left,685,,,3295,27602,13798,685,2,legacy,728,1366,24,768,24,-8,-8,1366,1632986228036,6,1024,2,48000,-16,experiment,0,even,Win32,5,129028,,,125760,61,126807,61491,60,3476,106312,131049,127813,131743,61,131049,Sternberg_updated,12,13286,14,yes,1024
87,87,940,940,black,no,experiment,Mozilla,Netscape,5.0 (Windows),legacy,legacy,legacy,0,uniform,1,1,right,14,14,14,14,0,0,0,14,14,0,0,0,14,14,14,0,0,14,14,0,30-08-21,30-08-21,09:17:17,Thu Sep 30 2021 09:17:17 GMT+0200 (Central European Summer Time),The main experiment item,yes,0,0,/Users/ethan/Documents/GitHub/OpenSesame/Sternberg/experiment_files,0,0,0,no,mono,no,18,no,white,no,no,768,98,3.6.1,legacy,legacy,8 7 3,osweb,1.4.0,1,1,y,37,,0,right,,,f11,right,left,right,819,,,3295,27602,13798,819,2,legacy,728,1366,24,768,24,-8,-8,1366,1632986228036,3,1024,2,48000,-16,experiment,0,even,Win32,8,135036,,,125760,61,132802,131748,60,3476,106312,137056,133822,137891,61,137056,Sternberg_updated,13,14105,15,yes,1024
88,88,924,924,black,no,experiment,Mozilla,Netscape,5.0 (Windows),legacy,legacy,legacy,0,uniform,1,1,left,15,15,15,15,0,0,0,15,15,0,0,0,15,15,15,0,0,15,15,0,30-08-21,30-08-21,09:17:17,Thu Sep 30 2021 09:17:17 GMT+0200 (Central European Summer Time),The main experiment item,yes,0,0,/Users/ethan/Documents/GitHub/OpenSesame/Sternberg/experiment_files,0,0,0,no,mono,no,18,no,white,no,no,768,98,3.6.1,legacy,legacy,1 5 3 2 8,osweb,1.4.0,1,0,n,37,,0,left,,,f11,right,left,left,672,,,3295,27602,13798,672,2,legacy,728,1366,24,768,24,-8,-8,1366,1632986228036,5,1024,2,48000,-16,experiment,0,even,Win32,4,141185,,,137897,61,138949,131748,60,3476,106312,143204,139969,143879,61,143204,Sternberg_updated,14,14777,16,yes,1024
88,88,918,918,black,no,experiment,Mozilla,Netscape,5.0 (Windows),legacy,legacy,legacy,0,uniform,1,1,right,16,16,16,16,0,0,0,16,16,0,0,0,16,16,16,0,0,16,16,0,30-08-21,30-08-21,09:17:17,Thu Sep 30 2021 09:17:17 GMT+0200 (Central European Summer Time),The main experiment item,yes,0,0,/Users/ethan/Documents/GitHub/OpenSesame/Sternberg/experiment_files,0,0,0,no,mono,no,18,no,white,no,no,768,98,3.6.1,legacy,legacy,7 6,osweb,1.4.0,1,2,y,37,,0,right,,,f11,right,left,right,823,,,3295,27602,13798,823,2,legacy,728,1366,24,768,24,-8,-8,1366,1632986228036,2,1024,2,48000,-16,experiment,0,even,Win32,6,147173,,,143884,61,144941,131748,60,3476,106312,149192,145957,150026,61,149192,Sternberg_updated,15,15600,17,yes,1024
89,89,903,903,black,no,experiment,Mozilla,Netscape,5.0 (Windows),legacy,legacy,legacy,0,uniform,1,1,left,17,17,17,17,0,0,0,17,17,0,0,0,17,17,17,0,0,17,17,0,30-08-21,30-08-21,09:17:17,Thu Sep 30 2021 09:17:17 GMT+0200 (Central European Summer Time),The main experiment item,yes,0,0,/Users/ethan/Documents/GitHub/OpenSesame/Sternberg/experiment_files,0,0,0,no,mono,no,18,no,white,no,no,768,98,3.6.1,legacy,legacy,7 9 1 6,osweb,1.4.0,1,0,n,37,,0,left,,,f11,right,left,left,660,,,3295,27602,13798,660,2,legacy,728,1366,24,768,24,-8,-8,1366,1632986228036,4,1024,2,48000,-16,experiment,0,even,Win32,4,153319,,,150032,61,151082,131748,60,3476,106312,155340,152104,156014,61,155340,Sternberg_updated,16,16260,18,yes,1024
84,84,901,901,black,no,experiment,Mozilla,Netscape,5.0 (Windows),legacy,legacy,legacy,0,uniform,0,0,left,18,18,18,18,0,0,0,18,18,0,0,0,18,18,18,0,0,18,18,0,30-08-21,30-08-21,09:17:17,Thu Sep 30 2021 09:17:17 GMT+0200 (Central European Summer Time),The main experiment item,yes,0,0,/Users/ethan/Documents/GitHub/OpenSesame/Sternberg/experiment_files,0,0,0,no,mono,no,18,no,white,no,no,768,98,3.6.1,legacy,legacy,1 8 7,osweb,1.4.0,1,0,n,37,,0,right,,,f11,right,left,right,851,,,3295,27602,13798,851,2,legacy,728,1366,24,768,24,-8,-8,1366,1632986228036,3,1024,2,48000,-16,experiment,0,even,Win32,4,159308,,,156019,61,157080,131748,60,3476,106312,161328,158094,162181,61,161328,Sternberg_updated,16,17111,19,yes,1024
85,85,892,892,black,no,experiment,Mozilla,Netscape,5.0 (Windows),legacy,legacy,legacy,0,uniform,1,1,left,19,19,19,19,0,0,0,19,19,0,0,0,19,19,19,0,0,19,19,0,30-08-21,30-08-21,09:17:17,Thu Sep 30 2021 09:17:17 GMT+0200 (Central European Summer Time),The main experiment item,yes,0,0,/Users/ethan/Documents/GitHub/OpenSesame/Sternberg/experiment_files,0,0,0,no,mono,no,18,no,white,no,no,768,98,3.6.1,legacy,legacy,1 4 9 2 5,osweb,1.4.0,1,0,n,37,,0,left,,,f11,right,left,left,724,,,3295,27602,13798,724,2,legacy,728,1366,24,768,24,-8,-8,1366,1632986228036,5,1024,2,48000,-16,experiment,0,even,Win32,7,165476,,,156019,61,163240,162187,60,3476,106312,167496,164260,168229,61,167496,Sternberg_updated,17,17835,20,yes,1024
86,86,889,889,black,no,experiment,Mozilla,Netscape,5.0 (Windows),legacy,legacy,legacy,0,uniform,1,1,right,20,20,20,20,0,0,0,20,20,0,0,0,20,20,20,0,0,20,20,0,30-08-21,30-08-21,09:17:17,Thu Sep 30 2021 09:17:17 GMT+0200 (Central European Summer Time),The main experiment item,yes,0,0,/Users/ethan/Documents/GitHub/OpenSesame/Sternberg/experiment_files,0,0,0,no,mono,no,18,no,white,no,no,768,98,3.6.1,legacy,legacy,4,osweb,1.4.0,1,1,y,37,,0,right,,,f11,right,left,right,839,,,3295,27602,13798,839,2,legacy,728,1366,24,768,24,-8,-8,1366,1632986228036,1,1024,2,48000,-16,experiment,0,even,Win32,4,171523,,,168235,61,169285,162187,60,3476,106312,173544,170309,174397,61,173544,Sternberg_updated,18,18674,21,yes,1024
86,86,904,904,black,no,experiment,Mozilla,Netscape,5.0 (Windows),legacy,legacy,legacy,0,uniform,1,1,right,21,21,21,21,0,0,0,21,21,0,0,0,21,21,21,0,0,21,21,0,30-08-21,30-08-21,09:17:17,Thu Sep 30 2021 09:17:17 GMT+0200 (Central European Summer Time),The main experiment item,yes,0,0,/Users/ethan/Documents/GitHub/OpenSesame/Sternberg/experiment_files,0,0,0,no,mono,no,18,no,white,no,no,768,98,3.6.1,legacy,legacy,9 1 7 2,osweb,1.4.0,1,2,y,37,,0,right,,,f11,right,left,right,1203,,,3295,27602,13798,1203,2,legacy,728,1366,24,768,24,-8,-8,1366,1632986228036,4,1024,2,48000,-16,experiment,0,even,Win32,1,177691,,,174403,61,175458,162187,60,3476,106312,179712,176477,180924,61,179712,Sternberg_updated,19,19877,22,yes,1024
87,87,900,900,black,no,experiment,Mozilla,Netscape,5.0 (Windows),legacy,legacy,legacy,0,uniform,1,1,right,22,22,22,22,0,0,0,22,22,0,0,0,22,22,22,0,0,22,22,0,30-08-21,30-08-21,09:17:17,Thu Sep 30 2021 09:17:17 GMT+0200 (Central European Summer Time),The main experiment item,yes,0,0,/Users/ethan/Documents/GitHub/OpenSesame/Sternberg/experiment_files,0,0,0,no,mono,no,18,no,white,no,no,768,98,3.6.1,legacy,legacy,3 5 4 7,osweb,1.4.0,1,1,y,37,,0,right,,,f11,right,left,right,822,,,3295,27602,13798,822,2,legacy,728,1366,24,768,24,-8,-8,1366,1632986228036,4,1024,2,48000,-16,experiment,0,even,Win32,3,184198,,,180931,61,181975,162187,60,3476,106312,186219,182983,187052,61,186219,Sternberg_updated,20,20699,23,yes,1024
88,88,895,895,black,no,experiment,Mozilla,Netscape,5.0 (Windows),legacy,legacy,legacy,0,uniform,1,1,left,23,23,23,23,0,0,0,23,23,0,0,0,23,23,23,0,0,23,23,0,30-08-21,30-08-21,09:17:17,Thu Sep 30 2021 09:17:17 GMT+0200 (Central European Summer Time),The main experiment item,yes,0,0,/Users/ethan/Documents/GitHub/OpenSesame/Sternberg/experiment_files,0,0,0,no,mono,no,18,no,white,no,no,768,98,3.6.1,legacy,legacy,1 7 8 3 9,osweb,1.4.0,1,0,n,37,,0,left,,,f11,right,left,left,770,,,3295,27602,13798,770,2,legacy,728,1366,24,768,24,-8,-8,1366,1632986228036,5,1024,2,48000,-16,experiment,0,even,Win32,2,190346,,,187057,61,188111,162187,60,3476,106312,192366,189131,193140,61,192366,Sternberg_updated,21,21469,24,yes,1024
88,88,887,887,black,no,experiment,Mozilla,Netscape,5.0 (Windows),legacy,legacy,legacy,0,uniform,1,1,left,24,24,24,24,0,0,0,24,24,0,0,0,24,24,24,0,0,24,24,0,30-08-21,30-08-21,09:17:17,Thu Sep 30 2021 09:17:17 GMT+0200 (Central European Summer Time),The main experiment item,yes,0,0,/Users/ethan/Documents/GitHub/OpenSesame/Sternberg/experiment_files,0,0,0,no,mono,no,18,no,white,no,no,768,98,3.6.1,legacy,legacy,1 7 5 2 9,osweb,1.4.0,1,0,n,37,,0,left,,,f11,right,left,left,713,,,3295,27602,13798,713,2,legacy,728,1366,24,768,24,-8,-8,1366,1632986228036,5,1024,2,48000,-16,experiment,0,even,Win32,3,196433,,,193144,61,194196,162187,60,3476,106312,198453,195219,199168,61,198453,Sternberg_updated,22,22182,25,yes,1024
88,88,887,887,black,no,experiment,Mozilla,Netscape,5.0 (Windows),legacy,legacy,legacy,0,uniform,1,1,left,25,25,25,25,0,0,0,25,25,0,0,0,25,25,25,0,0,25,25,0,30-08-21,30-08-21,09:17:17,Thu Sep 30 2021 09:17:17 GMT+0200 (Central European Summer Time),The main experiment item,yes,0,0,/Users/ethan/Documents/GitHub/OpenSesame/Sternberg/experiment_files,0,0,0,no,mono,no,18,no,white,no,no,768,98,3.6.1,legacy,legacy,4 2 7 6 1 3,osweb,1.4.0,1,0,n,37,,0,left,,,f11,right,left,left,889,,,3295,27602,13798,889,2,legacy,728,1366,24,768,24,-8,-8,1366,1632986228036,6,1024,2,48000,-16,experiment,0,even,Win32,8,202461,,,199172,61,200228,162187,60,3476,106312,204481,201248,205375,61,204481,Sternberg_updated,23,23071,26,yes,1024
89,89,874,874,black,no,experiment,Mozilla,Netscape,5.0 (Windows),legacy,legacy,legacy,0,uniform,1,1,left,26,26,26,26,0,0,0,26,26,0,0,0,26,26,26,0,0,26,26,0,30-08-21,30-08-21,09:17:17,Thu Sep 30 2021 09:17:17 GMT+0200 (Central European Summer Time),The main experiment item,yes,0,0,/Users/ethan/Documents/GitHub/OpenSesame/Sternberg/experiment_files,0,0,0,no,mono,no,18,no,white,no,no,768,98,3.6.1,legacy,legacy,9,osweb,1.4.0,1,0,n,37,,0,left,,,f11,right,left,left,514,,,3295,27602,13798,514,2,legacy,728,1366,24,768,24,-8,-8,1366,1632986228036,1,1024,2,48000,-16,experiment,0,even,Win32,6,208670,,,205380,61,206439,162187,60,3476,106312,210689,207454,211204,61,210689,Sternberg_updated,24,23585,27,yes,1024
89,89,874,874,black,no,experiment,Mozilla,Netscape,5.0 (Windows),legacy,legacy,legacy,0,uniform,1,1,right,27,27,27,27,0,0,0,27,27,0,0,0,27,27,27,0,0,27,27,0,30-08-21,30-08-21,09:17:17,Thu Sep 30 2021 09:17:17 GMT+0200 (Central European Summer Time),The main experiment item,yes,0,0,/Users/ethan/Documents/GitHub/OpenSesame/Sternberg/experiment_files,0,0,0,no,mono,no,18,no,white,no,no,768,98,3.6.1,legacy,legacy,2 5 4 8 7,osweb,1.4.0,1,3,y,37,,0,right,,,f11,right,left,right,898,,,3295,27602,13798,898,2,legacy,728,1366,24,768,24,-8,-8,1366,1632986228036,5,1024,2,48000,-16,experiment,0,even,Win32,4,214497,,,211210,61,212262,162187,60,3476,106312,216517,213283,217431,61,216517,Sternberg_updated,25,24483,28,yes,1024
90,90,875,875,black,no,experiment,Mozilla,Netscape,5.0 (Windows),legacy,legacy,legacy,0,uniform,1,1,left,28,28,28,28,0,0,0,28,28,0,0,0,28,28,28,0,0,28,28,0,30-08-21,30-08-21,09:17:17,Thu Sep 30 2021 09:17:17 GMT+0200 (Central European Summer Time),The main experiment item,yes,0,0,/Users/ethan/Documents/GitHub/OpenSesame/Sternberg/experiment_files,0,0,0,no,mono,no,18,no,white,no,no,768,98,3.6.1,legacy,legacy,6 8,osweb,1.4.0,1,0,n,37,,0,left,,,f11,right,left,left,893,,,3295,27602,13798,893,2,legacy,728,1366,24,768,24,-8,-8,1366,1632986228036,2,1024,2,48000,-16,experiment,0,even,Win32,9,220705,,,217437,61,218485,162187,60,3476,106312,222724,219489,223618,61,222724,Sternberg_updated,26,25376,29,yes,1024
90,90,876,876,black,no,experiment,Mozilla,Netscape,5.0 (Windows),legacy,legacy,legacy,0,uniform,1,1,right,29,29,29,29,0,0,0,29,29,0,0,0,29,29,29,0,0,29,29,0,30-08-21,30-08-21,09:17:17,Thu Sep 30 2021 09:17:17 GMT+0200 (Central European Summer Time),The main experiment item,yes,0,0,/Users/ethan/Documents/GitHub/OpenSesame/Sternberg/experiment_files,0,0,0,no,mono,no,18,no,white,no,no,768,98,3.6.1,legacy,legacy,2 4 6 9,osweb,1.4.0,1,3,y,37,,0,right,,,f11,right,left,right,892,,,3295,27602,13798,892,2,legacy,728,1366,24,768,24,-8,-8,1366,1632986228036,4,1024,2,48000,-16,experiment,0,even,Win32,6,226893,,,223623,61,224673,162187,60,3476,106312,228912,225678,229806,61,228912,Sternberg_updated,27,26268,30,yes,1024
90,90,874,874,black,no,experiment,Mozilla,Netscape,5.0 (Windows),legacy,legacy,legacy,0,uniform,1,1,left,30,30,30,30,0,0,0,30,30,0,0,0,30,30,30,0,0,30,30,0,30-08-21,30-08-21,09:17:17,Thu Sep 30 2021 09:17:17 GMT+0200 (Central European Summer Time),The main experiment item,yes,0,0,/Users/ethan/Documents/GitHub/OpenSesame/Sternberg/experiment_files,0,0,0,no,mono,no,18,no,white,no,no,768,98,3.6.1,legacy,legacy,5 3 8 7 2 4,osweb,1.4.0,1,0,n,37,,0,left,,,f11,right,left,left,836,,,3295,27602,13798,836,2,legacy,728,1366,24,768,24,-8,-8,1366,1632986228036,6,1024,2,48000,-16,experiment,0,even,Win32,9,233100,,,229812,61,230862,162187,60,3476,106312,235120,231885,235974,61,235120,Sternberg_updated,28,27104,31,yes,1024
91,91,876,876,black,no,experiment,Mozilla,Netscape,5.0 (Windows),legacy,legacy,legacy,0,uniform,1,1,left,31,31,31,31,0,0,0,31,31,0,0,0,31,31,31,0,0,31,31,0,30-08-21,30-08-21,09:17:17,Thu Sep 30 2021 09:17:17 GMT+0200 (Central European Summer Time),The main experiment item,yes,0,0,/Users/ethan/Documents/GitHub/OpenSesame/Sternberg/experiment_files,0,0,0,no,mono,no,18,no,white,no,no,768,98,3.6.1,legacy,legacy,2 6 4 3 9,osweb,1.4.0,1,0,n,37,,0,left,,,f11,right,left,left,928,,,3295,27602,13798,928,2,legacy,728,1366,24,768,24,-8,-8,1366,1632986228036,5,1024,2,48000,-16,experiment,0,even,Win32,1,239268,,,235979,61,237033,162187,60,3476,106312,241289,238053,242221,61,241289,Sternberg_updated,29,28032,32,yes,1024
91,91,875,875,black,no,experiment,Mozilla,Netscape,5.0 (Windows),legacy,legacy,legacy,0,uniform,1,1,right,32,32,32,32,0,0,0,32,32,0,0,0,32,32,32,0,0,32,32,0,30-08-21,30-08-21,09:17:17,Thu Sep 30 2021 09:17:17 GMT+0200 (Central European Summer Time),The main experiment item,yes,0,0,/Users/ethan/Documents/GitHub/OpenSesame/Sternberg/experiment_files,0,0,0,no,mono,no,18,no,white,no,no,768,98,3.6.1,legacy,legacy,2 6 1 7 4,osweb,1.4.0,1,2,y,37,,0,right,,,f11,right,left,right,839,,,3295,27602,13798,839,2,legacy,728,1366,24,768,24,-8,-8,1366,1632986228036,5,1024,2,48000,-16,experiment,0,even,Win32,6,245515,,,242227,61,243279,162187,60,3476,106312,247535,244300,248389,61,247535,Sternberg_updated,30,28871,33,yes,1024
88,88,878,878,black,no,experiment,Mozilla,Netscape,5.0 (Windows),legacy,legacy,legacy,0,uniform,0,0,right,33,33,33,33,0,0,0,33,33,0,0,0,33,33,33,0,0,33,33,0,30-08-21,30-08-21,09:17:17,Thu Sep 30 2021 09:17:17 GMT+0200 (Central European Summer Time),The main experiment item,yes,0,0,/Users/ethan/Documents/GitHub/OpenSesame/Sternberg/experiment_files,0,0,0,no,mono,no,18,no,white,no,no,768,98,3.6.1,legacy,legacy,4 7 6 8 2 3,osweb,1.4.0,1,6,y,37,,0,left,,,f11,right,left,left,965,,,3295,27602,13798,965,2,legacy,728,1366,24,768,24,-8,-8,1366,1632986228036,6,1024,2,48000,-16,experiment,0,even,Win32,3,251683,,,248394,61,249445,162187,60,3476,106312,253702,250468,254676,61,253702,Sternberg_updated,30,29836,34,yes,1024
86,86,910,910,black,no,experiment,Mozilla,Netscape,5.0 (Windows),legacy,legacy,legacy,0,uniform,0,0,right,34,34,34,34,0,0,0,34,34,0,0,0,34,34,34,0,0,34,34,0,30-08-21,30-08-21,09:17:17,Thu Sep 30 2021 09:17:17 GMT+0200 (Central European Summer Time),The main experiment item,yes,0,0,/Users/ethan/Documents/GitHub/OpenSesame/Sternberg/experiment_files,0,0,0,no,mono,no,18,no,white,no,no,768,98,3.6.1,legacy,legacy,4 1 5,osweb,1.4.0,1,2,y,37,,0,None,,,f11,right,left,None,2012,,,3295,27602,13798,2012,2,legacy,728,1366,24,768,24,-8,-8,1366,1632986228036,3,1024,2,48000,-16,experiment,0,even,Win32,1,257951,,,248394,61,255731,254682,60,3476,106312,259970,256735,261982,61,259970,Sternberg_updated,30,31848,35,yes,1024
86,86,910,910,black,no,experiment,Mozilla,Netscape,5.0 (Windows),legacy,legacy,legacy,0,uniform,1,1,right,35,35,35,35,0,0,0,35,35,0,0,0,35,35,35,0,0,35,35,0,30-08-21,30-08-21,09:17:17,Thu Sep 30 2021 09:17:17 GMT+0200 (Central European Summer Time),The main experiment item,yes,0,0,/Users/ethan/Documents/GitHub/OpenSesame/Sternberg/experiment_files,0,0,0,no,mono,no,18,no,white,no,no,768,98,3.6.1,legacy,legacy,6 7 9 3 1 2,osweb,1.4.0,1,1,y,37,,0,right,,,f11,right,left,right,899,,,3295,27602,13798,899,2,legacy,728,1366,24,768,24,-8,-8,1366,1632986228036,6,1024,2,48000,-16,experiment,0,even,Win32,6,265255,,,248394,61,263037,261988,60,3476,106312,267276,264041,268189,61,267276,Sternberg_updated,31,32747,36,yes,1024
86,86,910,910,black,no,experiment,Mozilla,Netscape,5.0 (Windows),legacy,legacy,legacy,0,uniform,1,1,left,36,36,36,36,0,0,0,36,36,0,0,0,36,36,36,0,0,36,36,0,30-08-21,30-08-21,09:17:17,Thu Sep 30 2021 09:17:17 GMT+0200 (Central European Summer Time),The main experiment item,yes,0,0,/Users/ethan/Documents/GitHub/OpenSesame/Sternberg/experiment_files,0,0,0,no,mono,no,18,no,white,no,no,768,98,3.6.1,legacy,legacy,1 4 3 6 5,osweb,1.4.0,1,0,n,37,,0,left,,,f11,right,left,left,936,,,3295,27602,13798,936,2,legacy,728,1366,24,768,24,-8,-8,1366,1632986228036,5,1024,2,48000,-16,experiment,0,even,Win32,8,271483,,,268194,61,269247,261988,60,3476,106312,273503,270269,274457,61,273503,Sternberg_updated,32,33683,37,yes,1024
87,87,910,910,black,no,experiment,Mozilla,Netscape,5.0 (Windows),legacy,legacy,legacy,0,uniform,1,1,left,37,37,37,37,0,0,0,37,37,0,0,0,37,37,37,0,0,37,37,0,30-08-21,30-08-21,09:17:17,Thu Sep 30 2021 09:17:17 GMT+0200 (Central European Summer Time),The main experiment item,yes,0,0,/Users/ethan/Documents/GitHub/OpenSesame/Sternberg/experiment_files,0,0,0,no,mono,no,18,no,white,no,no,768,98,3.6.1,legacy,legacy,5,osweb,1.4.0,1,0,n,37,,0,left,,,f11,right,left,left,888,,,3295,27602,13798,888,2,legacy,728,1366,24,768,24,-8,-8,1366,1632986228036,1,1024,2,48000,-16,experiment,0,even,Win32,8,277750,,,274462,61,275513,261988,60,3476,106312,279771,276537,280665,61,279770,Sternberg_updated,33,34571,38,yes,1024
87,87,909,909,black,no,experiment,Mozilla,Netscape,5.0 (Windows),legacy,legacy,legacy,0,uniform,1,1,right,38,38,38,38,0,0,0,38,38,0,0,0,38,38,38,0,0,38,38,0,30-08-21,30-08-21,09:17:17,Thu Sep 30 2021 09:17:17 GMT+0200 (Central European Summer Time),The main experiment item,yes,0,0,/Users/ethan/Documents/GitHub/OpenSesame/Sternberg/experiment_files,0,0,0,no,mono,no,18,no,white,no,no,768,98,3.6.1,legacy,legacy,8 5 4 7 3 1,osweb,1.4.0,1,2,y,37,,0,right,,,f11,right,left,right,892,,,3295,27602,13798,892,2,legacy,728,1366,24,768,24,-8,-8,1366,1632986228036,6,1024,2,48000,-16,experiment,0,even,Win32,5,283959,,,280669,61,281721,261988,60,3476,106312,285979,282743,286872,61,285979,Sternberg_updated,34,35463,39,yes,1024
88,88,904,904,black,no,experiment,Mozilla,Netscape,5.0 (Windows),legacy,legacy,legacy,0,uniform,1,1,left,39,39,39,39,0,0,0,39,39,0,0,0,39,39,39,0,0,39,39,0,30-08-21,30-08-21,09:17:17,Thu Sep 30 2021 09:17:17 GMT+0200 (Central European Summer Time),The main experiment item,yes,0,0,/Users/ethan/Documents/GitHub/OpenSesame/Sternberg/experiment_files,0,0,0,no,mono,no,18,no,white,no,no,768,98,3.6.1,legacy,legacy,6 2 9 3 8 4,osweb,1.4.0,1,0,n,37,,0,left,,,f11,right,left,left,702,,,3295,27602,13798,702,2,legacy,728,1366,24,768,24,-8,-8,1366,1632986228036,6,1024,2,48000,-16,experiment,0,even,Win32,1,290166,,,286878,61,287929,261988,60,3476,106312,292186,288950,292900,61,292186,Sternberg_updated,35,36165,40,yes,1024
85,85,904,904,black,no,experiment,Mozilla,Netscape,5.0 (Windows),legacy,legacy,legacy,0,uniform,0,0,left,40,40,40,40,0,0,0,40,40,0,0,0,40,40,40,0,0,40,40,0,30-08-21,30-08-21,09:17:17,Thu Sep 30 2021 09:17:17 GMT+0200 (Central European Summer Time),The main experiment item,yes,0,0,/Users/ethan/Documents/GitHub/OpenSesame/Sternberg/experiment_files,0,0,0,no,mono,no,18,no,white,no,no,768,98,3.6.1,legacy,legacy,8 6 3 4 7,osweb,1.4.0,1,0,n,37,,0,right,,,f11,right,left,right,917,,,3295,27602,13798,917,2,legacy,728,1366,24,768,24,-8,-8,1366,1632986228036,5,1024,2,48000,-16,experiment,0,even,Win32,1,296194,,,292905,61,293958,261988,60,3476,106312,298214,294979,299148,61,298213,Sternberg_updated,35,37082,41,yes,1024
86,86,906,906,black,no,experiment,Mozilla,Netscape,5.0 (Windows),legacy,legacy,legacy,0,uniform,1,1,right,41,41,41,41,0,0,0,41,41,0,0,0,41,41,41,0,0,41,41,0,30-08-21,30-08-21,09:17:17,Thu Sep 30 2021 09:17:17 GMT+0200 (Central European Summer Time),The main experiment item,yes,0,0,/Users/ethan/Documents/GitHub/OpenSesame/Sternberg/experiment_files,0,0,0,no,mono,no,18,no,white,no,no,768,98,3.6.1,legacy,legacy,3 4,osweb,1.4.0,1,1,y,37,,0,right,,,f11,right,left,right,955,,,3295,27602,13798,955,2,legacy,728,1366,24,768,24,-8,-8,1366,1632986228036,2,1024,2,48000,-16,experiment,0,even,Win32,3,302441,,,292905,61,300204,299153,60,3476,106312,304461,301227,305417,61,304461,Sternberg_updated,36,38037,42,yes,1024
84,84,908,908,black,no,experiment,Mozilla,Netscape,5.0 (Windows),legacy,legacy,legacy,0,uniform,0,0,right,42,42,42,42,0,0,0,42,42,0,0,0,42,42,42,0,0,42,42,0,30-08-21,30-08-21,09:17:17,Thu Sep 30 2021 09:17:17 GMT+0200 (Central European Summer Time),The main experiment item,yes,0,0,/Users/ethan/Documents/GitHub/OpenSesame/Sternberg/experiment_files,0,0,0,no,mono,no,18,no,white,no,no,768,98,3.6.1,legacy,legacy,5 7 3 6 2,osweb,1.4.0,1,5,y,37,,0,left,,,f11,right,left,left,1003,,,3295,27602,13798,1003,2,legacy,728,1366,24,768,24,-8,-8,1366,1632986228036,5,1024,2,48000,-16,experiment,0,even,Win32,2,308709,,,305422,61,306476,299153,60,3476,106312,310730,307493,311742,61,310729,Sternberg_updated,36,39040,43,yes,1024
84,84,912,912,black,no,experiment,Mozilla,Netscape,5.0 (Windows),legacy,legacy,legacy,0,uniform,1,1,left,43,43,43,43,0,0,0,43,43,0,0,0,43,43,43,0,0,43,43,0,30-08-21,30-08-21,09:17:17,Thu Sep 30 2021 09:17:17 GMT+0200 (Central European Summer Time),The main experiment item,yes,0,0,/Users/ethan/Documents/GitHub/OpenSesame/Sternberg/experiment_files,0,0,0,no,mono,no,18,no,white,no,no,768,98,3.6.1,legacy,legacy,2 8 6 3 1,osweb,1.4.0,1,0,n,37,,0,left,,,f11,right,left,left,1074,,,3295,27602,13798,1074,2,legacy,728,1366,24,768,24,-8,-8,1366,1632986228036,5,1024,2,48000,-16,experiment,0,even,Win32,7,315036,,,305422,61,312798,311749,60,3476,106312,317055,313821,318130,61,317055,Sternberg_updated,37,40114,44,yes,1024
84,84,912,912,black,no,experiment,Mozilla,Netscape,5.0 (Windows),legacy,legacy,legacy,0,uniform,1,1,left,44,44,44,44,0,0,0,44,44,0,0,0,44,44,44,0,0,44,44,0,30-08-21,30-08-21,09:17:17,Thu Sep 30 2021 09:17:17 GMT+0200 (Central European Summer Time),The main experiment item,yes,0,0,/Users/ethan/Documents/GitHub/OpenSesame/Sternberg/experiment_files,0,0,0,no,mono,no,18,no,white,no,no,768,98,3.6.1,legacy,legacy,7 1 8 4 9 3,osweb,1.4.0,1,0,n,37,,0,left,,,f11,right,left,left,931,,,3295,27602,13798,931,2,legacy,728,1366,24,768,24,-8,-8,1366,1632986228036,6,1024,2,48000,-16,experiment,0,even,Win32,6,321424,,,318135,61,319186,311749,60,3476,106312,323443,320209,324377,61,323442,Sternberg_updated,38,41045,45,yes,1024
85,85,913,913,black,no,experiment,Mozilla,Netscape,5.0 (Windows),legacy,legacy,legacy,0,uniform,1,1,right,45,45,45,45,0,0,0,45,45,0,0,0,45,45,45,0,0,45,45,0,30-08-21,30-08-21,09:17:17,Thu Sep 30 2021 09:17:17 GMT+0200 (Central European Summer Time),The main experiment item,yes,0,0,/Users/ethan/Documents/GitHub/OpenSesame/Sternberg/experiment_files,0,0,0,no,mono,no,18,no,white,no,no,768,98,3.6.1,legacy,legacy,4 9 7 8 5 3,osweb,1.4.0,1,4,y,37,,0,right,,,f11,right,left,right,962,,,3295,27602,13798,962,2,legacy,728,1366,24,768,24,-8,-8,1366,1632986228036,6,1024,2,48000,-16,experiment,0,even,Win32,8,327650,,,324383,61,325432,311749,60,3476,106312,329670,326436,330645,61,329670,Sternberg_updated,39,42007,46,yes,1024
85,85,908,908,black,no,experiment,Mozilla,Netscape,5.0 (Windows),legacy,legacy,legacy,0,uniform,1,1,left,46,46,46,46,0,0,0,46,46,0,0,0,46,46,46,0,0,46,46,0,30-08-21,30-08-21,09:17:17,Thu Sep 30 2021 09:17:17 GMT+0200 (Central European Summer Time),The main experiment item,yes,0,0,/Users/ethan/Documents/GitHub/OpenSesame/Sternberg/experiment_files,0,0,0,no,mono,no,18,no,white,no,no,768,98,3.6.1,legacy,legacy,2 8 9,osweb,1.4.0,1,0,n,37,,0,left,,,f11,right,left,left,674,,,3295,27602,13798,674,2,legacy,728,1366,24,768,24,-8,-8,1366,1632986228036,3,1024,2,48000,-16,experiment,0,even,Win32,6,333939,,,330651,61,331700,311749,60,3476,106312,335957,332723,336634,61,335957,Sternberg_updated,40,42681,47,yes,1024
85,85,903,903,black,no,experiment,Mozilla,Netscape,5.0 (Windows),legacy,legacy,legacy,0,uniform,1,1,left,47,47,47,47,0,0,0,47,47,0,0,0,47,47,47,0,0,47,47,0,30-08-21,30-08-21,09:17:17,Thu Sep 30 2021 09:17:17 GMT+0200 (Central European Summer Time),The main experiment item,yes,0,0,/Users/ethan/Documents/GitHub/OpenSesame/Sternberg/experiment_files,0,0,0,no,mono,no,18,no,white,no,no,768,98,3.6.1,legacy,legacy,7 9,osweb,1.4.0,1,0,n,37,,0,left,,,f11,right,left,left,660,,,3295,27602,13798,660,2,legacy,728,1366,24,768,24,-8,-8,1366,1632986228036,2,1024,2,48000,-16,experiment,0,even,Win32,1,339926,,,336639,61,337688,311749,60,3476,106312,341946,338712,342621,61,341946,Sternberg_updated,41,43341,48,yes,1024
86,86,902,902,black,no,experiment,Mozilla,Netscape,5.0 (Windows),legacy,legacy,legacy,0,uniform,1,1,right,48,48,48,48,0,0,0,48,48,0,0,0,48,48,48,0,0,48,48,0,30-08-21,30-08-21,09:17:17,Thu Sep 30 2021 09:17:17 GMT+0200 (Central European Summer Time),The main experiment item,yes,0,0,/Users/ethan/Documents/GitHub/OpenSesame/Sternberg/experiment_files,0,0,0,no,mono,no,18,no,white,no,no,768,98,3.6.1,legacy,legacy,8 9 6 1,osweb,1.4.0,1,2,y,37,,0,right,,,f11,right,left,right,844,,,3295,27602,13798,844,2,legacy,728,1366,24,768,24,-8,-8,1366,1632986228036,4,1024,2,48000,-16,experiment,0,even,Win32,9,345914,,,342627,61,343678,311749,60,3476,106312,347934,344699,348788,61,347934,Sternberg_updated,42,44185,49,yes,1024
86,86,897,897,black,no,experiment,Mozilla,Netscape,5.0 (Windows),legacy,legacy,legacy,0,uniform,1,1,left,49,49,49,49,0,0,0,49,49,0,0,0,49,49,49,0,0,49,49,0,30-08-21,30-08-21,09:17:17,Thu Sep 30 2021 09:17:17 GMT+0200 (Central European Summer Time),The main experiment item,yes,0,0,/Users/ethan/Documents/GitHub/OpenSesame/Sternberg/experiment_files,0,0,0,no,mono,no,18,no,white,no,no,768,98,3.6.1,legacy,legacy,4 2 6 9,osweb,1.4.0,1,0,n,37,,0,left,,,f11,right,left,left,685,,,3295,27602,13798,685,2,legacy,728,1366,24,768,24,-8,-8,1366,1632986228036,4,1024,2,48000,-16,experiment,0,even,Win32,7,352082,,,348793,61,349845,311749,60,3476,106312,354101,350867,354796,61,354101,Sternberg_updated,43,44870,50,yes,1024
86,86,893,893,black,no,experiment,Mozilla,Netscape,5.0 (Windows),legacy,legacy,legacy,0,uniform,1,1,left,50,50,50,50,0,0,0,50,50,0,0,0,50,50,50,0,0,50,50,0,30-08-21,30-08-21,09:17:17,Thu Sep 30 2021 09:17:17 GMT+0200 (Central European Summer Time),The main experiment item,yes,0,0,/Users/ethan/Documents/GitHub/OpenSesame/Sternberg/experiment_files,0,0,0,no,mono,no,18,no,white,no,no,768,98,3.6.1,legacy,legacy,6 9 4 5 2,osweb,1.4.0,1,0,n,37,,0,left,,,f11,right,left,left,692,,,3295,27602,13798,692,2,legacy,728,1366,24,768,24,-8,-8,1366,1632986228036,5,1024,2,48000,-16,experiment,0,even,Win32,1,358070,,,354802,61,355849,311749,60,3476,106312,360090,356856,360784,61,360089,Sternberg_updated,44,45562,51,yes,1024
87,87,893,893,black,no,experiment,Mozilla,Netscape,5.0 (Windows),legacy,legacy,legacy,0,uniform,1,1,right,51,51,51,51,0,0,0,51,51,0,0,0,51,51,51,0,0,51,51,0,30-08-21,30-08-21,09:17:17,Thu Sep 30 2021 09:17:17 GMT+0200 (Central European Summer Time),The main experiment item,yes,0,0,/Users/ethan/Documents/GitHub/OpenSesame/Sternberg/experiment_files,0,0,0,no,mono,no,18,no,white,no,no,768,98,3.6.1,legacy,legacy,2 3 7 4,osweb,1.4.0,1,1,y,37,,0,right,,,f11,right,left,right,883,,,3295,27602,13798,883,2,legacy,728,1366,24,768,24,-8,-8,1366,1632986228036,4,1024,2,48000,-16,experiment,0,even,Win32,2,364058,,,360789,61,361839,311749,60,3476,106312,366078,362842,366972,61,366078,Sternberg_updated,45,46445,52,yes,1024
87,87,894,894,black,no,experiment,Mozilla,Netscape,5.0 (Windows),legacy,legacy,legacy,0,uniform,1,1,right,52,52,52,52,0,0,0,52,52,0,0,0,52,52,52,0,0,52,52,0,30-08-21,30-08-21,09:17:17,Thu Sep 30 2021 09:17:17 GMT+0200 (Central European Summer Time),The main experiment item,yes,0,0,/Users/ethan/Documents/GitHub/OpenSesame/Sternberg/experiment_files,0,0,0,no,mono,no,18,no,white,no,no,768,98,3.6.1,legacy,legacy,6 2,osweb,1.4.0,1,1,y,37,,0,right,,,f11,right,left,right,915,,,3295,27602,13798,915,2,legacy,728,1366,24,768,24,-8,-8,1366,1632986228036,2,1024,2,48000,-16,experiment,0,even,Win32,6,370265,,,366978,61,368032,311749,60,3476,106312,372285,369051,373219,61,372285,Sternberg_updated,46,47360,53,yes,1024
87,87,890,890,black,no,experiment,Mozilla,Netscape,5.0 (Windows),legacy,legacy,legacy,0,uniform,1,1,left,53,53,53,53,0,0,0,53,53,0,0,0,53,53,53,0,0,53,53,0,30-08-21,30-08-21,09:17:17,Thu Sep 30 2021 09:17:17 GMT+0200 (Central European Summer Time),The main experiment item,yes,0,0,/Users/ethan/Documents/GitHub/OpenSesame/Sternberg/experiment_files,0,0,0,no,mono,no,18,no,white,no,no,768,98,3.6.1,legacy,legacy,1 6 4 3 9 7,osweb,1.4.0,1,0,n,37,,0,left,,,f11,right,left,left,708,,,3295,27602,13798,708,2,legacy,728,1366,24,768,24,-8,-8,1366,1632986228036,6,1024,2,48000,-16,experiment,0,even,Win32,8,376493,,,373224,61,374273,311749,60,3476,106312,378513,375278,379228,61,378513,Sternberg_updated,47,48068,54,yes,1024
87,87,886,886,black,no,experiment,Mozilla,Netscape,5.0 (Windows),legacy,legacy,legacy,0,uniform,1,1,left,54,54,54,54,0,0,0,54,54,0,0,0,54,54,54,0,0,54,54,0,30-08-21,30-08-21,09:17:17,Thu Sep 30 2021 09:17:17 GMT+0200 (Central European Summer Time),The main experiment item,yes,0,0,/Users/ethan/Documents/GitHub/OpenSesame/Sternberg/experiment_files,0,0,0,no,mono,no,18,no,white,no,no,768,98,3.6.1,legacy,legacy,7 1,osweb,1.4.0,1,0,n,37,,0,left,,,f11,right,left,left,638,,,3295,27602,13798,638,2,legacy,728,1366,24,768,24,-8,-8,1366,1632986228036,2,1024,2,48000,-16,experiment,0,even,Win32,8,382521,,,379232,61,380283,311749,60,3476,106312,384541,381307,385195,61,384541,Sternberg_updated,48,48706,55,yes,1024
88,88,887,887,black,no,experiment,Mozilla,Netscape,5.0 (Windows),legacy,legacy,legacy,0,uniform,1,1,left,55,55,55,55,0,0,0,55,55,0,0,0,55,55,55,0,0,55,55,0,30-08-21,30-08-21,09:17:17,Thu Sep 30 2021 09:17:17 GMT+0200 (Central European Summer Time),The main experiment item,yes,0,0,/Users/ethan/Documents/GitHub/OpenSesame/Sternberg/experiment_files,0,0,0,no,mono,no,18,no,white,no,no,768,98,3.6.1,legacy,legacy,1 7 5 2,osweb,1.4.0,1,0,n,37,,0,left,right,,f11,right,left,left,948,24410,,3295,27602,13798,948,2,legacy,728,1366,24,768,24,-8,-8,1366,1632986228036,4,1024,2,48000,-16,experiment,0,even,Win32,3,412920,386225,,385200,61,410688,311749,60,3476,106312,414939,411705,415894,61,414939,Sternberg_updated,49,49654,56,yes,1024
88,88,882,882,black,no,experiment,Mozilla,Netscape,5.0 (Windows),legacy,legacy,legacy,0,uniform,1,1,left,56,56,56,56,0,0,0,56,56,0,0,0,56,56,56,0,0,56,56,0,30-08-21,30-08-21,09:17:17,Thu Sep 30 2021 09:17:17 GMT+0200 (Central European Summer Time),The main experiment item,yes,0,0,/Users/ethan/Documents/GitHub/OpenSesame/Sternberg/experiment_files,0,0,0,no,mono,no,18,no,white,no,no,768,98,3.6.1,legacy,legacy,1 6 4,osweb,1.4.0,1,0,n,37,,0,left,right,,f11,right,left,left,637,24410,,3295,27602,13798,637,2,legacy,728,1366,24,768,24,-8,-8,1366,1632986228036,3,1024,2,48000,-16,experiment,0,even,Win32,7,419187,386225,,415899,61,416950,311749,60,3476,106312,421208,417972,421862,61,421208,Sternberg_updated,50,50291,57,yes,1024
88,88,879,879,black,no,experiment,Mozilla,Netscape,5.0 (Windows),legacy,legacy,legacy,0,uniform,1,1,left,57,57,57,57,0,0,0,57,57,0,0,0,57,57,57,0,0,57,57,0,30-08-21,30-08-21,09:17:17,Thu Sep 30 2021 09:17:17 GMT+0200 (Central European Summer Time),The main experiment item,yes,0,0,/Users/ethan/Documents/GitHub/OpenSesame/Sternberg/experiment_files,0,0,0,no,mono,no,18,no,white,no,no,768,98,3.6.1,legacy,legacy,2 3 8 5 6 7,osweb,1.4.0,1,0,n,37,,0,left,right,,f11,right,left,left,707,24410,,3295,27602,13798,707,2,legacy,728,1366,24,768,24,-8,-8,1366,1632986228036,6,1024,2,48000,-16,experiment,0,even,Win32,1,425156,386225,,421868,61,422918,311749,60,3476,106312,427176,423941,427889,61,427176,Sternberg_updated,51,50998,58,yes,1024
88,88,874,874,black,no,experiment,Mozilla,Netscape,5.0 (Windows),legacy,legacy,legacy,0,uniform,1,1,left,58,58,58,58,0,0,0,58,58,0,0,0,58,58,58,0,0,58,58,0,30-08-21,30-08-21,09:17:17,Thu Sep 30 2021 09:17:17 GMT+0200 (Central European Summer Time),The main experiment item,yes,0,0,/Users/ethan/Documents/GitHub/OpenSesame/Sternberg/experiment_files,0,0,0,no,mono,no,18,no,white,no,no,768,98,3.6.1,legacy,legacy,6 8 4,osweb,1.4.0,1,0,n,37,,0,left,right,,f11,right,left,left,543,24410,,3295,27602,13798,543,2,legacy,728,1366,24,768,24,-8,-8,1366,1632986228036,3,1024,2,48000,-16,experiment,0,even,Win32,1,431183,386225,,427895,61,428956,311749,60,3476,106312,433203,429968,433758,61,433203,Sternberg_updated,52,51541,59,yes,1024
88,88,874,874,black,no,experiment,Mozilla,Netscape,5.0 (Windows),legacy,legacy,legacy,0,uniform,1,1,right,59,59,59,59,0,0,0,59,59,0,0,0,59,59,59,0,0,59,59,0,30-08-21,30-08-21,09:17:17,Thu Sep 30 2021 09:17:17 GMT+0200 (Central European Summer Time),The main experiment item,yes,0,0,/Users/ethan/Documents/GitHub/OpenSesame/Sternberg/experiment_files,0,0,0,no,mono,no,18,no,white,no,no,768,98,3.6.1,legacy,legacy,9 4 2,osweb,1.4.0,1,1,y,37,,0,right,right,,f11,right,left,right,919,24410,,3295,27602,13798,919,2,legacy,728,1366,24,768,24,-8,-8,1366,1632986228036,3,1024,2,48000,-16,experiment,0,even,Win32,9,437051,386225,,433764,61,434817,311749,60,3476,106312,439072,435837,440005,61,439071,Sternberg_updated,53,52460,60,yes,1024
89,89,879,879,black,no,experiment,Mozilla,Netscape,5.0 (Windows),legacy,legacy,legacy,0,uniform,1,1,left,60,60,60,60,0,0,0,60,60,0,0,0,60,60,60,0,0,60,60,0,30-08-21,30-08-21,09:17:17,Thu Sep 30 2021 09:17:17 GMT+0200 (Central European Summer Time),The main experiment item,yes,0,0,/Users/ethan/Documents/GitHub/OpenSesame/Sternberg/experiment_files,0,0,0,no,mono,no,18,no,white,no,no,768,98,3.6.1,legacy,legacy,9 7 4 5 8,osweb,1.4.0,1,0,n,37,,0,left,right,,f11,right,left,left,1187,24410,,3295,27602,13798,1187,2,legacy,728,1366,24,768,24,-8,-8,1366,1632986228036,5,1024,2,48000,-16,experiment,0,even,Win32,6,443280,386225,,440010,61,441059,311749,60,3476,106312,445299,442065,446492,61,445299,Sternberg_updated,54,53647,61,yes,1024
87,87,880,880,black,no,experiment,Mozilla,Netscape,5.0 (Windows),legacy,legacy,legacy,0,uniform,0,0,left,61,61,61,61,0,0,0,61,61,0,0,0,61,61,61,0,0,61,61,0,30-08-21,30-08-21,09:17:17,Thu Sep 30 2021 09:17:17 GMT+0200 (Central European Summer Time),The main experiment item,yes,0,0,/Users/ethan/Documents/GitHub/OpenSesame/Sternberg/experiment_files,0,0,0,no,mono,no,18,no,white,no,no,768,98,3.6.1,legacy,legacy,3 4 2,osweb,1.4.0,1,0,n,37,,0,right,right,,f11,right,left,right,943,24410,,3295,27602,13798,943,2,legacy,728,1366,24,768,24,-8,-8,1366,1632986228036,3,1024,2,48000,-16,experiment,0,even,Win32,5,449786,386225,,446498,61,447548,311749,60,3476,106312,451803,448570,452760,61,451803,Sternberg_updated,54,54590,62,yes,1024
87,87,878,878,black,no,experiment,Mozilla,Netscape,5.0 (Windows),legacy,legacy,legacy,0,uniform,1,1,left,62,62,62,62,0,0,0,62,62,0,0,0,62,62,62,0,0,62,62,0,30-08-21,30-08-21,09:17:17,Thu Sep 30 2021 09:17:17 GMT+0200 (Central European Summer Time),The main experiment item,yes,0,0,/Users/ethan/Documents/GitHub/OpenSesame/Sternberg/experiment_files,0,0,0,no,mono,no,18,no,white,no,no,768,98,3.6.1,legacy,legacy,1,osweb,1.4.0,1,0,n,37,,0,left,right,,f11,right,left,left,739,24410,,3295,27602,13798,739,2,legacy,728,1366,24,768,24,-8,-8,1366,1632986228036,1,1024,2,48000,-16,experiment,0,even,Win32,7,456055,386225,,446498,61,453818,452765,60,3476,106312,458073,454838,458827,61,458073,Sternberg_updated,55,55329,63,yes,1024
88,88,883,883,black,no,experiment,Mozilla,Netscape,5.0 (Windows),legacy,legacy,legacy,0,uniform,1,1,right,63,63,63,63,0,0,0,63,63,0,0,0,63,63,63,0,0,63,63,0,30-08-21,30-08-21,09:17:17,Thu Sep 30 2021 09:17:17 GMT+0200 (Central European Summer Time),The main experiment item,yes,0,0,/Users/ethan/Documents/GitHub/OpenSesame/Sternberg/experiment_files,0,0,0,no,mono,no,18,no,white,no,no,768,98,3.6.1,legacy,legacy,6 8 9 3 4 9,osweb,1.4.0,1,5,y,37,,0,right,right,,f11,right,left,right,1201,24410,,3295,27602,13798,1201,2,legacy,728,1366,24,768,24,-8,-8,1366,1632986228036,6,1024,2,48000,-16,experiment,0,even,Win32,4,462122,386225,,458834,61,459885,452765,60,3476,106312,464142,460906,465355,61,464142,Sternberg_updated,56,56530,64,yes,1024
88,88,882,882,black,no,experiment,Mozilla,Netscape,5.0 (Windows),legacy,legacy,legacy,0,uniform,1,1,right,64,64,64,64,0,0,0,64,64,0,0,0,64,64,64,0,0,64,64,0,30-08-21,30-08-21,09:17:17,Thu Sep 30 2021 09:17:17 GMT+0200 (Central European Summer Time),The main experiment item,yes,0,0,/Users/ethan/Documents/GitHub/OpenSesame/Sternberg/experiment_files,0,0,0,no,mono,no,18,no,white,no,no,768,98,3.6.1,legacy,legacy,4 6 5 8,osweb,1.4.0,1,1,y,37,,0,right,right,,f11,right,left,right,786,24410,,3295,27602,13798,786,2,legacy,728,1366,24,768,24,-8,-8,1366,1632986228036,4,1024,2,48000,-16,experiment,0,even,Win32,4,468649,386225,,465360,61,466414,452765,60,3476,106312,470668,467434,471463,61,470668,Sternberg_updated,57,57316,65,yes,1024
88,88,880,880,black,no,experiment,Mozilla,Netscape,5.0 (Windows),legacy,legacy,legacy,0,uniform,1,1,right,65,65,65,65,0,0,0,65,65,0,0,0,65,65,65,0,0,65,65,0,30-08-21,30-08-21,09:17:17,Thu Sep 30 2021 09:17:17 GMT+0200 (Central European Summer Time),The main experiment item,yes,0,0,/Users/ethan/Documents/GitHub/OpenSesame/Sternberg/experiment_files,0,0,0,no,mono,no,18,no,white,no,no,768,98,3.6.1,legacy,legacy,8,osweb,1.4.0,1,1,y,37,,0,right,right,,f11,right,left,right,743,24410,,3295,27602,13798,743,2,legacy,728,1366,24,768,24,-8,-8,1366,1632986228036,1,1024,2,48000,-16,experiment,0,even,Win32,8,474756,386225,,471468,61,472525,452765,60,3476,106312,476776,473542,477530,61,476776,Sternberg_updated,58,58059,66,yes,1024
88,88,883,883,black,no,experiment,Mozilla,Netscape,5.0 (Windows),legacy,legacy,legacy,0,uniform,1,1,right,66,66,66,66,0,0,0,66,66,0,0,0,66,66,66,0,0,66,66,0,30-08-21,30-08-21,09:17:17,Thu Sep 30 2021 09:17:17 GMT+0200 (Central European Summer Time),The main experiment item,yes,0,0,/Users/ethan/Documents/GitHub/OpenSesame/Sternberg/experiment_files,0,0,0,no,mono,no,18,no,white,no,no,768,98,3.6.1,legacy,legacy,9 3 1 2 5,osweb,1.4.0,1,4,y,37,,0,right,right,,f11,right,left,right,1124,24410,,3295,27602,13798,1124,2,legacy,728,1366,24,768,24,-8,-8,1366,1632986228036,5,1024,2,48000,-16,experiment,0,even,Win32,2,480804,386225,,477536,61,478585,452765,60,3476,106312,482824,479589,483958,61,482823,Sternberg_updated,59,59183,67,yes,1024
88,88,881,881,black,no,experiment,Mozilla,Netscape,5.0 (Windows),legacy,legacy,legacy,0,uniform,1,1,left,67,67,67,67,0,0,0,67,67,0,0,0,67,67,67,0,0,67,67,0,30-08-21,30-08-21,09:17:17,Thu Sep 30 2021 09:17:17 GMT+0200 (Central European Summer Time),The main experiment item,yes,0,0,/Users/ethan/Documents/GitHub/OpenSesame/Sternberg/experiment_files,0,0,0,no,mono,no,18,no,white,no,no,768,98,3.6.1,legacy,legacy,6 9 5,osweb,1.4.0,1,0,n,37,,0,left,right,,f11,right,left,left,712,24410,,3295,27602,13798,712,2,legacy,728,1366,24,768,24,-8,-8,1366,1632986228036,3,1024,2,48000,-16,experiment,0,even,Win32,8,487231,386225,,483962,61,485012,452765,60,3476,106312,489251,486016,489965,61,489251,Sternberg_updated,60,59895,68,yes,1024
88,88,880,880,black,no,experiment,Mozilla,Netscape,5.0 (Windows),legacy,legacy,legacy,0,uniform,1,1,left,68,68,68,68,0,0,0,68,68,0,0,0,68,68,68,0,0,68,68,0,30-08-21,30-08-21,09:17:17,Thu Sep 30 2021 09:17:17 GMT+0200 (Central European Summer Time),The main experiment item,yes,0,0,/Users/ethan/Documents/GitHub/OpenSesame/Sternberg/experiment_files,0,0,0,no,mono,no,18,no,white,no,no,768,98,3.6.1,legacy,legacy,2 8 7 9 5 3,osweb,1.4.0,1,0,n,37,,0,left,right,,f11,right,left,left,822,24410,,3295,27602,13798,822,2,legacy,728,1366,24,768,24,-8,-8,1366,1632986228036,6,1024,2,48000,-16,experiment,0,even,Win32,6,493239,386225,,489971,61,491021,452765,60,3476,106312,495259,492025,496093,61,495258,Sternberg_updated,61,60717,69,yes,1024
89,89,880,880,black,no,experiment,Mozilla,Netscape,5.0 (Windows),legacy,legacy,legacy,0,uniform,1,1,right,69,69,69,69,0,0,0,69,69,0,0,0,69,69,69,0,0,69,69,0,30-08-21,30-08-21,09:17:17,Thu Sep 30 2021 09:17:17 GMT+0200 (Central European Summer Time),The main experiment item,yes,0,0,/Users/ethan/Documents/GitHub/OpenSesame/Sternberg/experiment_files,0,0,0,no,mono,no,18,no,white,no,no,768,98,3.6.1,legacy,legacy,9 6 2 4 1,osweb,1.4.0,1,4,y,37,,0,right,right,,f11,right,left,right,860,24410,,3295,27602,13798,860,2,legacy,728,1366,24,768,24,-8,-8,1366,1632986228036,5,1024,2,48000,-16,experiment,0,even,Win32,4,499367,386225,,496098,61,497147,452765,60,3476,106312,501386,498152,502261,61,501386,Sternberg_updated,62,61577,70,yes,1024
89,89,878,878,black,no,experiment,Mozilla,Netscape,5.0 (Windows),legacy,legacy,legacy,0,uniform,1,1,left,70,70,70,70,0,0,0,70,70,0,0,0,70,70,70,0,0,70,70,0,30-08-21,30-08-21,09:17:17,Thu Sep 30 2021 09:17:17 GMT+0200 (Central European Summer Time),The main experiment item,yes,0,0,/Users/ethan/Documents/GitHub/OpenSesame/Sternberg/experiment_files,0,0,0,no,mono,no,18,no,white,no,no,768,98,3.6.1,legacy,legacy,6 9 7 3 8 2,osweb,1.4.0,1,0,n,37,,0,left,right,,f11,right,left,left,738,24410,,3295,27602,13798,738,2,legacy,728,1366,24,768,24,-8,-8,1366,1632986228036,6,1024,2,48000,-16,experiment,0,even,Win32,5,505535,386225,,502266,61,503315,452765,60,3476,106312,507555,504320,508309,61,507555,Sternberg_updated,63,62315,71,yes,1024
89,89,879,879,black,no,experiment,Mozilla,Netscape,5.0 (Windows),legacy,legacy,legacy,0,uniform,1,1,right,71,71,71,71,0,0,0,71,71,0,0,0,71,71,71,0,0,71,71,0,30-08-21,30-08-21,09:17:17,Thu Sep 30 2021 09:17:17 GMT+0200 (Central European Summer Time),The main experiment item,yes,0,0,/Users/ethan/Documents/GitHub/OpenSesame/Sternberg/experiment_files,0,0,0,no,mono,no,18,no,white,no,no,768,98,3.6.1,legacy,legacy,8 9 5 6 7,osweb,1.4.0,1,1,y,37,,0,right,right,,f11,right,left,right,946,24410,,3295,27602,13798,946,2,legacy,728,1366,24,768,24,-8,-8,1366,1632986228036,5,1024,2,48000,-16,experiment,0,even,Win32,8,511583,386225,,508312,61,509364,452765,60,3476,106312,513602,510368,514556,61,513602,Sternberg_updated,64,63261,72,yes,1024
88,88,884,884,black,no,experiment,Mozilla,Netscape,5.0 (Windows),legacy,legacy,legacy,0,uniform,0,0,right,72,72,72,72,0,0,0,72,72,0,0,0,72,72,72,0,0,72,72,0,30-08-21,30-08-21,09:17:17,Thu Sep 30 2021 09:17:17 GMT+0200 (Central European Summer Time),The main experiment item,yes,0,0,/Users/ethan/Documents/GitHub/OpenSesame/Sternberg/experiment_files,0,0,0,no,mono,no,18,no,white,no,no,768,98,3.6.1,legacy,legacy,6 9 3 1,osweb,1.4.0,1,4,y,37,,0,left,right,,f11,right,left,left,1292,24410,,3295,27602,13798,1292,2,legacy,728,1366,24,768,24,-8,-8,1366,1632986228036,4,1024,2,48000,-16,experiment,0,even,Win32,1,517850,386225,,514561,61,515612,452765,60,3476,106312,519870,516635,521164,61,519870,Sternberg_updated,64,64553,73,yes,1024
88,88,885,885,black,no,experiment,Mozilla,Netscape,5.0 (Windows),legacy,legacy,legacy,0,uniform,1,1,right,73,73,73,73,0,0,0,73,73,0,0,0,73,73,73,0,0,73,73,0,30-08-21,30-08-21,09:17:17,Thu Sep 30 2021 09:17:17 GMT+0200 (Central European Summer Time),The main experiment item,yes,0,0,/Users/ethan/Documents/GitHub/OpenSesame/Sternberg/experiment_files,0,0,0,no,mono,no,18,no,white,no,no,768,98,3.6.1,legacy,legacy,8 1 6,osweb,1.4.0,1,3,y,37,,0,right,right,,f11,right,left,right,968,24410,,3295,27602,13798,968,2,legacy,728,1366,24,768,24,-8,-8,1366,1632986228036,3,1024,2,48000,-16,experiment,0,even,Win32,6,524457,386225,,514561,61,522219,521171,60,3476,106312,526478,523242,527450,61,526478,Sternberg_updated,65,65521,74,yes,1024
88,88,883,883,black,no,experiment,Mozilla,Netscape,5.0 (Windows),legacy,legacy,legacy,0,uniform,1,1,left,74,74,74,74,0,0,0,74,74,0,0,0,74,74,74,0,0,74,74,0,30-08-21,30-08-21,09:17:17,Thu Sep 30 2021 09:17:17 GMT+0200 (Central European Summer Time),The main experiment item,yes,0,0,/Users/ethan/Documents/GitHub/OpenSesame/Sternberg/experiment_files,0,0,0,no,mono,no,18,no,white,no,no,768,98,3.6.1,legacy,legacy,3 9 8 1 6 4,osweb,1.4.0,1,0,n,37,,0,left,right,,f11,right,left,left,737,24410,,3295,27602,13798,737,2,legacy,728,1366,24,768,24,-8,-8,1366,1632986228036,6,1024,2,48000,-16,experiment,0,even,Win32,7,530745,386225,,527456,61,528507,521171,60,3476,106312,532765,529529,533518,61,532764,Sternberg_updated,66,66258,75,yes,1024
88,88,884,884,black,no,experiment,Mozilla,Netscape,5.0 (Windows),legacy,legacy,legacy,0,uniform,1,1,left,75,75,75,75,0,0,0,75,75,0,0,0,75,75,75,0,0,75,75,0,30-08-21,30-08-21,09:17:17,Thu Sep 30 2021 09:17:17 GMT+0200 (Central European Summer Time),The main experiment item,yes,0,0,/Users/ethan/Documents/GitHub/OpenSesame/Sternberg/experiment_files,0,0,0,no,mono,no,18,no,white,no,no,768,98,3.6.1,legacy,legacy,3 4 9 6 7 8,osweb,1.4.0,1,0,n,37,,0,left,right,,f11,right,left,left,900,24410,,3295,27602,13798,900,2,legacy,728,1366,24,768,24,-8,-8,1366,1632986228036,6,1024,2,48000,-16,experiment,0,even,Win32,2,536812,386225,,533524,61,534574,521171,60,3476,106312,538831,535597,539746,61,538831,Sternberg_updated,67,67158,76,yes,1024
88,88,886,886,black,no,experiment,Mozilla,Netscape,5.0 (Windows),legacy,legacy,legacy,0,uniform,1,1,left,76,76,76,76,0,0,0,76,76,0,0,0,76,76,76,0,0,76,76,0,30-08-21,30-08-21,09:17:17,Thu Sep 30 2021 09:17:17 GMT+0200 (Central European Summer Time),The main experiment item,yes,0,0,/Users/ethan/Documents/GitHub/OpenSesame/Sternberg/experiment_files,0,0,0,no,mono,no,18,no,white,no,no,768,98,3.6.1,legacy,legacy,7 1 5 6 3,osweb,1.4.0,1,0,n,37,,0,left,right,,f11,right,left,left,1055,24410,,3295,27602,13798,1055,2,legacy,728,1366,24,768,24,-8,-8,1366,1632986228036,5,1024,2,48000,-16,experiment,0,even,Win32,8,543040,386225,,539751,61,540803,521171,60,3476,106312,545059,541824,546114,61,545059,Sternberg_updated,68,68213,77,yes,1024
87,87,886,886,black,no,experiment,Mozilla,Netscape,5.0 (Windows),legacy,legacy,legacy,0,uniform,0,0,left,77,77,77,77,0,0,0,77,77,0,0,0,77,77,77,0,0,77,77,0,30-08-21,30-08-21,09:17:17,Thu Sep 30 2021 09:17:17 GMT+0200 (Central European Summer Time),The main experiment item,yes,0,0,/Users/ethan/Documents/GitHub/OpenSesame/Sternberg/experiment_files,0,0,0,no,mono,no,18,no,white,no,no,768,98,3.6.1,legacy,legacy,8 4 3 9,osweb,1.4.0,1,0,n,37,,0,right,right,,f11,right,left,right,910,24410,,3295,27602,13798,910,2,legacy,728,1366,24,768,24,-8,-8,1366,1632986228036,4,1024,2,48000,-16,experiment,0,even,Win32,5,549387,386225,,546119,61,547168,521171,60,3476,106312,551407,548172,552320,61,551407,Sternberg_updated,68,69123,78,yes,1024
87,87,892,892,black,no,experiment,Mozilla,Netscape,5.0 (Windows),legacy,legacy,legacy,0,uniform,1,1,right,78,78,78,78,0,0,0,78,78,0,0,0,78,78,78,0,0,78,78,0,30-08-21,30-08-21,09:17:17,Thu Sep 30 2021 09:17:17 GMT+0200 (Central European Summer Time),The main experiment item,yes,0,0,/Users/ethan/Documents/GitHub/OpenSesame/Sternberg/experiment_files,0,0,0,no,mono,no,18,no,white,no,no,768,98,3.6.1,legacy,legacy,7 2 3,osweb,1.4.0,1,3,y,37,,0,right,right,,f11,right,left,right,1350,24410,,3295,27602,13798,1350,2,legacy,728,1366,24,768,24,-8,-8,1366,1632986228036,3,1024,2,48000,-16,experiment,0,even,Win32,3,555615,386225,,546119,61,553377,552326,60,3476,106312,557635,554399,558987,61,557633,Sternberg_updated,69,70473,79,yes,1024
86,86,893,893,black,no,experiment,Mozilla,Netscape,5.0 (Windows),legacy,legacy,legacy,0,uniform,0,0,right,79,79,79,79,0,0,0,79,79,0,0,0,79,79,79,0,0,79,79,0,30-08-21,30-08-21,09:17:17,Thu Sep 30 2021 09:17:17 GMT+0200 (Central European Summer Time),The main experiment item,yes,0,0,/Users/ethan/Documents/GitHub/OpenSesame/Sternberg/experiment_files,0,0,0,no,mono,no,18,no,white,no,no,768,98,3.6.1,legacy,legacy,3 9 7 6 4,osweb,1.4.0,1,3,y,37,,0,left,right,,f11,right,left,left,967,24410,,3295,27602,13798,967,2,legacy,728,1366,24,768,24,-8,-8,1366,1632986228036,5,1024,2,48000,-16,experiment,0,even,Win32,7,562261,386225,,558992,61,560041,552326,60,3476,106312,564281,561047,565255,61,564281,Sternberg_updated,69,71440,80,yes,1024
86,86,892,892,black,no,experiment,Mozilla,Netscape,5.0 (Windows),legacy,legacy,legacy,0,uniform,1,1,right,80,80,80,80,0,0,0,80,80,0,0,0,80,80,80,0,0,80,80,0,30-08-21,30-08-21,09:17:17,Thu Sep 30 2021 09:17:17 GMT+0200 (Central European Summer Time),The main experiment item,yes,0,0,/Users/ethan/Documents/GitHub/OpenSesame/Sternberg/experiment_files,0,0,0,no,mono,no,18,no,white,no,no,768,98,3.6.1,legacy,legacy,6 1 2,osweb,1.4.0,1,3,y,37,,0,right,right,,f11,right,left,right,774,24410,,3295,27602,13798,774,2,legacy,728,1366,24,768,24,-8,-8,1366,1632986228036,3,1024,2,48000,-16,experiment,0,even,Win32,2,568549,386225,,558992,61,566311,565260,60,3476,106312,570568,567334,571343,61,570568,Sternberg_updated,70,72214,81,yes,1024
87,87,892,892,black,no,experiment,Mozilla,Netscape,5.0 (Windows),legacy,legacy,legacy,0,uniform,1,1,left,81,81,81,81,0,0,0,81,81,0,0,0,81,81,81,0,0,81,81,0,30-08-21,30-08-21,09:17:17,Thu Sep 30 2021 09:17:17 GMT+0200 (Central European Summer Time),The main experiment item,yes,0,0,/Users/ethan/Documents/GitHub/OpenSesame/Sternberg/experiment_files,0,0,0,no,mono,no,18,no,white,no,no,768,98,3.6.1,legacy,legacy,6 9 4 5 3 2,osweb,1.4.0,1,0,n,37,,0,left,right,,f11,right,left,left,929,24410,,3295,27602,13798,929,2,legacy,728,1366,24,768,24,-8,-8,1366,1632986228036,6,1024,2,48000,-16,experiment,0,even,Win32,8,574616,386225,,571348,61,572397,565260,60,3476,106312,576637,573401,577570,61,576636,Sternberg_updated,71,73143,82,yes,1024
87,87,894,894,black,no,experiment,Mozilla,Netscape,5.0 (Windows),legacy,legacy,legacy,0,uniform,1,1,left,82,82,82,82,0,0,0,82,82,0,0,0,82,82,82,0,0,82,82,0,30-08-21,30-08-21,09:17:17,Thu Sep 30 2021 09:17:17 GMT+0200 (Central European Summer Time),The main experiment item,yes,0,0,/Users/ethan/Documents/GitHub/OpenSesame/Sternberg/experiment_files,0,0,0,no,mono,no,18,no,white,no,no,768,98,3.6.1,legacy,legacy,1 3 2 6 9,osweb,1.4.0,1,0,n,37,,0,left,right,,f11,right,left,left,1039,24410,,3295,27602,13798,1039,2,legacy,728,1366,24,768,24,-8,-8,1366,1632986228036,5,1024,2,48000,-16,experiment,0,even,Win32,5,580864,386225,,577575,61,578627,565260,60,3476,106312,582884,579649,583938,61,582884,Sternberg_updated,72,74182,83,yes,1024
87,87,892,892,black,no,experiment,Mozilla,Netscape,5.0 (Windows),legacy,legacy,legacy,0,uniform,1,1,right,83,83,83,83,0,0,0,83,83,0,0,0,83,83,83,0,0,83,83,0,30-08-21,30-08-21,09:17:17,Thu Sep 30 2021 09:17:17 GMT+0200 (Central European Summer Time),The main experiment item,yes,0,0,/Users/ethan/Documents/GitHub/OpenSesame/Sternberg/experiment_files,0,0,0,no,mono,no,18,no,white,no,no,768,98,3.6.1,legacy,legacy,9 3 8 2 1 4,osweb,1.4.0,1,3,y,37,,0,right,right,,f11,right,left,right,762,24410,,3295,27602,13798,762,2,legacy,728,1366,24,768,24,-8,-8,1366,1632986228036,6,1024,2,48000,-16,experiment,0,even,Win32,8,587211,386225,,583942,61,584992,565260,60,3476,106312,589232,585996,590006,61,589232,Sternberg_updated,73,74944,84,yes,1024
86,86,893,893,black,no,experiment,Mozilla,Netscape,5.0 (Windows),legacy,legacy,legacy,0,uniform,0,0,right,84,84,84,84,0,0,0,84,84,0,0,0,84,84,84,0,0,84,84,0,30-08-21,30-08-21,09:17:17,Thu Sep 30 2021 09:17:17 GMT+0200 (Central European Summer Time),The main experiment item,yes,0,0,/Users/ethan/Documents/GitHub/OpenSesame/Sternberg/experiment_files,0,0,0,no,mono,no,18,no,white,no,no,768,98,3.6.1,legacy,legacy,6 9 7 4 5 1,osweb,1.4.0,1,2,y,37,,0,left,right,,f11,right,left,left,929,24410,,3295,27602,13798,929,2,legacy,728,1366,24,768,24,-8,-8,1366,1632986228036,6,1024,2,48000,-16,experiment,0,even,Win32,9,593299,386225,,590010,61,591061,565260,60,3476,106312,595318,592084,596253,61,595318,Sternberg_updated,73,75873,85,yes,1024
86,86,892,892,black,no,experiment,Mozilla,Netscape,5.0 (Windows),legacy,legacy,legacy,0,uniform,1,1,left,85,85,85,85,0,0,0,85,85,0,0,0,85,85,85,0,0,85,85,0,30-08-21,30-08-21,09:17:17,Thu Sep 30 2021 09:17:17 GMT+0200 (Central European Summer Time),The main experiment item,yes,0,0,/Users/ethan/Documents/GitHub/OpenSesame/Sternberg/experiment_files,0,0,0,no,mono,no,18,no,white,no,no,768,98,3.6.1,legacy,legacy,2 7 5,osweb,1.4.0,1,0,n,37,,0,left,right,,f11,right,left,left,881,24410,,3295,27602,13798,881,2,legacy,728,1366,24,768,24,-8,-8,1366,1632986228036,3,1024,2,48000,-16,experiment,0,even,Win32,8,599546,386225,,590010,61,597310,596258,60,3476,106312,601566,598331,602460,61,601566,Sternberg_updated,74,76754,86,yes,1024
86,86,891,891,black,no,experiment,Mozilla,Netscape,5.0 (Windows),legacy,legacy,legacy,0,uniform,1,1,right,86,86,86,86,0,0,0,86,86,0,0,0,86,86,86,0,0,86,86,0,30-08-21,30-08-21,09:17:17,Thu Sep 30 2021 09:17:17 GMT+0200 (Central European Summer Time),The main experiment item,yes,0,0,/Users/ethan/Documents/GitHub/OpenSesame/Sternberg/experiment_files,0,0,0,no,mono,no,18,no,white,no,no,768,98,3.6.1,legacy,legacy,3 5 7 1,osweb,1.4.0,1,3,y,37,,0,right,right,,f11,right,left,right,757,24410,,3295,27602,13798,757,2,legacy,728,1366,24,768,24,-8,-8,1366,1632986228036,4,1024,2,48000,-16,experiment,0,even,Win32,7,605754,386225,,602466,61,603516,596258,60,3476,106312,607775,604539,608548,61,607773,Sternberg_updated,75,77511,87,yes,1024
86,86,894,894,black,no,experiment,Mozilla,Netscape,5.0 (Windows),legacy,legacy,legacy,0,uniform,1,1,left,87,87,87,87,0,0,0,87,87,0,0,0,87,87,87,0,0,87,87,0,30-08-21,30-08-21,09:17:17,Thu Sep 30 2021 09:17:17 GMT+0200 (Central European Summer Time),The main experiment item,yes,0,0,/Users/ethan/Documents/GitHub/OpenSesame/Sternberg/experiment_files,0,0,0,no,mono,no,18,no,white,no,no,768,98,3.6.1,legacy,legacy,4 8 1 2,osweb,1.4.0,1,0,n,37,,0,left,right,,f11,right,left,left,1191,24410,,3295,27602,13798,1191,2,legacy,728,1366,24,768,24,-8,-8,1366,1632986228036,4,1024,2,48000,-16,experiment,0,even,Win32,7,611822,386225,,608553,61,609600,596258,60,3476,106312,613842,610607,615035,61,613842,Sternberg_updated,76,78702,88,yes,1024
85,85,895,895,black,no,experiment,Mozilla,Netscape,5.0 (Windows),legacy,legacy,legacy,0,uniform,0,0,right,88,88,88,88,0,0,0,88,88,0,0,0,88,88,88,0,0,88,88,0,30-08-21,30-08-21,09:17:17,Thu Sep 30 2021 09:17:17 GMT+0200 (Central European Summer Time),The main experiment item,yes,0,0,/Users/ethan/Documents/GitHub/OpenSesame/Sternberg/experiment_files,0,0,0,no,mono,no,18,no,white,no,no,768,98,3.6.1,legacy,legacy,7 1 8 5 6 2,osweb,1.4.0,1,2,y,37,,0,left,right,,f11,right,left,left,983,24410,,3295,27602,13798,983,2,legacy,728,1366,24,768,24,-8,-8,1366,1632986228036,6,1024,2,48000,-16,experiment,0,even,Win32,1,618329,386225,,615039,61,616091,596258,60,3476,106312,620348,617115,621345,61,620348,Sternberg_updated,76,79685,89,yes,1024
86,86,902,902,black,no,experiment,Mozilla,Netscape,5.0 (Windows),legacy,legacy,legacy,0,uniform,1,1,left,89,89,89,89,0,0,0,89,89,0,0,0,89,89,89,0,0,89,89,0,30-08-21,30-08-21,09:17:17,Thu Sep 30 2021 09:17:17 GMT+0200 (Central European Summer Time),The main experiment item,yes,0,0,/Users/ethan/Documents/GitHub/OpenSesame/Sternberg/experiment_files,0,0,0,no,mono,no,18,no,white,no,no,768,98,3.6.1,legacy,legacy,1 4 9 3,osweb,1.4.0,1,0,n,37,,0,left,right,,f11,right,left,left,1471,24410,,3295,27602,13798,1471,2,legacy,728,1366,24,768,24,-8,-8,1366,1632986228036,4,1024,2,48000,-16,experiment,0,even,Win32,5,624636,386225,,615039,61,622399,621357,60,3476,106312,626657,623421,628129,61,626656,Sternberg_updated,77,81156,90,yes,1024
86,86,903,903,black,no,experiment,Mozilla,Netscape,5.0 (Windows),legacy,legacy,legacy,0,uniform,1,1,right,90,90,90,90,0,0,0,90,90,0,0,0,90,90,90,0,0,90,90,0,30-08-21,30-08-21,09:17:17,Thu Sep 30 2021 09:17:17 GMT+0200 (Central European Summer Time),The main experiment item,yes,0,0,/Users/ethan/Documents/GitHub/OpenSesame/Sternberg/experiment_files,0,0,0,no,mono,no,18,no,white,no,no,768,98,3.6.1,legacy,legacy,3 9 6 2,osweb,1.4.0,1,4,y,37,,0,right,right,,f11,right,left,right,1042,24410,,3295,27602,13798,1042,2,legacy,728,1366,24,768,24,-8,-8,1366,1632986228036,4,1024,2,48000,-16,experiment,0,even,Win32,2,631422,386225,,628135,61,629186,621357,60,3476,106312,633442,630208,634496,61,633442,Sternberg_updated,78,82198,91,yes,1024
86,86,909,909,black,no,experiment,Mozilla,Netscape,5.0 (Windows),legacy,legacy,legacy,0,uniform,1,1,right,91,91,91,91,0,0,0,91,91,0,0,0,91,91,91,0,0,91,91,0,30-08-21,30-08-21,09:17:17,Thu Sep 30 2021 09:17:17 GMT+0200 (Central European Summer Time),The main experiment item,yes,0,0,/Users/ethan/Documents/GitHub/OpenSesame/Sternberg/experiment_files,0,0,0,no,mono,no,18,no,white,no,no,768,98,3.6.1,legacy,legacy,4 6 2 5 1,osweb,1.4.0,1,5,y,37,,0,right,right,,f11,right,left,right,1465,24410,,3295,27602,13798,1465,2,legacy,728,1366,24,768,24,-8,-8,1366,1632986228036,5,1024,2,48000,-16,experiment,0,even,Win32,1,637770,386225,,634501,61,635548,621357,60,3476,106312,639790,636555,641262,61,639789,Sternberg_updated,79,83663,92,yes,1024
86,86,909,909,black,no,experiment,Mozilla,Netscape,5.0 (Windows),legacy,legacy,legacy,0,uniform,1,1,left,92,92,92,92,0,0,0,92,92,0,0,0,92,92,92,0,0,92,92,0,30-08-21,30-08-21,09:17:17,Thu Sep 30 2021 09:17:17 GMT+0200 (Central European Summer Time),The main experiment item,yes,0,0,/Users/ethan/Documents/GitHub/OpenSesame/Sternberg/experiment_files,0,0,0,no,mono,no,18,no,white,no,no,768,98,3.6.1,legacy,legacy,2 8 9 4 1,osweb,1.4.0,1,0,n,37,,0,left,right,,f11,right,left,left,848,24410,,3295,27602,13798,848,2,legacy,728,1366,24,768,24,-8,-8,1366,1632986228036,5,1024,2,48000,-16,experiment,0,even,Win32,5,644536,386225,,641268,61,642317,621357,60,3476,106312,646558,643321,647411,61,646558,Sternberg_updated,80,84511,93,yes,1024
86,86,910,910,black,no,experiment,Mozilla,Netscape,5.0 (Windows),legacy,legacy,legacy,0,uniform,1,1,left,93,93,93,93,0,0,0,93,93,0,0,0,93,93,93,0,0,93,93,0,30-08-21,30-08-21,09:17:17,Thu Sep 30 2021 09:17:17 GMT+0200 (Central European Summer Time),The main experiment item,yes,0,0,/Users/ethan/Documents/GitHub/OpenSesame/Sternberg/experiment_files,0,0,0,no,mono,no,18,no,white,no,no,768,98,3.6.1,legacy,legacy,9 5 3 2 8 6,osweb,1.4.0,1,0,n,37,,0,left,right,,f11,right,left,left,1062,24410,,3295,27602,13798,1062,2,legacy,728,1366,24,768,24,-8,-8,1366,1632986228036,6,1024,2,48000,-16,experiment,0,even,Win32,7,650704,386225,,647417,61,648467,621357,60,3476,106312,652724,649489,653798,61,652724,Sternberg_updated,81,85573,94,yes,1024
86,86,908,908,black,no,experiment,Mozilla,Netscape,5.0 (Windows),legacy,legacy,legacy,0,uniform,1,1,right,94,94,94,94,0,0,0,94,94,0,0,0,94,94,94,0,0,94,94,0,30-08-21,30-08-21,09:17:17,Thu Sep 30 2021 09:17:17 GMT+0200 (Central European Summer Time),The main experiment item,yes,0,0,/Users/ethan/Documents/GitHub/OpenSesame/Sternberg/experiment_files,0,0,0,no,mono,no,18,no,white,no,no,768,98,3.6.1,legacy,legacy,7,osweb,1.4.0,1,1,y,37,,0,right,right,,f11,right,left,right,716,24410,,3295,27602,13798,716,2,legacy,728,1366,24,768,24,-8,-8,1366,1632986228036,1,1024,2,48000,-16,experiment,0,even,Win32,7,657071,386225,,653802,61,654850,621357,60,3476,106312,659091,655856,659825,61,659090,Sternberg_updated,82,86289,95,yes,1024
86,86,913,913,black,no,experiment,Mozilla,Netscape,5.0 (Windows),legacy,legacy,legacy,0,uniform,1,1,left,95,95,95,95,0,0,0,95,95,0,0,0,95,95,95,0,0,95,95,0,30-08-21,30-08-21,09:17:17,Thu Sep 30 2021 09:17:17 GMT+0200 (Central European Summer Time),The main experiment item,yes,0,0,/Users/ethan/Documents/GitHub/OpenSesame/Sternberg/experiment_files,0,0,0,no,mono,no,18,no,white,no,no,768,98,3.6.1,legacy,legacy,3 9 1,osweb,1.4.0,1,0,n,37,,0,left,right,,f11,right,left,left,1399,24410,,3295,27602,13798,1399,2,legacy,728,1366,24,768,24,-8,-8,1366,1632986228036,3,1024,2,48000,-16,experiment,0,even,Win32,7,663099,386225,,659830,61,660879,621357,60,3476,106312,665119,661884,666532,61,665118,Sternberg_updated,83,87688,96,yes,1024
87,87,913,913,black,no,experiment,Mozilla,Netscape,5.0 (Windows),legacy,legacy,legacy,0,uniform,1,1,right,96,96,96,96,0,0,0,96,96,0,0,0,96,96,96,0,0,96,96,0,30-08-21,30-08-21,09:17:17,Thu Sep 30 2021 09:17:17 GMT+0200 (Central European Summer Time),The main experiment item,yes,0,0,/Users/ethan/Documents/GitHub/OpenSesame/Sternberg/experiment_files,0,0,0,no,mono,no,18,no,white,no,no,768,98,3.6.1,legacy,legacy,7 1 3,osweb,1.4.0,1,2,y,37,,0,right,right,,f11,right,left,right,858,24410,,3295,27602,13798,858,2,legacy,728,1366,24,768,24,-8,-8,1366,1632986228036,3,1024,2,48000,-16,experiment,0,even,Win32,1,669826,386225,,666537,61,667587,621357,60,3476,106312,671846,668611,672719,61,671846,Sternberg_updated,84,88546,97,yes,1024
87,87,916,916,black,no,experiment,Mozilla,Netscape,5.0 (Windows),legacy,legacy,legacy,0,uniform,1,1,right,97,97,97,97,0,0,0,97,97,0,0,0,97,97,97,0,0,97,97,0,30-08-21,30-08-21,09:17:17,Thu Sep 30 2021 09:17:17 GMT+0200 (Central European Summer Time),The main experiment item,yes,0,0,/Users/ethan/Documents/GitHub/OpenSesame/Sternberg/experiment_files,0,0,0,no,mono,no,18,no,white,no,no,768,98,3.6.1,legacy,legacy,3 4 9 6 2 9,osweb,1.4.0,1,5,y,37,,0,right,right,right,f11,right,left,right,1214,24410,18362,3295,27602,13798,1214,2,legacy,728,1366,24,768,24,-8,-8,1366,1632986228036,6,1024,2,48000,-16,experiment,0,even,Win32,2,694377,386225,673752,672725,61,692154,621357,60,3476,106312,696396,693162,697629,61,696396,Sternberg_updated,85,89760,98,yes,1024
87,87,916,916,black,no,experiment,Mozilla,Netscape,5.0 (Windows),legacy,legacy,legacy,0,uniform,1,1,right,98,98,98,98,0,0,0,98,98,0,0,0,98,98,98,0,0,98,98,0,30-08-21,30-08-21,09:17:17,Thu Sep 30 2021 09:17:17 GMT+0200 (Central European Summer Time),The main experiment item,yes,0,0,/Users/ethan/Documents/GitHub/OpenSesame/Sternberg/experiment_files,0,0,0,no,mono,no,18,no,white,no,no,768,98,3.6.1,legacy,legacy,4 1 8 7 5,osweb,1.4.0,1,3,y,37,,0,right,right,right,f11,right,left,right,896,24410,18362,3295,27602,13798,896,2,legacy,728,1366,24,768,24,-8,-8,1366,1632986228036,5,1024,2,48000,-16,experiment,0,even,Win32,8,700923,386225,673752,697634,61,698687,621357,60,3476,106312,702944,699708,703858,61,702943,Sternberg_updated,86,90656,99,yes,1024
87,87,914,914,black,no,experiment,Mozilla,Netscape,5.0 (Windows),legacy,legacy,legacy,0,uniform,1,1,left,99,99,99,99,0,0,0,99,99,0,0,0,99,99,99,0,0,99,99,0,30-08-21,30-08-21,09:17:17,Thu Sep 30 2021 09:17:17 GMT+0200 (Central European Summer Time),The main experiment item,yes,0,0,/Users/ethan/Documents/GitHub/OpenSesame/Sternberg/experiment_files,0,0,0,no,mono,no,18,no,white,no,no,768,98,3.6.1,legacy,legacy,7 6 4 8 1 2,osweb,1.4.0,1,0,n,37,,0,left,right,right,f11,right,left,left,760,24410,18362,3295,27602,13798,760,2,legacy,728,1366,24,768,24,-8,-8,1366,1632986228036,6,1024,2,48000,-16,experiment,0,even,Win32,9,707131,386225,673752,703862,61,704910,621357,60,3476,106312,709152,705916,709925,61,709151,Sternberg_updated,87,91416,100,yes,1024
87,87,914,914,black,no,experiment,Mozilla,Netscape,5.0 (Windows),legacy,legacy,legacy,0,uniform,1,1,left,100,100,100,100,0,0,0,100,100,0,0,0,100,100,100,0,0,100,100,0,30-08-21,30-08-21,09:17:17,Thu Sep 30 2021 09:17:17 GMT+0200 (Central European Summer Time),The main experiment item,yes,0,0,/Users/ethan/Documents/GitHub/OpenSesame/Sternberg/experiment_files,0,0,0,no,mono,no,18,no,white,no,no,768,98,3.6.1,legacy,legacy,6 7 5 9,osweb,1.4.0,1,0,n,37,,0,left,right,right,f11,right,left,left,851,24410,18362,3295,27602,13798,851,2,legacy,728,1366,24,768,24,-8,-8,1366,1632986228036,4,1024,2,48000,-16,experiment,0,even,Win32,2,713199,386225,673752,709931,61,710979,621357,60,3476,106312,715219,711984,716073,61,715219,Sternberg_updated,88,92267,101,yes,1024
87,87,911,911,black,no,experiment,Mozilla,Netscape,5.0 (Windows),legacy,legacy,legacy,0,uniform,1,1,right,101,101,101,101,0,0,0,101,101,0,0,0,101,101,101,0,0,101,101,0,30-08-21,30-08-21,09:17:17,Thu Sep 30 2021 09:17:17 GMT+0200 (Central European Summer Time),The main experiment item,yes,0,0,/Users/ethan/Documents/GitHub/OpenSesame/Sternberg/experiment_files,0,0,0,no,mono,no,18,no,white,no,no,768,98,3.6.1,legacy,legacy,6 5,osweb,1.4.0,1,2,y,37,,0,right,right,right,f11,right,left,right,638,24410,18362,3295,27602,13798,638,2,legacy,728,1366,24,768,24,-8,-8,1366,1632986228036,2,1024,2,48000,-16,experiment,0,even,Win32,5,719347,386225,673752,716078,61,717128,621357,60,3476,106312,721366,718133,722021,61,721366,Sternberg_updated,89,92905,102,yes,1024
87,87,909,909,black,no,experiment,Mozilla,Netscape,5.0 (Windows),legacy,legacy,legacy,0,uniform,1,1,left,102,102,102,102,0,0,0,102,102,0,0,0,102,102,102,0,0,102,102,0,30-08-21,30-08-21,09:17:17,Thu Sep 30 2021 09:17:17 GMT+0200 (Central European Summer Time),The main experiment item,yes,0,0,/Users/ethan/Documents/GitHub/OpenSesame/Sternberg/experiment_files,0,0,0,no,mono,no,18,no,white,no,no,768,98,3.6.1,legacy,legacy,7 8 6 1,osweb,1.4.0,1,0,n,37,,0,left,right,right,f11,right,left,left,720,24410,18362,3295,27602,13798,720,2,legacy,728,1366,24,768,24,-8,-8,1366,1632986228036,4,1024,2,48000,-16,experiment,0,even,Win32,3,725295,386225,673752,722026,61,723076,621357,60,3476,106312,727316,724080,728049,61,727316,Sternberg_updated,90,93625,103,yes,1024
87,87,906,906,black,no,experiment,Mozilla,Netscape,5.0 (Windows),legacy,legacy,legacy,0,uniform,0,0,right,103,103,103,103,0,0,0,103,103,0,0,0,103,103,103,0,0,103,103,0,30-08-21,30-08-21,09:17:17,Thu Sep 30 2021 09:17:17 GMT+0200 (Central European Summer Time),The main experiment item,yes,0,0,/Users/ethan/Documents/GitHub/OpenSesame/Sternberg/experiment_files,0,0,0,no,mono,no,18,no,white,no,no,768,98,3.6.1,legacy,legacy,2 3,osweb,1.4.0,1,1,y,37,,0,left,right,right,f11,right,left,left,610,24410,18362,3295,27602,13798,610,2,legacy,728,1366,24,768,24,-8,-8,1366,1632986228036,2,1024,2,48000,-16,experiment,0,even,Win32,2,731322,386225,673752,728054,61,729101,621357,60,3476,106312,733343,730107,733957,61,733343,Sternberg_updated,90,94235,104,yes,1024
87,87,906,906,black,no,experiment,Mozilla,Netscape,5.0 (Windows),legacy,legacy,legacy,0,uniform,1,1,right,104,104,104,104,0,0,0,104,104,0,0,0,104,104,104,0,0,104,104,0,30-08-21,30-08-21,09:17:17,Thu Sep 30 2021 09:17:17 GMT+0200 (Central European Summer Time),The main experiment item,yes,0,0,/Users/ethan/Documents/GitHub/OpenSesame/Sternberg/experiment_files,0,0,0,no,mono,no,18,no,white,no,no,768,98,3.6.1,legacy,legacy,4 3 2 5 8,osweb,1.4.0,1,2,y,37,,0,right,right,right,f11,right,left,right,910,24410,18362,3295,27602,13798,910,2,legacy,728,1366,24,768,24,-8,-8,1366,1632986228036,5,1024,2,48000,-16,experiment,0,even,Win32,3,737251,386225,673752,728054,61,735014,733962,60,3476,106312,739271,736035,740185,61,739271,Sternberg_updated,91,95145,105,yes,1024
87,87,906,906,black,no,experiment,Mozilla,Netscape,5.0 (Windows),legacy,legacy,legacy,0,uniform,1,1,left,105,105,105,105,0,0,0,105,105,0,0,0,105,105,105,0,0,105,105,0,30-08-21,30-08-21,09:17:17,Thu Sep 30 2021 09:17:17 GMT+0200 (Central European Summer Time),The main experiment item,yes,0,0,/Users/ethan/Documents/GitHub/OpenSesame/Sternberg/experiment_files,0,0,0,no,mono,no,18,no,white,no,no,768,98,3.6.1,legacy,legacy,5 3 2 6 9 8,osweb,1.4.0,1,0,n,37,,0,left,right,right,f11,right,left,left,935,24410,18362,3295,27602,13798,935,2,legacy,728,1366,24,768,24,-8,-8,1366,1632986228036,6,1024,2,48000,-16,experiment,0,even,Win32,4,743458,386225,673752,740190,61,741238,733962,60,3476,106312,745478,742244,746415,61,745478,Sternberg_updated,92,96080,106,yes,1024
87,87,907,907,black,no,experiment,Mozilla,Netscape,5.0 (Windows),legacy,legacy,legacy,0,uniform,1,1,right,106,106,106,106,0,0,0,106,106,0,0,0,106,106,106,0,0,106,106,0,30-08-21,30-08-21,09:17:17,Thu Sep 30 2021 09:17:17 GMT+0200 (Central European Summer Time),The main experiment item,yes,0,0,/Users/ethan/Documents/GitHub/OpenSesame/Sternberg/experiment_files,0,0,0,no,mono,no,18,no,white,no,no,768,98,3.6.1,legacy,legacy,8 3,osweb,1.4.0,1,2,y,37,,0,right,right,right,f11,right,left,right,933,24410,18362,3295,27602,13798,933,2,legacy,728,1366,24,768,24,-8,-8,1366,1632986228036,2,1024,2,48000,-16,experiment,0,even,Win32,3,749686,386225,673752,746419,61,747463,733962,60,3476,106312,751706,748471,752640,61,751705,Sternberg_updated,93,97013,107,yes,1024
87,87,911,911,black,no,experiment,Mozilla,Netscape,5.0 (Windows),legacy,legacy,legacy,0,uniform,1,1,right,107,107,107,107,0,0,0,107,107,0,0,0,107,107,107,0,0,107,107,0,30-08-21,30-08-21,09:17:17,Thu Sep 30 2021 09:17:17 GMT+0200 (Central European Summer Time),The main experiment item,yes,0,0,/Users/ethan/Documents/GitHub/OpenSesame/Sternberg/experiment_files,0,0,0,no,mono,no,18,no,white,no,no,768,98,3.6.1,legacy,legacy,7 8 6 3 1,osweb,1.4.0,1,5,y,37,,0,right,right,right,f11,right,left,right,1408,24410,18362,3295,27602,13798,1408,2,legacy,728,1366,24,768,24,-8,-8,1366,1632986228036,5,1024,2,48000,-16,experiment,0,even,Win32,1,755933,386225,673752,752646,61,753696,733962,60,3476,106312,757954,754719,759366,61,757953,Sternberg_updated,94,98421,108,yes,1024
87,87,912,912,black,no,experiment,Mozilla,Netscape,5.0 (Windows),legacy,legacy,legacy,0,uniform,1,1,left,108,108,108,108,0,0,0,108,108,0,0,0,108,108,108,0,0,108,108,0,30-08-21,30-08-21,09:17:17,Thu Sep 30 2021 09:17:17 GMT+0200 (Central European Summer Time),The main experiment item,yes,0,0,/Users/ethan/Documents/GitHub/OpenSesame/Sternberg/experiment_files,0,0,0,no,mono,no,18,no,white,no,no,768,98,3.6.1,legacy,legacy,9 8 2 7 4,osweb,1.4.0,1,0,n,37,,0,left,right,right,f11,right,left,left,1019,24410,18362,3295,27602,13798,1019,2,legacy,728,1366,24,768,24,-8,-8,1366,1632986228036,5,1024,2,48000,-16,experiment,0,even,Win32,5,762640,386225,673752,759371,61,760420,733962,60,3476,106312,764660,761426,765693,61,764660,Sternberg_updated,95,99440,109,yes,1024
87,87,912,912,black,no,experiment,Mozilla,Netscape,5.0 (Windows),legacy,legacy,legacy,0,uniform,1,1,right,109,109,109,109,0,0,0,109,109,0,0,0,109,109,109,0,0,109,109,0,30-08-21,30-08-21,09:17:17,Thu Sep 30 2021 09:17:17 GMT+0200 (Central European Summer Time),The main experiment item,yes,0,0,/Users/ethan/Documents/GitHub/OpenSesame/Sternberg/experiment_files,0,0,0,no,mono,no,18,no,white,no,no,768,98,3.6.1,legacy,legacy,5 2 6,osweb,1.4.0,1,2,y,37,,0,right,right,right,f11,right,left,right,887,24410,18362,3295,27602,13798,887,2,legacy,728,1366,24,768,24,-8,-8,1366,1632986228036,3,1024,2,48000,-16,experiment,0,even,Win32,2,768967,386225,673752,765699,61,766746,733962,60,3476,106312,770987,767753,771882,61,770987,Sternberg_updated,96,100327,110,yes,1024
87,87,911,911,black,no,experiment,Mozilla,Netscape,5.0 (Windows),legacy,legacy,legacy,0,uniform,1,1,left,110,110,110,110,0,0,0,110,110,0,0,0,110,110,110,0,0,110,110,0,30-08-21,30-08-21,09:17:17,Thu Sep 30 2021 09:17:17 GMT+0200 (Central European Summer Time),The main experiment item,yes,0,0,/Users/ethan/Documents/GitHub/OpenSesame/Sternberg/experiment_files,0,0,0,no,mono,no,18,no,white,no,no,768,98,3.6.1,legacy,legacy,8 5 7 3 6,osweb,1.4.0,1,0,n,37,,0,left,right,right,f11,right,left,left,849,24410,18362,3295,27602,13798,849,2,legacy,728,1366,24,768,24,-8,-8,1366,1632986228036,5,1024,2,48000,-16,experiment,0,even,Win32,9,775155,386225,673752,771888,61,772935,733962,60,3476,106312,777175,773940,778029,61,777175,Sternberg_updated,97,101176,111,yes,1024
88,88,913,913,black,no,experiment,Mozilla,Netscape,5.0 (Windows),legacy,legacy,legacy,0,uniform,1,1,right,111,111,111,111,0,0,0,111,111,0,0,0,111,111,111,0,0,111,111,0,30-08-21,30-08-21,09:17:17,Thu Sep 30 2021 09:17:17 GMT+0200 (Central European Summer Time),The main experiment item,yes,0,0,/Users/ethan/Documents/GitHub/OpenSesame/Sternberg/experiment_files,0,0,0,no,mono,no,18,no,white,no,no,768,98,3.6.1,legacy,legacy,9 5 3 8 4,osweb,1.4.0,1,1,y,37,,0,right,right,right,f11,right,left,right,1117,24410,18362,3295,27602,13798,1117,2,legacy,728,1366,24,768,24,-8,-8,1366,1632986228036,5,1024,2,48000,-16,experiment,0,even,Win32,9,781302,386225,673752,778034,61,779083,733962,60,3476,106312,783323,780088,784455,61,783323,Sternberg_updated,98,102293,112,yes,1024
87,87,912,912,black,no,experiment,Mozilla,Netscape,5.0 (Windows),legacy,legacy,legacy,0,uniform,0,0,right,112,112,112,112,0,0,0,112,112,0,0,0,112,112,112,0,0,112,112,0,30-08-21,30-08-21,09:17:17,Thu Sep 30 2021 09:17:17 GMT+0200 (Central European Summer Time),The main experiment item,yes,0,0,/Users/ethan/Documents/GitHub/OpenSesame/Sternberg/experiment_files,0,0,0,no,mono,no,18,no,white,no,no,768,98,3.6.1,legacy,legacy,9 5 8 1,osweb,1.4.0,1,2,y,37,,0,left,right,right,f11,right,left,left,776,24410,18362,3295,27602,13798,776,2,legacy,728,1366,24,768,24,-8,-8,1366,1632986228036,4,1024,2,48000,-16,experiment,0,even,Win32,5,787730,386225,673752,784461,61,785511,733962,60,3476,106312,789750,786515,790544,61,789749,Sternberg_updated,98,103069,113,yes,1024
87,87,910,910,black,no,experiment,Mozilla,Netscape,5.0 (Windows),legacy,legacy,legacy,0,uniform,1,1,left,113,113,113,113,0,0,0,113,113,0,0,0,113,113,113,0,0,113,113,0,30-08-21,30-08-21,09:17:17,Thu Sep 30 2021 09:17:17 GMT+0200 (Central European Summer Time),The main experiment item,yes,0,0,/Users/ethan/Documents/GitHub/OpenSesame/Sternberg/experiment_files,0,0,0,no,mono,no,18,no,white,no,no,768,98,3.6.1,legacy,legacy,5 7 3,osweb,1.4.0,1,0,n,37,,0,left,right,right,f11,right,left,left,709,24410,18362,3295,27602,13798,709,2,legacy,728,1366,24,768,24,-8,-8,1366,1632986228036,3,1024,2,48000,-16,experiment,0,even,Win32,9,793818,386225,673752,784461,61,791599,790549,60,3476,106312,795837,792603,796552,61,795837,Sternberg_updated,99,103778,114,yes,1024
87,87,909,909,black,no,experiment,Mozilla,Netscape,5.0 (Windows),legacy,legacy,legacy,0,uniform,1,1,right,114,114,114,114,0,0,0,114,114,0,0,0,114,114,114,0,0,114,114,0,30-08-21,30-08-21,09:17:17,Thu Sep 30 2021 09:17:17 GMT+0200 (Central European Summer Time),The main experiment item,yes,0,0,/Users/ethan/Documents/GitHub/OpenSesame/Sternberg/experiment_files,0,0,0,no,mono,no,18,no,white,no,no,768,98,3.6.1,legacy,legacy,7 8 4 6 9 5,osweb,1.4.0,1,4,y,37,,0,right,right,right,f11,right,left,right,777,24410,18362,3295,27602,13798,777,2,legacy,728,1366,24,768,24,-8,-8,1366,1632986228036,6,1024,2,48000,-16,experiment,0,even,Win32,6,799826,386225,673752,796558,61,797607,790549,60,3476,106312,801845,798611,802640,61,801845,Sternberg_updated,100,104555,115,yes,1024
87,87,908,908,black,no,experiment,Mozilla,Netscape,5.0 (Windows),legacy,legacy,legacy,0,uniform,1,1,right,115,115,115,115,0,0,0,115,115,0,0,0,115,115,115,0,0,115,115,0,30-08-21,30-08-21,09:17:17,Thu Sep 30 2021 09:17:17 GMT+0200 (Central European Summer Time),The main experiment item,yes,0,0,/Users/ethan/Documents/GitHub/OpenSesame/Sternberg/experiment_files,0,0,0,no,mono,no,18,no,white,no,no,768,98,3.6.1,legacy,legacy,8 5 3 7 4 6,osweb,1.4.0,1,6,y,37,,0,right,right,right,f11,right,left,right,823,24410,18362,3295,27602,13798,823,2,legacy,728,1366,24,768,24,-8,-8,1366,1632986228036,6,1024,2,48000,-16,experiment,0,even,Win32,6,805913,386225,673752,802645,61,803694,790549,60,3476,106312,807932,804699,808767,61,807932,Sternberg_updated,101,105378,116,yes,1024
87,87,908,908,black,no,experiment,Mozilla,Netscape,5.0 (Windows),legacy,legacy,legacy,0,uniform,1,1,left,116,116,116,116,0,0,0,116,116,0,0,0,116,116,116,0,0,116,116,0,30-08-21,30-08-21,09:17:17,Thu Sep 30 2021 09:17:17 GMT+0200 (Central European Summer Time),The main experiment item,yes,0,0,/Users/ethan/Documents/GitHub/OpenSesame/Sternberg/experiment_files,0,0,0,no,mono,no,18,no,white,no,no,768,98,3.6.1,legacy,legacy,8 5 4 2 9 6,osweb,1.4.0,1,0,n,37,,0,left,right,right,f11,right,left,left,886,24410,18362,3295,27602,13798,886,2,legacy,728,1366,24,768,24,-8,-8,1366,1632986228036,6,1024,2,48000,-16,experiment,0,even,Win32,3,812041,386225,673752,808775,61,809822,790549,60,3476,106312,814061,810826,814955,61,814060,Sternberg_updated,102,106264,117,yes,1024
87,87,906,906,black,no,experiment,Mozilla,Netscape,5.0 (Windows),legacy,legacy,legacy,0,uniform,1,1,left,117,117,117,117,0,0,0,117,117,0,0,0,117,117,117,0,0,117,117,0,30-08-21,30-08-21,09:17:17,Thu Sep 30 2021 09:17:17 GMT+0200 (Central European Summer Time),The main experiment item,yes,0,0,/Users/ethan/Documents/GitHub/OpenSesame/Sternberg/experiment_files,0,0,0,no,mono,no,18,no,white,no,no,768,98,3.6.1,legacy,legacy,5 2,osweb,1.4.0,1,0,n,37,,0,left,right,right,f11,right,left,left,678,24410,18362,3295,27602,13798,678,2,legacy,728,1366,24,768,24,-8,-8,1366,1632986228036,2,1024,2,48000,-16,experiment,0,even,Win32,7,818229,386225,673752,814963,61,816009,790549,60,3476,106312,820248,817014,820943,61,820248,Sternberg_updated,103,106942,118,yes,1024
87,87,905,905,black,no,experiment,Mozilla,Netscape,5.0 (Windows),legacy,legacy,legacy,0,uniform,1,1,right,118,118,118,118,0,0,0,118,118,0,0,0,118,118,118,0,0,118,118,0,30-08-21,30-08-21,09:17:17,Thu Sep 30 2021 09:17:17 GMT+0200 (Central European Summer Time),The main experiment item,yes,0,0,/Users/ethan/Documents/GitHub/OpenSesame/Sternberg/experiment_files,0,0,0,no,mono,no,18,no,white,no,no,768,98,3.6.1,legacy,legacy,3 5 9 6 2 4,osweb,1.4.0,1,1,y,37,,0,right,right,right,f11,right,left,right,810,24410,18362,3295,27602,13798,810,2,legacy,728,1366,24,768,24,-8,-8,1366,1632986228036,6,1024,2,48000,-16,experiment,0,even,Win32,3,824236,386225,673752,820948,61,822000,790549,60,3476,106312,826256,823022,827070,61,826256,Sternberg_updated,104,107752,119,yes,1024
88,88,904,904,black,no,experiment,Mozilla,Netscape,5.0 (Windows),legacy,legacy,legacy,0,uniform,1,1,left,119,119,119,119,0,0,0,119,119,0,0,0,119,119,119,0,0,119,119,0,30-08-21,30-08-21,09:17:17,Thu Sep 30 2021 09:17:17 GMT+0200 (Central European Summer Time),The main experiment item,yes,0,0,/Users/ethan/Documents/GitHub/OpenSesame/Sternberg/experiment_files,0,0,0,no,mono,no,18,no,white,no,no,768,98,3.6.1,legacy,legacy,8 9,osweb,1.4.0,1,0,n,37,,0,left,right,right,f11,right,left,left,777,24410,18362,3295,27602,13798,777,2,legacy,728,1366,24,768,24,-8,-8,1366,1632986228036,2,1024,2,48000,-16,experiment,0,even,Win32,5,830364,386225,673752,827077,61,828127,790549,60,3476,106312,832385,829149,833179,61,832384,Sternberg_updated,105,108529,120,yes,1024
88,88,910,910,black,no,experiment,Mozilla,Netscape,5.0 (Windows),legacy,legacy,legacy,0,uniform,1,1,left,120,120,120,120,0,0,0,120,120,0,0,0,120,120,120,0,0,120,120,0,30-08-21,30-08-21,09:17:17,Thu Sep 30 2021 09:17:17 GMT+0200 (Central European Summer Time),The main experiment item,yes,0,0,/Users/ethan/Documents/GitHub/OpenSesame/Sternberg/experiment_files,0,0,0,no,mono,no,18,no,white,no,no,768,98,3.6.1,legacy,legacy,7 4 2 8 1 9,osweb,1.4.0,1,0,n,37,,0,left,right,right,f11,right,left,left,1535,24410,18362,3295,27602,13798,1535,2,legacy,728,1366,24,768,24,-8,-8,1366,1632986228036,6,1024,2,48000,-16,experiment,0,even,Win32,5,836452,386225,673752,833184,61,834234,790549,60,3476,106312,838473,835237,840025,61,838473,Sternberg_updated,106,110064,121,yes,1024
88,88,909,909,black,no,experiment,Mozilla,Netscape,5.0 (Windows),legacy,legacy,legacy,0,uniform,1,1,left,121,121,121,121,0,0,0,121,121,0,0,0,121,121,121,0,0,121,121,0,30-08-21,30-08-21,09:17:17,Thu Sep 30 2021 09:17:17 GMT+0200 (Central European Summer Time),The main experiment item,yes,0,0,/Users/ethan/Documents/GitHub/OpenSesame/Sternberg/experiment_files,0,0,0,no,mono,no,18,no,white,no,no,768,98,3.6.1,legacy,legacy,6 3 1 7 9 8,osweb,1.4.0,1,0,n,37,,0,left,right,right,f11,right,left,left,792,24410,18362,3295,27602,13798,792,2,legacy,728,1366,24,768,24,-8,-8,1366,1632986228036,6,1024,2,48000,-16,experiment,0,even,Win32,4,843299,386225,673752,840027,61,841079,790549,60,3476,106312,845319,842085,846113,61,845319,Sternberg_updated,107,110856,122,yes,1024
88,88,911,911,black,no,experiment,Mozilla,Netscape,5.0 (Windows),legacy,legacy,legacy,0,uniform,1,1,right,122,122,122,122,0,0,0,122,122,0,0,0,122,122,122,0,0,122,122,0,30-08-21,30-08-21,09:17:17,Thu Sep 30 2021 09:17:17 GMT+0200 (Central European Summer Time),The main experiment item,yes,0,0,/Users/ethan/Documents/GitHub/OpenSesame/Sternberg/experiment_files,0,0,0,no,mono,no,18,no,white,no,no,768,98,3.6.1,legacy,legacy,2 8 5 1,osweb,1.4.0,1,4,y,37,,0,right,right,right,f11,right,left,right,1250,24410,18362,3295,27602,13798,1250,2,legacy,728,1366,24,768,24,-8,-8,1366,1632986228036,4,1024,2,48000,-16,experiment,0,even,Win32,1,849386,386225,673752,846118,61,847159,790549,60,3476,106312,851406,848172,852659,61,851406,Sternberg_updated,108,112106,123,yes,1024
88,88,911,911,black,no,experiment,Mozilla,Netscape,5.0 (Windows),legacy,legacy,legacy,0,uniform,1,1,left,123,123,123,123,0,0,0,123,123,0,0,0,123,123,123,0,0,123,123,0,30-08-21,30-08-21,09:17:17,Thu Sep 30 2021 09:17:17 GMT+0200 (Central European Summer Time),The main experiment item,yes,0,0,/Users/ethan/Documents/GitHub/OpenSesame/Sternberg/experiment_files,0,0,0,no,mono,no,18,no,white,no,no,768,98,3.6.1,legacy,legacy,4 1,osweb,1.4.0,1,0,n,37,,0,left,right,right,f11,right,left,left,803,24410,18362,3295,27602,13798,803,2,legacy,728,1366,24,768,24,-8,-8,1366,1632986228036,2,1024,2,48000,-16,experiment,0,even,Win32,6,855953,386225,673752,852665,61,853717,790549,60,3476,106312,857975,854738,858787,61,857975,Sternberg_updated,109,112909,124,yes,1024
88,88,911,911,black,no,experiment,Mozilla,Netscape,5.0 (Windows),legacy,legacy,legacy,0,uniform,1,1,right,124,124,124,124,0,0,0,124,124,0,0,0,124,124,124,0,0,124,124,0,30-08-21,30-08-21,09:17:17,Thu Sep 30 2021 09:17:17 GMT+0200 (Central European Summer Time),The main experiment item,yes,0,0,/Users/ethan/Documents/GitHub/OpenSesame/Sternberg/experiment_files,0,0,0,no,mono,no,18,no,white,no,no,768,98,3.6.1,legacy,legacy,9 1 6 7 8,osweb,1.4.0,1,1,y,37,,0,right,right,right,f11,right,left,right,980,24410,18362,3295,27602,13798,980,2,legacy,728,1366,24,768,24,-8,-8,1366,1632986228036,5,1024,2,48000,-16,experiment,0,even,Win32,9,862081,386225,673752,858792,61,859843,790549,60,3476,106312,864102,860865,865095,61,864101,Sternberg_updated,110,113889,125,yes,1024
88,88,911,911,black,no,experiment,Mozilla,Netscape,5.0 (Windows),legacy,legacy,legacy,0,uniform,1,1,right,125,125,125,125,0,0,0,125,125,0,0,0,125,125,125,0,0,125,125,0,30-08-21,30-08-21,09:17:17,Thu Sep 30 2021 09:17:17 GMT+0200 (Central European Summer Time),The main experiment item,yes,0,0,/Users/ethan/Documents/GitHub/OpenSesame/Sternberg/experiment_files,0,0,0,no,mono,no,18,no,white,no,no,768,98,3.6.1,legacy,legacy,8 5 1 3 9,osweb,1.4.0,1,4,y,37,,0,right,right,right,f11,right,left,right,870,24410,18362,3295,27602,13798,870,2,legacy,728,1366,24,768,24,-8,-8,1366,1632986228036,5,1024,2,48000,-16,experiment,0,even,Win32,3,868388,386225,673752,865100,61,866156,790549,60,3476,106312,870408,867174,871282,61,870408,Sternberg_updated,111,114759,126,yes,1024
88,88,911,911,black,no,experiment,Mozilla,Netscape,5.0 (Windows),legacy,legacy,legacy,0,uniform,1,1,right,126,126,126,126,0,0,0,126,126,0,0,0,126,126,126,0,0,126,126,0,30-08-21,30-08-21,09:17:17,Thu Sep 30 2021 09:17:17 GMT+0200 (Central European Summer Time),The main experiment item,yes,0,0,/Users/ethan/Documents/GitHub/OpenSesame/Sternberg/experiment_files,0,0,0,no,mono,no,18,no,white,no,no,768,98,3.6.1,legacy,legacy,9 8 4,osweb,1.4.0,1,1,y,37,,0,right,right,right,f11,right,left,right,878,24410,18362,3295,27602,13798,878,2,legacy,728,1366,24,768,24,-8,-8,1366,1632986228036,3,1024,2,48000,-16,experiment,0,even,Win32,9,874576,386225,673752,871289,61,872338,790549,60,3476,106312,876596,873360,877490,61,876596,Sternberg_updated,112,115637,127,yes,1024
88,88,909,909,black,no,experiment,Mozilla,Netscape,5.0 (Windows),legacy,legacy,legacy,0,uniform,0,0,right,127,127,127,127,0,0,0,127,127,0,0,0,127,127,127,0,0,127,127,0,30-08-21,30-08-21,09:17:17,Thu Sep 30 2021 09:17:17 GMT+0200 (Central European Summer Time),The main experiment item,yes,0,0,/Users/ethan/Documents/GitHub/OpenSesame/Sternberg/experiment_files,0,0,0,no,mono,no,18,no,white,no,no,768,98,3.6.1,legacy,legacy,2 4 8 5 1 3,osweb,1.4.0,1,1,y,37,,0,left,right,right,f11,right,left,left,716,24410,18362,3295,27602,13798,716,2,legacy,728,1366,24,768,24,-8,-8,1366,1632986228036,6,1024,2,48000,-16,experiment,0,even,Win32,2,880783,386225,673752,877495,61,878545,790549,60,3476,106312,882804,879568,883537,61,882804,Sternberg_updated,112,116353,128,yes,1024
88,88,910,910,black,no,experiment,Mozilla,Netscape,5.0 (Windows),legacy,legacy,legacy,0,uniform,1,1,right,128,128,128,128,0,0,0,128,128,0,0,0,128,128,128,0,0,128,128,0,30-08-21,30-08-21,09:17:17,Thu Sep 30 2021 09:17:17 GMT+0200 (Central European Summer Time),The main experiment item,yes,0,0,/Users/ethan/Documents/GitHub/OpenSesame/Sternberg/experiment_files,0,0,0,no,mono,no,18,no,white,no,no,768,98,3.6.1,legacy,legacy,5 2 9 6 1 7,osweb,1.4.0,1,3,y,37,,0,right,right,right,f11,right,left,right,1032,24410,18362,3295,27602,13798,1032,2,legacy,728,1366,24,768,24,-8,-8,1366,1632986228036,6,1024,2,48000,-16,experiment,0,even,Win32,9,886831,386225,673752,877495,61,884594,883543,60,3476,106312,888852,885616,889885,61,888851,Sternberg_updated,113,117385,129,yes,1024
88,88,910,910,black,no,experiment,Mozilla,Netscape,5.0 (Windows),legacy,legacy,legacy,0,uniform,1,1,left,129,129,129,129,0,0,0,129,129,0,0,0,129,129,129,0,0,129,129,0,30-08-21,30-08-21,09:17:17,Thu Sep 30 2021 09:17:17 GMT+0200 (Central European Summer Time),The main experiment item,yes,0,0,/Users/ethan/Documents/GitHub/OpenSesame/Sternberg/experiment_files,0,0,0,no,mono,no,18,no,white,no,no,768,98,3.6.1,legacy,legacy,2 5 1 4,osweb,1.4.0,1,0,n,37,,0,left,right,right,f11,right,left,left,916,24410,18362,3295,27602,13798,916,2,legacy,728,1366,24,768,24,-8,-8,1366,1632986228036,4,1024,2,48000,-16,experiment,0,even,Win32,6,893199,386225,673752,889890,61,890966,883543,60,3476,106312,895219,891985,896152,61,895219,Sternberg_updated,114,118301,130,yes,1024
88,88,911,911,black,no,experiment,Mozilla,Netscape,5.0 (Windows),legacy,legacy,legacy,0,uniform,1,1,right,130,130,130,130,0,0,0,130,130,0,0,0,130,130,130,0,0,130,130,0,30-08-21,30-08-21,09:17:17,Thu Sep 30 2021 09:17:17 GMT+0200 (Central European Summer Time),The main experiment item,yes,0,0,/Users/ethan/Documents/GitHub/OpenSesame/Sternberg/experiment_files,0,0,0,no,mono,no,18,no,white,no,no,768,98,3.6.1,legacy,legacy,3 2 1 4 7,osweb,1.4.0,1,2,y,37,,0,right,right,right,f11,right,left,right,1091,24410,18362,3295,27602,13798,1091,2,legacy,728,1366,24,768,24,-8,-8,1366,1632986228036,5,1024,2,48000,-16,experiment,0,even,Win32,2,899426,386225,673752,896157,61,897202,883543,60,3476,106312,901445,898211,902540,61,901445,Sternberg_updated,115,119392,131,yes,1024
88,88,911,911,black,no,experiment,Mozilla,Netscape,5.0 (Windows),legacy,legacy,legacy,0,uniform,1,1,left,131,131,131,131,0,0,0,131,131,0,0,0,131,131,131,0,0,131,131,0,30-08-21,30-08-21,09:17:17,Thu Sep 30 2021 09:17:17 GMT+0200 (Central European Summer Time),The main experiment item,yes,0,0,/Users/ethan/Documents/GitHub/OpenSesame/Sternberg/experiment_files,0,0,0,no,mono,no,18,no,white,no,no,768,98,3.6.1,legacy,legacy,7 3 2 8,osweb,1.4.0,1,0,n,37,,0,left,right,right,f11,right,left,left,846,24410,18362,3295,27602,13798,846,2,legacy,728,1366,24,768,24,-8,-8,1366,1632986228036,4,1024,2,48000,-16,experiment,0,even,Win32,4,905813,386225,673752,902545,61,903593,883543,60,3476,106312,907833,904598,908687,61,907833,Sternberg_updated,116,120238,132,yes,1024
88,88,915,915,black,no,experiment,Mozilla,Netscape,5.0 (Windows),legacy,legacy,legacy,0,uniform,1,1,right,132,132,132,132,0,0,0,132,132,0,0,0,132,132,132,0,0,132,132,0,30-08-21,30-08-21,09:17:17,Thu Sep 30 2021 09:17:17 GMT+0200 (Central European Summer Time),The main experiment item,yes,0,0,/Users/ethan/Documents/GitHub/OpenSesame/Sternberg/experiment_files,0,0,0,no,mono,no,18,no,white,no,no,768,98,3.6.1,legacy,legacy,5 7 8 2 3 8,osweb,1.4.0,1,5,y,37,,0,right,right,right,f11,right,left,right,1495,24410,18362,3295,27602,13798,1495,2,legacy,728,1366,24,768,24,-8,-8,1366,1632986228036,6,1024,2,48000,-16,experiment,0,even,Win32,3,911981,386225,673752,908692,61,909745,883543,60,3476,106312,914001,910766,915514,61,914000,Sternberg_updated,117,121733,133,yes,1024
88,88,916,916,black,no,experiment,Mozilla,Netscape,5.0 (Windows),legacy,legacy,legacy,0,uniform,1,1,left,133,133,133,133,0,0,0,133,133,0,0,0,133,133,133,0,0,133,133,0,30-08-21,30-08-21,09:17:17,Thu Sep 30 2021 09:17:17 GMT+0200 (Central European Summer Time),The main experiment item,yes,0,0,/Users/ethan/Documents/GitHub/OpenSesame/Sternberg/experiment_files,0,0,0,no,mono,no,18,no,white,no,no,768,98,3.6.1,legacy,legacy,5 9 2 3,osweb,1.4.0,1,0,n,37,,0,left,right,right,f11,right,left,left,964,24410,18362,3295,27602,13798,964,2,legacy,728,1366,24,768,24,-8,-8,1366,1632986228036,4,1024,2,48000,-16,experiment,0,even,Win32,8,918827,386225,673752,915518,61,916600,883543,60,3476,106312,920847,917613,921820,61,920847,Sternberg_updated,118,122697,134,yes,1024
