acc,accuracy,average_response_time,avg_rt,background,bidi,block,browser_codename,browser_name,browser_version,canvas_backend,clock_backend,color_backend,compensation,coordinates,correct,correct_keyboard_response,correct_response,count_ISI,count_break1,count_break_2,count_correct_feedback,count_credits,count_experiment,count_experimentLoop,count_fixation,count_incorrect_feedback,count_instructions1a,count_instructions1b,count_instructions2,count_keyboard_response,count_memory_set,count_new_logger,count_osweb,count_practiceLoop,count_practiceSequence,count_probe,count_thankYou,date_startdate,date_startdateUTC,date_starttime,datetime,description,disable_garbage_collection,experiment_debug,experiment_parameters,experiment_path,experiment_pilot,experiment_taskname,experiment_taskversion,font_bold,font_family,font_italic,font_size,font_underline,foreground,form_clicks,fullscreen,height,jatosStudyResultId,jatosVersion,keyboard_backend,mouse_backend,numberSet,opensesame_codename,opensesame_version,penwidth,posInSet,present,queryParams_batchId,queryParams_generalMultiple,repeat_cycle,response,response_break1,response_break_2,response_instructions1a,response_instructions1b,response_instructions2,response_keyboard_response,response_time,response_time_break1,response_time_break_2,response_time_instructions1a,response_time_instructions1b,response_time_instructions2,response_time_keyboard_response,round_decimals,sampler_backend,screen_availableHeight,screen_availableWidth,screen_colorDepth,screen_height,screen_pixelDepth,screen_screenX,screen_screenY,screen_width,sessionid,setSize,sound_buf_size,sound_channels,sound_freq,sound_sample_size,start,subject_nr,subject_parity,system_os,target,time_ISI,time_break1,time_break_2,time_correct_feedback,time_experimentLoop,time_fixation,time_incorrect_feedback,time_instructions1a,time_instructions1b,time_instructions2,time_keyboard_response,time_memory_set,time_new_logger,time_practiceLoop,time_probe,title,total_correct,total_response_time,total_responses,uniform_coordinates,width
100,100,1582,1582,black,no,practice,Mozilla,Netscape,5.0 (Windows),legacy,legacy,legacy,0,uniform,1,1,right,0,0,0,0,0,0,0,0,0,0,0,0,0,0,0,0,0,0,0,0,30-08-21,30-08-21,09:16:56,Thu Sep 30 2021 09:16:56 GMT+0200 (Θερινή ώρα Κεντρικής Ευρώπης),The main experiment item,yes,0,0,/Users/ethan/Documents/GitHub/OpenSesame/Sternberg/experiment_files,0,0,0,no,mono,no,18,no,white,no,no,768,99,3.6.1,legacy,legacy,4 8,osweb,1.4.0,1,1,y,37,,0,right,,,h,right,,right,1582,,,44327,18899,,1582,2,legacy,824,1536,24,864,24,-7,-7,1536,1632986216764,2,1024,2,48000,-16,experiment,1,odd,Win32,4,65570,,,,47,63346,,46,44411,,67590,64357,69183,47,67588,Sternberg_updated,1,1582,1,yes,1024
100,100,1439,1439,black,no,practice,Mozilla,Netscape,5.0 (Windows),legacy,legacy,legacy,0,uniform,1,1,left,1,1,1,1,0,0,0,1,1,0,0,0,1,1,1,0,0,1,1,0,30-08-21,30-08-21,09:16:56,Thu Sep 30 2021 09:16:56 GMT+0200 (Θερινή ώρα Κεντρικής Ευρώπης),The main experiment item,yes,0,0,/Users/ethan/Documents/GitHub/OpenSesame/Sternberg/experiment_files,0,0,0,no,mono,no,18,no,white,no,no,768,99,3.6.1,legacy,legacy,5 7 8 4 1 2,osweb,1.4.0,1,0,n,37,,0,left,,,h,right,,left,1295,,,44327,18899,,1295,2,legacy,824,1536,24,864,24,-7,-7,1536,1632986216764,6,1024,2,48000,-16,experiment,1,odd,Win32,6,72447,,,69191,47,70222,,46,44411,,74465,71233,75777,47,74464,Sternberg_updated,2,2877,2,yes,1024
100,100,1278,1278,black,no,practice,Mozilla,Netscape,5.0 (Windows),legacy,legacy,legacy,0,uniform,1,1,right,2,2,2,2,0,0,0,2,2,0,0,0,2,2,2,0,0,2,2,0,30-08-21,30-08-21,09:16:56,Thu Sep 30 2021 09:16:56 GMT+0200 (Θερινή ώρα Κεντρικής Ευρώπης),The main experiment item,yes,0,0,/Users/ethan/Documents/GitHub/OpenSesame/Sternberg/experiment_files,0,0,0,no,mono,no,18,no,white,no,no,768,99,3.6.1,legacy,legacy,1 7 9 8 5,osweb,1.4.0,1,4,y,37,,0,right,,,h,right,,right,958,,,44327,18899,,958,2,legacy,824,1536,24,864,24,-7,-7,1536,1632986216764,5,1024,2,48000,-16,experiment,1,odd,Win32,8,79041,,,75782,47,76813,,46,44411,,81059,77827,82021,47,81058,Sternberg_updated,3,3835,3,yes,1024
100,100,1063,1063,black,no,practice,Mozilla,Netscape,5.0 (Windows),legacy,legacy,legacy,0,uniform,1,1,right,3,3,3,3,0,0,0,3,3,0,0,0,3,3,3,0,0,3,3,0,30-08-21,30-08-21,09:16:56,Thu Sep 30 2021 09:16:56 GMT+0200 (Θερινή ώρα Κεντρικής Ευρώπης),The main experiment item,yes,0,0,/Users/ethan/Documents/GitHub/OpenSesame/Sternberg/experiment_files,0,0,0,no,mono,no,18,no,white,no,no,768,99,3.6.1,legacy,legacy,2 9 4,osweb,1.4.0,1,3,y,37,,0,right,,,h,right,,right,416,,,44327,18899,,416,2,legacy,824,1536,24,864,24,-7,-7,1536,1632986216764,3,1024,2,48000,-16,experiment,1,odd,Win32,4,85268,,,82025,47,83049,,46,44411,,87285,84055,87716,47,87285,Sternberg_updated,4,4251,4,yes,1024
100,100,1029,1029,black,no,practice,Mozilla,Netscape,5.0 (Windows),legacy,legacy,legacy,0,uniform,1,1,right,4,4,4,4,0,0,0,4,4,0,0,0,4,4,4,0,0,4,4,0,30-08-21,30-08-21,09:16:56,Thu Sep 30 2021 09:16:56 GMT+0200 (Θερινή ώρα Κεντρικής Ευρώπης),The main experiment item,yes,0,0,/Users/ethan/Documents/GitHub/OpenSesame/Sternberg/experiment_files,0,0,0,no,mono,no,18,no,white,no,no,768,99,3.6.1,legacy,legacy,1 5 2 9,osweb,1.4.0,1,2,y,37,,0,right,,,h,right,,right,896,,,44327,18899,,896,2,legacy,824,1536,24,864,24,-7,-7,1536,1632986216764,4,1024,2,48000,-16,experiment,1,odd,Win32,5,90980,,,87721,47,88752,,46,44411,,92998,89766,93909,47,92998,Sternberg_updated,5,5147,5,yes,1024
100,100,1078,1078,black,no,practice,Mozilla,Netscape,5.0 (Windows),legacy,legacy,legacy,0,uniform,1,1,left,5,5,5,5,0,0,0,5,5,0,0,0,5,5,5,0,0,5,5,0,30-08-21,30-08-21,09:16:56,Thu Sep 30 2021 09:16:56 GMT+0200 (Θερινή ώρα Κεντρικής Ευρώπης),The main experiment item,yes,0,0,/Users/ethan/Documents/GitHub/OpenSesame/Sternberg/experiment_files,0,0,0,no,mono,no,18,no,white,no,no,768,99,3.6.1,legacy,legacy,9 6 7 4 5,osweb,1.4.0,1,0,n,37,,0,left,,,h,right,,left,1319,,,44327,18899,,1319,2,legacy,824,1536,24,864,24,-7,-7,1536,1632986216764,5,1024,2,48000,-16,experiment,1,odd,Win32,3,97157,,,93917,47,94939,,46,44411,,99174,95944,100504,47,99174,Sternberg_updated,6,6466,6,yes,1024
86,86,1211,1211,black,no,practice,Mozilla,Netscape,5.0 (Windows),legacy,legacy,legacy,0,uniform,0,0,right,6,6,6,6,0,0,0,6,6,0,0,0,6,6,6,0,0,6,6,0,30-08-21,30-08-21,09:16:56,Thu Sep 30 2021 09:16:56 GMT+0200 (Θερινή ώρα Κεντρικής Ευρώπης),The main experiment item,yes,0,0,/Users/ethan/Documents/GitHub/OpenSesame/Sternberg/experiment_files,0,0,0,no,mono,no,18,no,white,no,no,768,99,3.6.1,legacy,legacy,6,osweb,1.4.0,1,1,y,37,,0,None,,,h,right,,None,2012,,,44327,18899,,2012,2,legacy,824,1536,24,864,24,-7,-7,1536,1632986216764,1,1024,2,48000,-16,experiment,1,odd,Win32,6,103768,,,100508,47,101540,,46,44411,,105785,102555,107797,47,105785,Sternberg_updated,6,8478,7,yes,1024
88,88,1198,1198,black,no,practice,Mozilla,Netscape,5.0 (Windows),legacy,legacy,legacy,0,uniform,1,1,left,7,7,7,7,0,0,0,7,7,0,0,0,7,7,7,0,0,7,7,0,30-08-21,30-08-21,09:16:56,Thu Sep 30 2021 09:16:56 GMT+0200 (Θερινή ώρα Κεντρικής Ευρώπης),The main experiment item,yes,0,0,/Users/ethan/Documents/GitHub/OpenSesame/Sternberg/experiment_files,0,0,0,no,mono,no,18,no,white,no,no,768,99,3.6.1,legacy,legacy,3 1 9 4,osweb,1.4.0,1,0,n,37,,0,left,,,h,right,,left,1107,,,44327,18899,,1107,2,legacy,824,1536,24,864,24,-7,-7,1536,1632986216764,4,1024,2,48000,-16,experiment,1,odd,Win32,6,111060,,,100508,47,108833,107802,46,44411,,113079,109848,114191,47,113079,Sternberg_updated,7,9585,8,yes,1024
89,89,1232,1232,black,no,practice,Mozilla,Netscape,5.0 (Windows),legacy,legacy,legacy,0,uniform,1,1,left,8,8,8,8,0,0,0,8,8,0,0,0,8,8,8,0,0,8,8,0,30-08-21,30-08-21,09:16:56,Thu Sep 30 2021 09:16:56 GMT+0200 (Θερινή ώρα Κεντρικής Ευρώπης),The main experiment item,yes,0,0,/Users/ethan/Documents/GitHub/OpenSesame/Sternberg/experiment_files,0,0,0,no,mono,no,18,no,white,no,no,768,99,3.6.1,legacy,legacy,4 1 5,osweb,1.4.0,1,0,n,37,,0,left,,,h,right,,left,1507,,,44327,18899,,1507,2,legacy,824,1536,24,864,24,-7,-7,1536,1632986216764,3,1024,2,48000,-16,experiment,1,odd,Win32,2,117454,,,114195,47,115227,107802,46,44411,,119472,116241,120985,47,119472,Sternberg_updated,8,11092,9,yes,1024
90,90,1244,1244,black,no,practice,Mozilla,Netscape,5.0 (Windows),legacy,legacy,legacy,0,uniform,1,1,right,9,9,9,9,0,0,0,9,9,0,0,0,9,9,9,0,0,9,9,0,30-08-21,30-08-21,09:16:56,Thu Sep 30 2021 09:16:56 GMT+0200 (Θερινή ώρα Κεντρικής Ευρώπης),The main experiment item,yes,0,0,/Users/ethan/Documents/GitHub/OpenSesame/Sternberg/experiment_files,0,0,0,no,mono,no,18,no,white,no,no,768,99,3.6.1,legacy,legacy,4 3 1 7 9 8,osweb,1.4.0,1,1,y,37,,0,right,,,h,right,,right,1343,,,44327,18899,,1343,2,legacy,824,1536,24,864,24,-7,-7,1536,1632986216764,6,1024,2,48000,-16,experiment,1,odd,Win32,4,124248,,,120989,47,122019,107802,46,44411,,126267,123035,127612,47,126267,Sternberg_updated,9,12435,10,yes,1024
91,91,1178,1178,black,no,practice,Mozilla,Netscape,5.0 (Windows),legacy,legacy,legacy,0,uniform,1,1,left,10,10,10,10,0,0,0,10,10,0,0,0,10,10,10,0,0,10,10,0,30-08-21,30-08-21,09:16:56,Thu Sep 30 2021 09:16:56 GMT+0200 (Θερινή ώρα Κεντρικής Ευρώπης),The main experiment item,yes,0,0,/Users/ethan/Documents/GitHub/OpenSesame/Sternberg/experiment_files,0,0,0,no,mono,no,18,no,white,no,no,768,99,3.6.1,legacy,legacy,2 1,osweb,1.4.0,1,0,n,37,,0,left,,,h,right,,left,527,,,44327,18899,,527,2,legacy,824,1536,24,864,24,-7,-7,1536,1632986216764,2,1024,2,48000,-16,experiment,1,odd,Win32,5,130875,,,127616,47,128646,107802,46,44411,,132894,129663,133423,47,132893,Sternberg_updated,10,12962,11,yes,1024
92,92,1145,1145,black,no,practice,Mozilla,Netscape,5.0 (Windows),legacy,legacy,legacy,0,uniform,1,1,left,11,11,11,11,0,0,0,11,11,0,0,0,11,11,11,0,0,11,11,0,30-08-21,30-08-21,09:16:56,Thu Sep 30 2021 09:16:56 GMT+0200 (Θερινή ώρα Κεντρικής Ευρώπης),The main experiment item,yes,0,0,/Users/ethan/Documents/GitHub/OpenSesame/Sternberg/experiment_files,0,0,0,no,mono,no,18,no,white,no,no,768,99,3.6.1,legacy,legacy,5,osweb,1.4.0,1,0,n,37,,0,left,,,h,right,,left,778,,,44327,18899,,778,2,legacy,824,1536,24,864,24,-7,-7,1536,1632986216764,1,1024,2,48000,-16,experiment,1,odd,Win32,3,136671,,,133427,47,134450,107802,46,44411,,138689,135457,139468,47,138688,Sternberg_updated,11,13740,12,yes,1024
92,92,1117,1117,black,no,experiment,Mozilla,Netscape,5.0 (Windows),legacy,legacy,legacy,0,uniform,1,1,left,12,12,12,12,0,0,0,12,12,0,0,0,12,12,12,0,0,12,12,0,30-08-21,30-08-21,09:16:56,Thu Sep 30 2021 09:16:56 GMT+0200 (Θερινή ώρα Κεντρικής Ευρώπης),The main experiment item,yes,0,0,/Users/ethan/Documents/GitHub/OpenSesame/Sternberg/experiment_files,0,0,0,no,mono,no,18,no,white,no,no,768,99,3.6.1,legacy,legacy,2 8 7 9 5 3,osweb,1.4.0,1,0,n,37,,0,left,,,h,right,right,left,785,,,44327,18899,33954,785,2,legacy,824,1536,24,864,24,-7,-7,1536,1632986216764,6,1024,2,48000,-16,experiment,1,odd,Win32,6,176700,,,139472,47,174481,107802,46,44411,140507,178718,175488,179514,47,178718,Sternberg_updated,12,14525,13,yes,1024
93,93,1095,1095,black,no,experiment,Mozilla,Netscape,5.0 (Windows),legacy,legacy,legacy,0,uniform,1,1,right,13,13,13,13,0,0,0,13,13,0,0,0,13,13,13,0,0,13,13,0,30-08-21,30-08-21,09:16:56,Thu Sep 30 2021 09:16:56 GMT+0200 (Θερινή ώρα Κεντρικής Ευρώπης),The main experiment item,yes,0,0,/Users/ethan/Documents/GitHub/OpenSesame/Sternberg/experiment_files,0,0,0,no,mono,no,18,no,white,no,no,768,99,3.6.1,legacy,legacy,8 7 3,osweb,1.4.0,1,1,y,37,,0,right,,,h,right,right,right,808,,,44327,18899,33954,808,2,legacy,824,1536,24,864,24,-7,-7,1536,1632986216764,3,1024,2,48000,-16,experiment,1,odd,Win32,8,182778,,,179518,47,180549,107802,46,44411,140507,184795,181564,185608,47,184795,Sternberg_updated,13,15333,14,yes,1024
93,93,1076,1076,black,no,experiment,Mozilla,Netscape,5.0 (Windows),legacy,legacy,legacy,0,uniform,1,1,right,14,14,14,14,0,0,0,14,14,0,0,0,14,14,14,0,0,14,14,0,30-08-21,30-08-21,09:16:56,Thu Sep 30 2021 09:16:56 GMT+0200 (Θερινή ώρα Κεντρικής Ευρώπης),The main experiment item,yes,0,0,/Users/ethan/Documents/GitHub/OpenSesame/Sternberg/experiment_files,0,0,0,no,mono,no,18,no,white,no,no,768,99,3.6.1,legacy,legacy,9 1 6 7 8,osweb,1.4.0,1,1,y,37,,0,right,,,h,right,right,right,810,,,44327,18899,33954,810,2,legacy,824,1536,24,864,24,-7,-7,1536,1632986216764,5,1024,2,48000,-16,experiment,1,odd,Win32,9,188873,,,185612,47,186642,107802,46,44411,140507,190891,187659,191702,47,190891,Sternberg_updated,14,16143,15,yes,1024
94,94,1068,1068,black,no,experiment,Mozilla,Netscape,5.0 (Windows),legacy,legacy,legacy,0,uniform,1,1,right,15,15,15,15,0,0,0,15,15,0,0,0,15,15,15,0,0,15,15,0,30-08-21,30-08-21,09:16:56,Thu Sep 30 2021 09:16:56 GMT+0200 (Θερινή ώρα Κεντρικής Ευρώπης),The main experiment item,yes,0,0,/Users/ethan/Documents/GitHub/OpenSesame/Sternberg/experiment_files,0,0,0,no,mono,no,18,no,white,no,no,768,99,3.6.1,legacy,legacy,9 5 8 1,osweb,1.4.0,1,2,y,37,,0,right,,,h,right,right,right,946,,,44327,18899,33954,946,2,legacy,824,1536,24,864,24,-7,-7,1536,1632986216764,4,1024,2,48000,-16,experiment,1,odd,Win32,5,194950,,,191707,47,192732,107802,46,44411,140507,196969,193736,197930,47,196969,Sternberg_updated,15,17089,16,yes,1024
94,94,1056,1056,black,no,experiment,Mozilla,Netscape,5.0 (Windows),legacy,legacy,legacy,0,uniform,1,1,right,16,16,16,16,0,0,0,16,16,0,0,0,16,16,16,0,0,16,16,0,30-08-21,30-08-21,09:16:56,Thu Sep 30 2021 09:16:56 GMT+0200 (Θερινή ώρα Κεντρικής Ευρώπης),The main experiment item,yes,0,0,/Users/ethan/Documents/GitHub/OpenSesame/Sternberg/experiment_files,0,0,0,no,mono,no,18,no,white,no,no,768,99,3.6.1,legacy,legacy,3 2 1 4 7,osweb,1.4.0,1,2,y,37,,0,right,,,h,right,right,right,855,,,44327,18899,33954,855,2,legacy,824,1536,24,864,24,-7,-7,1536,1632986216764,5,1024,2,48000,-16,experiment,1,odd,Win32,2,201195,,,197935,47,198966,107802,46,44411,140507,203212,199982,204075,47,203212,Sternberg_updated,16,17944,17,yes,1024
94,94,1044,1044,black,no,experiment,Mozilla,Netscape,5.0 (Windows),legacy,legacy,legacy,0,uniform,1,1,left,17,17,17,17,0,0,0,17,17,0,0,0,17,17,17,0,0,17,17,0,30-08-21,30-08-21,09:16:56,Thu Sep 30 2021 09:16:56 GMT+0200 (Θερινή ώρα Κεντρικής Ευρώπης),The main experiment item,yes,0,0,/Users/ethan/Documents/GitHub/OpenSesame/Sternberg/experiment_files,0,0,0,no,mono,no,18,no,white,no,no,768,99,3.6.1,legacy,legacy,5 2,osweb,1.4.0,1,0,n,37,,0,left,,,h,right,right,left,844,,,44327,18899,33954,844,2,legacy,824,1536,24,864,24,-7,-7,1536,1632986216764,2,1024,2,48000,-16,experiment,1,odd,Win32,7,207338,,,204079,47,205110,107802,46,44411,140507,209356,206125,210201,47,209356,Sternberg_updated,17,18788,18,yes,1024
95,95,1024,1024,black,no,experiment,Mozilla,Netscape,5.0 (Windows),legacy,legacy,legacy,0,uniform,1,1,right,18,18,18,18,0,0,0,18,18,0,0,0,18,18,18,0,0,18,18,0,30-08-21,30-08-21,09:16:56,Thu Sep 30 2021 09:16:56 GMT+0200 (Θερινή ώρα Κεντρικής Ευρώπης),The main experiment item,yes,0,0,/Users/ethan/Documents/GitHub/OpenSesame/Sternberg/experiment_files,0,0,0,no,mono,no,18,no,white,no,no,768,99,3.6.1,legacy,legacy,4 1 8 7 5,osweb,1.4.0,1,3,y,37,,0,right,,,h,right,right,right,667,,,44327,18899,33954,667,2,legacy,824,1536,24,864,24,-7,-7,1536,1632986216764,5,1024,2,48000,-16,experiment,1,odd,Win32,8,213467,,,210206,47,211240,107802,46,44411,140507,215484,212252,216163,47,215484,Sternberg_updated,18,19455,19,yes,1024
95,95,1017,1017,black,no,experiment,Mozilla,Netscape,5.0 (Windows),legacy,legacy,legacy,0,uniform,1,1,left,19,19,19,19,0,0,0,19,19,0,0,0,19,19,19,0,0,19,19,0,30-08-21,30-08-21,09:16:56,Thu Sep 30 2021 09:16:56 GMT+0200 (Θερινή ώρα Κεντρικής Ευρώπης),The main experiment item,yes,0,0,/Users/ethan/Documents/GitHub/OpenSesame/Sternberg/experiment_files,0,0,0,no,mono,no,18,no,white,no,no,768,99,3.6.1,legacy,legacy,1 4 3 6 5,osweb,1.4.0,1,0,n,37,,0,left,,,h,right,right,left,879,,,44327,18899,33954,879,2,legacy,824,1536,24,864,24,-7,-7,1536,1632986216764,5,1024,2,48000,-16,experiment,1,odd,Win32,8,219427,,,216167,47,217200,107802,46,44411,140507,221444,218214,222323,47,221444,Sternberg_updated,19,20334,20,yes,1024
90,90,1000,1000,black,no,experiment,Mozilla,Netscape,5.0 (Windows),legacy,legacy,legacy,0,uniform,0,0,left,20,20,20,20,0,0,0,20,20,0,0,0,20,20,20,0,0,20,20,0,30-08-21,30-08-21,09:16:56,Thu Sep 30 2021 09:16:56 GMT+0200 (Θερινή ώρα Κεντρικής Ευρώπης),The main experiment item,yes,0,0,/Users/ethan/Documents/GitHub/OpenSesame/Sternberg/experiment_files,0,0,0,no,mono,no,18,no,white,no,no,768,99,3.6.1,legacy,legacy,1 7 5 2,osweb,1.4.0,1,0,n,37,,0,right,,,h,right,right,right,671,,,44327,18899,33954,671,2,legacy,824,1536,24,864,24,-7,-7,1536,1632986216764,4,1024,2,48000,-16,experiment,1,odd,Win32,3,225587,,,222328,47,223359,107802,46,44411,140507,227606,224375,228286,47,227606,Sternberg_updated,19,21005,21,yes,1024
91,91,1009,1009,black,no,experiment,Mozilla,Netscape,5.0 (Windows),legacy,legacy,legacy,0,uniform,1,1,right,21,21,21,21,0,0,0,21,21,0,0,0,21,21,21,0,0,21,21,0,30-08-21,30-08-21,09:16:56,Thu Sep 30 2021 09:16:56 GMT+0200 (Θερινή ώρα Κεντρικής Ευρώπης),The main experiment item,yes,0,0,/Users/ethan/Documents/GitHub/OpenSesame/Sternberg/experiment_files,0,0,0,no,mono,no,18,no,white,no,no,768,99,3.6.1,legacy,legacy,4 6 2 5 1,osweb,1.4.0,1,5,y,37,,0,right,,,h,right,right,right,1191,,,44327,18899,33954,1191,2,legacy,824,1536,24,864,24,-7,-7,1536,1632986216764,5,1024,2,48000,-16,experiment,1,odd,Win32,1,231549,,,222328,47,229321,228290,46,44411,140507,233568,230336,234762,47,233568,Sternberg_updated,20,22196,22,yes,1024
91,91,988,988,black,no,experiment,Mozilla,Netscape,5.0 (Windows),legacy,legacy,legacy,0,uniform,1,1,left,22,22,22,22,0,0,0,22,22,0,0,0,22,22,22,0,0,22,22,0,30-08-21,30-08-21,09:16:56,Thu Sep 30 2021 09:16:56 GMT+0200 (Θερινή ώρα Κεντρικής Ευρώπης),The main experiment item,yes,0,0,/Users/ethan/Documents/GitHub/OpenSesame/Sternberg/experiment_files,0,0,0,no,mono,no,18,no,white,no,no,768,99,3.6.1,legacy,legacy,4 1,osweb,1.4.0,1,0,n,37,,0,left,,,h,right,right,left,524,,,44327,18899,33954,524,2,legacy,824,1536,24,864,24,-7,-7,1536,1632986216764,2,1024,2,48000,-16,experiment,1,odd,Win32,6,238027,,,234767,47,235797,228290,46,44411,140507,240044,236814,240573,47,240044,Sternberg_updated,21,22720,23,yes,1024
92,92,989,989,black,no,experiment,Mozilla,Netscape,5.0 (Windows),legacy,legacy,legacy,0,uniform,1,1,left,23,23,23,23,0,0,0,23,23,0,0,0,23,23,23,0,0,23,23,0,30-08-21,30-08-21,09:16:56,Thu Sep 30 2021 09:16:56 GMT+0200 (Θερινή ώρα Κεντρικής Ευρώπης),The main experiment item,yes,0,0,/Users/ethan/Documents/GitHub/OpenSesame/Sternberg/experiment_files,0,0,0,no,mono,no,18,no,white,no,no,768,99,3.6.1,legacy,legacy,2 8 9 4 1,osweb,1.4.0,1,0,n,37,,0,left,,,h,right,right,left,1025,,,44327,18899,33954,1025,2,legacy,824,1536,24,864,24,-7,-7,1536,1632986216764,5,1024,2,48000,-16,experiment,1,odd,Win32,5,243821,,,240578,47,241602,228290,46,44411,140507,245839,242608,246868,47,245839,Sternberg_updated,22,23745,24,yes,1024
92,92,978,978,black,no,experiment,Mozilla,Netscape,5.0 (Windows),legacy,legacy,legacy,0,uniform,1,1,right,24,24,24,24,0,0,0,24,24,0,0,0,24,24,24,0,0,24,24,0,30-08-21,30-08-21,09:16:56,Thu Sep 30 2021 09:16:56 GMT+0200 (Θερινή ώρα Κεντρικής Ευρώπης),The main experiment item,yes,0,0,/Users/ethan/Documents/GitHub/OpenSesame/Sternberg/experiment_files,0,0,0,no,mono,no,18,no,white,no,no,768,99,3.6.1,legacy,legacy,7 1 3,osweb,1.4.0,1,2,y,37,,0,right,,,h,right,right,right,704,,,44327,18899,33954,704,2,legacy,824,1536,24,864,24,-7,-7,1536,1632986216764,3,1024,2,48000,-16,experiment,1,odd,Win32,1,250132,,,246872,47,247904,228290,46,44411,140507,252151,248919,252863,47,252151,Sternberg_updated,23,24449,25,yes,1024
92,92,971,971,black,no,experiment,Mozilla,Netscape,5.0 (Windows),legacy,legacy,legacy,0,uniform,1,1,left,25,25,25,25,0,0,0,25,25,0,0,0,25,25,25,0,0,25,25,0,30-08-21,30-08-21,09:16:56,Thu Sep 30 2021 09:16:56 GMT+0200 (Θερινή ώρα Κεντρικής Ευρώπης),The main experiment item,yes,0,0,/Users/ethan/Documents/GitHub/OpenSesame/Sternberg/experiment_files,0,0,0,no,mono,no,18,no,white,no,no,768,99,3.6.1,legacy,legacy,3 4 2,osweb,1.4.0,1,0,n,37,,0,left,,,h,right,right,left,800,,,44327,18899,33954,800,2,legacy,824,1536,24,864,24,-7,-7,1536,1632986216764,3,1024,2,48000,-16,experiment,1,odd,Win32,5,256127,,,252866,47,253898,228290,46,44411,140507,258151,254913,258956,47,258151,Sternberg_updated,24,25249,26,yes,1024
93,93,966,966,black,no,experiment,Mozilla,Netscape,5.0 (Windows),legacy,legacy,legacy,0,uniform,1,1,right,26,26,26,26,0,0,0,26,26,0,0,0,26,26,26,0,0,26,26,0,30-08-21,30-08-21,09:16:56,Thu Sep 30 2021 09:16:56 GMT+0200 (Θερινή ώρα Κεντρικής Ευρώπης),The main experiment item,yes,0,0,/Users/ethan/Documents/GitHub/OpenSesame/Sternberg/experiment_files,0,0,0,no,mono,no,18,no,white,no,no,768,99,3.6.1,legacy,legacy,5 7 8 2 3 8,osweb,1.4.0,1,5,y,37,,0,right,,,h,right,right,right,834,,,44327,18899,33954,834,2,legacy,824,1536,24,864,24,-7,-7,1536,1632986216764,6,1024,2,48000,-16,experiment,1,odd,Win32,3,262220,,,258961,47,259993,228290,46,44411,140507,264237,261008,265084,47,264237,Sternberg_updated,25,26083,27,yes,1024
93,93,954,954,black,no,experiment,Mozilla,Netscape,5.0 (Windows),legacy,legacy,legacy,0,uniform,1,1,right,27,27,27,27,0,0,0,27,27,0,0,0,27,27,27,0,0,27,27,0,30-08-21,30-08-21,09:16:56,Thu Sep 30 2021 09:16:56 GMT+0200 (Θερινή ώρα Κεντρικής Ευρώπης),The main experiment item,yes,0,0,/Users/ethan/Documents/GitHub/OpenSesame/Sternberg/experiment_files,0,0,0,no,mono,no,18,no,white,no,no,768,99,3.6.1,legacy,legacy,3 5 9 6 2 4,osweb,1.4.0,1,1,y,37,,0,right,,,h,right,right,right,635,,,44327,18899,33954,635,2,legacy,824,1536,24,864,24,-7,-7,1536,1632986216764,6,1024,2,48000,-16,experiment,1,odd,Win32,3,268348,,,265089,47,266119,228290,46,44411,140507,270366,267135,271012,47,270366,Sternberg_updated,26,26718,28,yes,1024
93,93,961,961,black,no,experiment,Mozilla,Netscape,5.0 (Windows),legacy,legacy,legacy,0,uniform,1,1,left,28,28,28,28,0,0,0,28,28,0,0,0,28,28,28,0,0,28,28,0,30-08-21,30-08-21,09:16:56,Thu Sep 30 2021 09:16:56 GMT+0200 (Θερινή ώρα Κεντρικής Ευρώπης),The main experiment item,yes,0,0,/Users/ethan/Documents/GitHub/OpenSesame/Sternberg/experiment_files,0,0,0,no,mono,no,18,no,white,no,no,768,99,3.6.1,legacy,legacy,8 5 7 3 6,osweb,1.4.0,1,0,n,37,,0,left,,,h,right,right,left,1159,,,44327,18899,33954,1159,2,legacy,824,1536,24,864,24,-7,-7,1536,1632986216764,5,1024,2,48000,-16,experiment,1,odd,Win32,9,274277,,,271016,47,272048,228290,46,44411,140507,276294,273062,277456,47,276294,Sternberg_updated,27,27877,29,yes,1024
93,93,968,968,black,no,experiment,Mozilla,Netscape,5.0 (Windows),legacy,legacy,legacy,0,uniform,1,1,right,29,29,29,29,0,0,0,29,29,0,0,0,29,29,29,0,0,29,29,0,30-08-21,30-08-21,09:16:56,Thu Sep 30 2021 09:16:56 GMT+0200 (Θερινή ώρα Κεντρικής Ευρώπης),The main experiment item,yes,0,0,/Users/ethan/Documents/GitHub/OpenSesame/Sternberg/experiment_files,0,0,0,no,mono,no,18,no,white,no,no,768,99,3.6.1,legacy,legacy,8 9 6 1,osweb,1.4.0,1,2,y,37,,0,right,,,h,right,right,right,1163,,,44327,18899,33954,1163,2,legacy,824,1536,24,864,24,-7,-7,1536,1632986216764,4,1024,2,48000,-16,experiment,1,odd,Win32,9,280720,,,277461,47,278491,228290,46,44411,140507,282737,279507,283917,47,282737,Sternberg_updated,28,29040,30,yes,1024
94,94,967,967,black,no,experiment,Mozilla,Netscape,5.0 (Windows),legacy,legacy,legacy,0,uniform,1,1,left,30,30,30,30,0,0,0,30,30,0,0,0,30,30,30,0,0,30,30,0,30-08-21,30-08-21,09:16:56,Thu Sep 30 2021 09:16:56 GMT+0200 (Θερινή ώρα Κεντρικής Ευρώπης),The main experiment item,yes,0,0,/Users/ethan/Documents/GitHub/OpenSesame/Sternberg/experiment_files,0,0,0,no,mono,no,18,no,white,no,no,768,99,3.6.1,legacy,legacy,6 8,osweb,1.4.0,1,0,n,37,,0,left,,,h,right,right,left,943,,,44327,18899,33954,943,2,legacy,824,1536,24,864,24,-7,-7,1536,1632986216764,2,1024,2,48000,-16,experiment,1,odd,Win32,9,287180,,,283921,47,284952,228290,46,44411,140507,289198,285968,290144,47,289198,Sternberg_updated,29,29983,31,yes,1024
91,91,955,955,black,no,experiment,Mozilla,Netscape,5.0 (Windows),legacy,legacy,legacy,0,uniform,0,0,right,31,31,31,31,0,0,0,31,31,0,0,0,31,31,31,0,0,31,31,0,30-08-21,30-08-21,09:16:56,Thu Sep 30 2021 09:16:56 GMT+0200 (Θερινή ώρα Κεντρικής Ευρώπης),The main experiment item,yes,0,0,/Users/ethan/Documents/GitHub/OpenSesame/Sternberg/experiment_files,0,0,0,no,mono,no,18,no,white,no,no,768,99,3.6.1,legacy,legacy,7,osweb,1.4.0,1,1,y,37,,0,left,,,h,right,right,left,577,,,44327,18899,33954,577,2,legacy,824,1536,24,864,24,-7,-7,1536,1632986216764,1,1024,2,48000,-16,experiment,1,odd,Win32,7,293392,,,290148,47,291175,228290,46,44411,140507,295410,292178,295989,47,295410,Sternberg_updated,29,30560,32,yes,1024
91,91,962,962,black,no,experiment,Mozilla,Netscape,5.0 (Windows),legacy,legacy,legacy,0,uniform,1,1,left,32,32,32,32,0,0,0,32,32,0,0,0,32,32,32,0,0,32,32,0,30-08-21,30-08-21,09:16:56,Thu Sep 30 2021 09:16:56 GMT+0200 (Θερινή ώρα Κεντρικής Ευρώπης),The main experiment item,yes,0,0,/Users/ethan/Documents/GitHub/OpenSesame/Sternberg/experiment_files,0,0,0,no,mono,no,18,no,white,no,no,768,99,3.6.1,legacy,legacy,8 5 4 2 9 6,osweb,1.4.0,1,0,n,37,,0,left,,,h,right,right,left,1196,,,44327,18899,33954,1196,2,legacy,824,1536,24,864,24,-7,-7,1536,1632986216764,6,1024,2,48000,-16,experiment,1,odd,Win32,3,299254,,,290148,47,297025,295993,46,44411,140507,301271,298040,302483,47,301271,Sternberg_updated,30,31756,33,yes,1024
91,91,962,962,black,no,experiment,Mozilla,Netscape,5.0 (Windows),legacy,legacy,legacy,0,uniform,1,1,right,33,33,33,33,0,0,0,33,33,0,0,0,33,33,33,0,0,33,33,0,30-08-21,30-08-21,09:16:56,Thu Sep 30 2021 09:16:56 GMT+0200 (Θερινή ώρα Κεντρικής Ευρώπης),The main experiment item,yes,0,0,/Users/ethan/Documents/GitHub/OpenSesame/Sternberg/experiment_files,0,0,0,no,mono,no,18,no,white,no,no,768,99,3.6.1,legacy,legacy,7 8 6 3 1,osweb,1.4.0,1,5,y,37,,0,right,,,h,right,right,right,959,,,44327,18899,33954,959,2,legacy,824,1536,24,864,24,-7,-7,1536,1632986216764,5,1024,2,48000,-16,experiment,1,odd,Win32,1,305730,,,302486,47,303509,295993,46,44411,140507,307748,304516,308711,47,307748,Sternberg_updated,31,32715,34,yes,1024
91,91,972,972,black,no,experiment,Mozilla,Netscape,5.0 (Windows),legacy,legacy,legacy,0,uniform,1,1,left,34,34,34,34,0,0,0,34,34,0,0,0,34,34,34,0,0,34,34,0,30-08-21,30-08-21,09:16:56,Thu Sep 30 2021 09:16:56 GMT+0200 (Θερινή ώρα Κεντρικής Ευρώπης),The main experiment item,yes,0,0,/Users/ethan/Documents/GitHub/OpenSesame/Sternberg/experiment_files,0,0,0,no,mono,no,18,no,white,no,no,768,99,3.6.1,legacy,legacy,6 3 1 7 9 8,osweb,1.4.0,1,0,n,37,,0,left,,,h,right,right,left,1321,,,44327,18899,33954,1321,2,legacy,824,1536,24,864,24,-7,-7,1536,1632986216764,6,1024,2,48000,-16,experiment,1,odd,Win32,4,311975,,,308714,47,309745,295993,46,44411,140507,313992,310762,315321,47,313992,Sternberg_updated,32,34036,35,yes,1024
92,92,972,972,black,no,experiment,Mozilla,Netscape,5.0 (Windows),legacy,legacy,legacy,0,uniform,1,1,left,35,35,35,35,0,0,0,35,35,0,0,0,35,35,35,0,0,35,35,0,30-08-21,30-08-21,09:16:56,Thu Sep 30 2021 09:16:56 GMT+0200 (Θερινή ώρα Κεντρικής Ευρώπης),The main experiment item,yes,0,0,/Users/ethan/Documents/GitHub/OpenSesame/Sternberg/experiment_files,0,0,0,no,mono,no,18,no,white,no,no,768,99,3.6.1,legacy,legacy,7 1,osweb,1.4.0,1,0,n,37,,0,left,,,h,right,right,left,959,,,44327,18899,33954,959,2,legacy,824,1536,24,864,24,-7,-7,1536,1632986216764,2,1024,2,48000,-16,experiment,1,odd,Win32,8,318585,,,315325,47,316356,295993,46,44411,140507,320603,317372,321565,47,320603,Sternberg_updated,33,34995,36,yes,1024
92,92,983,983,black,no,experiment,Mozilla,Netscape,5.0 (Windows),legacy,legacy,legacy,0,uniform,1,1,left,36,36,36,36,0,0,0,36,36,0,0,0,36,36,36,0,0,36,36,0,30-08-21,30-08-21,09:16:56,Thu Sep 30 2021 09:16:56 GMT+0200 (Θερινή ώρα Κεντρικής Ευρώπης),The main experiment item,yes,0,0,/Users/ethan/Documents/GitHub/OpenSesame/Sternberg/experiment_files,0,0,0,no,mono,no,18,no,white,no,no,768,99,3.6.1,legacy,legacy,1 4 9 2 5,osweb,1.4.0,1,0,n,37,,0,left,,,h,right,right,left,1364,,,44327,18899,33954,1364,2,legacy,824,1536,24,864,24,-7,-7,1536,1632986216764,5,1024,2,48000,-16,experiment,1,odd,Win32,7,324812,,,321568,47,322592,295993,46,44411,140507,326830,323600,328209,47,326830,Sternberg_updated,34,36359,37,yes,1024
92,92,986,986,black,no,experiment,Mozilla,Netscape,5.0 (Windows),legacy,legacy,legacy,0,uniform,1,1,right,37,37,37,37,0,0,0,37,37,0,0,0,37,37,37,0,0,37,37,0,30-08-21,30-08-21,09:16:56,Thu Sep 30 2021 09:16:56 GMT+0200 (Θερινή ώρα Κεντρικής Ευρώπης),The main experiment item,yes,0,0,/Users/ethan/Documents/GitHub/OpenSesame/Sternberg/experiment_files,0,0,0,no,mono,no,18,no,white,no,no,768,99,3.6.1,legacy,legacy,5 2 6,osweb,1.4.0,1,2,y,37,,0,right,,,h,right,right,right,1090,,,44327,18899,33954,1090,2,legacy,824,1536,24,864,24,-7,-7,1536,1632986216764,3,1024,2,48000,-16,experiment,1,odd,Win32,2,331474,,,328213,47,329244,295993,46,44411,140507,333490,330260,334587,47,333490,Sternberg_updated,35,37449,38,yes,1024
92,92,991,991,black,no,experiment,Mozilla,Netscape,5.0 (Windows),legacy,legacy,legacy,0,uniform,1,1,right,38,38,38,38,0,0,0,38,38,0,0,0,38,38,38,0,0,38,38,0,30-08-21,30-08-21,09:16:56,Thu Sep 30 2021 09:16:56 GMT+0200 (Θερινή ώρα Κεντρικής Ευρώπης),The main experiment item,yes,0,0,/Users/ethan/Documents/GitHub/OpenSesame/Sternberg/experiment_files,0,0,0,no,mono,no,18,no,white,no,no,768,99,3.6.1,legacy,legacy,8 3,osweb,1.4.0,1,2,y,37,,0,right,,,h,right,right,right,1218,,,44327,18899,33954,1218,2,legacy,824,1536,24,864,24,-7,-7,1536,1632986216764,2,1024,2,48000,-16,experiment,1,odd,Win32,3,337851,,,334590,47,335621,295993,46,44411,140507,339868,336637,341098,47,339868,Sternberg_updated,36,38667,39,yes,1024
93,93,994,994,black,no,experiment,Mozilla,Netscape,5.0 (Windows),legacy,legacy,legacy,0,uniform,1,1,left,39,39,39,39,0,0,0,39,39,0,0,0,39,39,39,0,0,39,39,0,30-08-21,30-08-21,09:16:56,Thu Sep 30 2021 09:16:56 GMT+0200 (Θερινή ώρα Κεντρικής Ευρώπης),The main experiment item,yes,0,0,/Users/ethan/Documents/GitHub/OpenSesame/Sternberg/experiment_files,0,0,0,no,mono,no,18,no,white,no,no,768,99,3.6.1,legacy,legacy,7 1 5 6 3,osweb,1.4.0,1,0,n,37,,0,left,,,h,right,right,left,1103,,,44327,18899,33954,1103,2,legacy,824,1536,24,864,24,-7,-7,1536,1632986216764,5,1024,2,48000,-16,experiment,1,odd,Win32,8,344361,,,341101,47,342132,295993,46,44411,140507,346379,343149,347491,47,346379,Sternberg_updated,37,39770,40,yes,1024
93,93,993,993,black,no,experiment,Mozilla,Netscape,5.0 (Windows),legacy,legacy,legacy,0,uniform,1,1,left,40,40,40,40,0,0,0,40,40,0,0,0,40,40,40,0,0,40,40,0,30-08-21,30-08-21,09:16:56,Thu Sep 30 2021 09:16:56 GMT+0200 (Θερινή ώρα Κεντρικής Ευρώπης),The main experiment item,yes,0,0,/Users/ethan/Documents/GitHub/OpenSesame/Sternberg/experiment_files,0,0,0,no,mono,no,18,no,white,no,no,768,99,3.6.1,legacy,legacy,1 6 4 3 9 7,osweb,1.4.0,1,0,n,37,,0,left,,,h,right,right,left,939,,,44327,18899,33954,939,2,legacy,824,1536,24,864,24,-7,-7,1536,1632986216764,6,1024,2,48000,-16,experiment,1,odd,Win32,8,350754,,,347495,47,348526,295993,46,44411,140507,352773,349541,353718,47,352773,Sternberg_updated,38,40709,41,yes,1024
93,93,1002,1002,black,no,experiment,Mozilla,Netscape,5.0 (Windows),legacy,legacy,legacy,0,uniform,1,1,left,41,41,41,41,0,0,0,41,41,0,0,0,41,41,41,0,0,41,41,0,30-08-21,30-08-21,09:16:56,Thu Sep 30 2021 09:16:56 GMT+0200 (Θερινή ώρα Κεντρικής Ευρώπης),The main experiment item,yes,0,0,/Users/ethan/Documents/GitHub/OpenSesame/Sternberg/experiment_files,0,0,0,no,mono,no,18,no,white,no,no,768,99,3.6.1,legacy,legacy,6 8 4,osweb,1.4.0,1,0,n,37,,0,left,,,h,right,right,left,1372,,,44327,18899,33954,1372,2,legacy,824,1536,24,864,24,-7,-7,1536,1632986216764,3,1024,2,48000,-16,experiment,1,odd,Win32,1,356966,,,353722,47,354745,295993,46,44411,140507,358983,355752,360363,47,358983,Sternberg_updated,39,42081,42,yes,1024
93,93,1004,1004,black,no,experiment,Mozilla,Netscape,5.0 (Windows),legacy,legacy,legacy,0,uniform,1,1,left,42,42,42,42,0,0,0,42,42,0,0,0,42,42,42,0,0,42,42,0,30-08-21,30-08-21,09:16:56,Thu Sep 30 2021 09:16:56 GMT+0200 (Θερινή ώρα Κεντρικής Ευρώπης),The main experiment item,yes,0,0,/Users/ethan/Documents/GitHub/OpenSesame/Sternberg/experiment_files,0,0,0,no,mono,no,18,no,white,no,no,768,99,3.6.1,legacy,legacy,3 4 9 6 7 8,osweb,1.4.0,1,0,n,37,,0,left,,,h,right,right,left,1111,,,44327,18899,33954,1111,2,legacy,824,1536,24,864,24,-7,-7,1536,1632986216764,6,1024,2,48000,-16,experiment,1,odd,Win32,2,363609,,,360367,47,361394,295993,46,44411,140507,365629,362397,366740,47,365629,Sternberg_updated,40,43192,43,yes,1024
93,93,1003,1003,black,no,experiment,Mozilla,Netscape,5.0 (Windows),legacy,legacy,legacy,0,uniform,1,1,left,43,43,43,43,0,0,0,43,43,0,0,0,43,43,43,0,0,43,43,0,30-08-21,30-08-21,09:16:56,Thu Sep 30 2021 09:16:56 GMT+0200 (Θερινή ώρα Κεντρικής Ευρώπης),The main experiment item,yes,0,0,/Users/ethan/Documents/GitHub/OpenSesame/Sternberg/experiment_files,0,0,0,no,mono,no,18,no,white,no,no,768,99,3.6.1,legacy,legacy,3 9 8 1 6 4,osweb,1.4.0,1,0,n,37,,0,left,,,h,right,right,left,923,,,44327,18899,33954,923,2,legacy,824,1536,24,864,24,-7,-7,1536,1632986216764,6,1024,2,48000,-16,experiment,1,odd,Win32,7,370004,,,366744,47,367774,295993,46,44411,140507,372022,368790,372951,47,372022,Sternberg_updated,41,44115,44,yes,1024
93,93,1000,1000,black,no,experiment,Mozilla,Netscape,5.0 (Windows),legacy,legacy,legacy,0,uniform,1,1,left,44,44,44,44,0,0,0,44,44,0,0,0,44,44,44,0,0,44,44,0,30-08-21,30-08-21,09:16:56,Thu Sep 30 2021 09:16:56 GMT+0200 (Θερινή ώρα Κεντρικής Ευρώπης),The main experiment item,yes,0,0,/Users/ethan/Documents/GitHub/OpenSesame/Sternberg/experiment_files,0,0,0,no,mono,no,18,no,white,no,no,768,99,3.6.1,legacy,legacy,6 9 7 3 8 2,osweb,1.4.0,1,0,n,37,,0,left,,,h,right,right,left,870,,,44327,18899,33954,870,2,legacy,824,1536,24,864,24,-7,-7,1536,1632986216764,6,1024,2,48000,-16,experiment,1,odd,Win32,5,376215,,,372955,47,373987,295993,46,44411,140507,378236,375002,379111,47,378236,Sternberg_updated,42,44985,45,yes,1024
93,93,1002,1002,black,no,experiment,Mozilla,Netscape,5.0 (Windows),legacy,legacy,legacy,0,uniform,1,1,right,45,45,45,45,0,0,0,45,45,0,0,0,45,45,45,0,0,45,45,0,30-08-21,30-08-21,09:16:56,Thu Sep 30 2021 09:16:56 GMT+0200 (Θερινή ώρα Κεντρικής Ευρώπης),The main experiment item,yes,0,0,/Users/ethan/Documents/GitHub/OpenSesame/Sternberg/experiment_files,0,0,0,no,mono,no,18,no,white,no,no,768,99,3.6.1,legacy,legacy,8 1 6,osweb,1.4.0,1,3,y,37,,0,right,,,h,right,right,right,1098,,,44327,18899,33954,1098,2,legacy,824,1536,24,864,24,-7,-7,1536,1632986216764,3,1024,2,48000,-16,experiment,1,odd,Win32,6,382377,,,379116,47,380147,295993,46,44411,140507,384393,381163,385506,47,384393,Sternberg_updated,43,46083,46,yes,1024
94,94,998,998,black,no,experiment,Mozilla,Netscape,5.0 (Windows),legacy,legacy,legacy,0,uniform,1,1,right,46,46,46,46,0,0,0,46,46,0,0,0,46,46,46,0,0,46,46,0,30-08-21,30-08-21,09:16:56,Thu Sep 30 2021 09:16:56 GMT+0200 (Θερινή ώρα Κεντρικής Ευρώπης),The main experiment item,yes,0,0,/Users/ethan/Documents/GitHub/OpenSesame/Sternberg/experiment_files,0,0,0,no,mono,no,18,no,white,no,no,768,99,3.6.1,legacy,legacy,9 4 2,osweb,1.4.0,1,1,y,37,,0,right,,,h,right,right,right,811,,,44327,18899,33954,811,2,legacy,824,1536,24,864,24,-7,-7,1536,1632986216764,3,1024,2,48000,-16,experiment,1,odd,Win32,9,388769,,,385510,47,386538,295993,46,44411,140507,390788,387558,391600,47,390788,Sternberg_updated,44,46894,47,yes,1024
94,94,988,988,black,no,experiment,Mozilla,Netscape,5.0 (Windows),legacy,legacy,legacy,0,uniform,1,1,left,47,47,47,47,0,0,0,47,47,0,0,0,47,47,47,0,0,47,47,0,30-08-21,30-08-21,09:16:56,Thu Sep 30 2021 09:16:56 GMT+0200 (Θερινή ώρα Κεντρικής Ευρώπης),The main experiment item,yes,0,0,/Users/ethan/Documents/GitHub/OpenSesame/Sternberg/experiment_files,0,0,0,no,mono,no,18,no,white,no,no,768,99,3.6.1,legacy,legacy,1,osweb,1.4.0,1,0,n,37,,0,left,,,h,right,right,left,535,,,44327,18899,33954,535,2,legacy,824,1536,24,864,24,-7,-7,1536,1632986216764,1,1024,2,48000,-16,experiment,1,odd,Win32,7,394865,,,391604,47,392636,295993,46,44411,140507,396882,393652,397429,47,396882,Sternberg_updated,45,47429,48,yes,1024
94,94,986,986,black,no,experiment,Mozilla,Netscape,5.0 (Windows),legacy,legacy,legacy,0,uniform,1,1,right,48,48,48,48,0,0,0,48,48,0,0,0,48,48,48,0,0,48,48,0,30-08-21,30-08-21,09:16:56,Thu Sep 30 2021 09:16:56 GMT+0200 (Θερινή ώρα Κεντρικής Ευρώπης),The main experiment item,yes,0,0,/Users/ethan/Documents/GitHub/OpenSesame/Sternberg/experiment_files,0,0,0,no,mono,no,18,no,white,no,no,768,99,3.6.1,legacy,legacy,9 3 8 2 1 4,osweb,1.4.0,1,3,y,37,,0,right,,,h,right,right,right,863,,,44327,18899,33954,863,2,legacy,824,1536,24,864,24,-7,-7,1536,1632986216764,6,1024,2,48000,-16,experiment,1,odd,Win32,8,400693,,,397433,47,398461,295993,46,44411,140507,402710,399480,403589,47,402710,Sternberg_updated,46,48292,49,yes,1024
94,94,984,984,black,no,experiment,Mozilla,Netscape,5.0 (Windows),legacy,legacy,legacy,0,uniform,1,1,right,49,49,49,49,0,0,0,49,49,0,0,0,49,49,49,0,0,49,49,0,30-08-21,30-08-21,09:16:56,Thu Sep 30 2021 09:16:56 GMT+0200 (Θερινή ώρα Κεντρικής Ευρώπης),The main experiment item,yes,0,0,/Users/ethan/Documents/GitHub/OpenSesame/Sternberg/experiment_files,0,0,0,no,mono,no,18,no,white,no,no,768,99,3.6.1,legacy,legacy,2 4 6 9,osweb,1.4.0,1,3,y,37,,0,right,,,h,right,right,right,887,,,44327,18899,33954,887,2,legacy,824,1536,24,864,24,-7,-7,1536,1632986216764,4,1024,2,48000,-16,experiment,1,odd,Win32,6,406854,,,403593,47,404625,295993,46,44411,140507,408872,405640,409767,47,408872,Sternberg_updated,47,49179,50,yes,1024
94,94,983,983,black,no,experiment,Mozilla,Netscape,5.0 (Windows),legacy,legacy,legacy,0,uniform,1,1,right,50,50,50,50,0,0,0,50,50,0,0,0,50,50,50,0,0,50,50,0,30-08-21,30-08-21,09:16:56,Thu Sep 30 2021 09:16:56 GMT+0200 (Θερινή ώρα Κεντρικής Ευρώπης),The main experiment item,yes,0,0,/Users/ethan/Documents/GitHub/OpenSesame/Sternberg/experiment_files,0,0,0,no,mono,no,18,no,white,no,no,768,99,3.6.1,legacy,legacy,1 4 9 3 2 5,osweb,1.4.0,1,3,y,37,,0,right,,,h,right,right,right,958,,,44327,18899,33954,958,2,legacy,824,1536,24,864,24,-7,-7,1536,1632986216764,6,1024,2,48000,-16,experiment,1,odd,Win32,9,413031,,,409771,47,410801,295993,46,44411,140507,415048,411817,416011,47,415048,Sternberg_updated,48,50137,51,yes,1024
94,94,979,979,black,no,experiment,Mozilla,Netscape,5.0 (Windows),legacy,legacy,legacy,0,uniform,1,1,left,51,51,51,51,0,0,0,51,51,0,0,0,51,51,51,0,0,51,51,0,30-08-21,30-08-21,09:16:56,Thu Sep 30 2021 09:16:56 GMT+0200 (Θερινή ώρα Κεντρικής Ευρώπης),The main experiment item,yes,0,0,/Users/ethan/Documents/GitHub/OpenSesame/Sternberg/experiment_files,0,0,0,no,mono,no,18,no,white,no,no,768,99,3.6.1,legacy,legacy,8 9,osweb,1.4.0,1,0,n,37,,0,left,,,h,right,right,left,763,,,44327,18899,33954,763,2,legacy,824,1536,24,864,24,-7,-7,1536,1632986216764,2,1024,2,48000,-16,experiment,1,odd,Win32,5,419275,,,416015,47,417043,295993,46,44411,140507,421292,418063,422056,47,421292,Sternberg_updated,49,50900,52,yes,1024
94,94,977,977,black,no,experiment,Mozilla,Netscape,5.0 (Windows),legacy,legacy,legacy,0,uniform,1,1,right,52,52,52,52,0,0,0,52,52,0,0,0,52,52,52,0,0,52,52,0,30-08-21,30-08-21,09:16:56,Thu Sep 30 2021 09:16:56 GMT+0200 (Θερινή ώρα Κεντρικής Ευρώπης),The main experiment item,yes,0,0,/Users/ethan/Documents/GitHub/OpenSesame/Sternberg/experiment_files,0,0,0,no,mono,no,18,no,white,no,no,768,99,3.6.1,legacy,legacy,2 3,osweb,1.4.0,1,1,y,37,,0,right,,,h,right,right,right,891,,,44327,18899,33954,891,2,legacy,824,1536,24,864,24,-7,-7,1536,1632986216764,2,1024,2,48000,-16,experiment,1,odd,Win32,2,425303,,,422060,47,423082,295993,46,44411,140507,427321,424090,428217,47,427321,Sternberg_updated,50,51791,53,yes,1024
94,94,973,973,black,no,experiment,Mozilla,Netscape,5.0 (Windows),legacy,legacy,legacy,0,uniform,1,1,left,53,53,53,53,0,0,0,53,53,0,0,0,53,53,53,0,0,53,53,0,30-08-21,30-08-21,09:16:56,Thu Sep 30 2021 09:16:56 GMT+0200 (Θερινή ώρα Κεντρικής Ευρώπης),The main experiment item,yes,0,0,/Users/ethan/Documents/GitHub/OpenSesame/Sternberg/experiment_files,0,0,0,no,mono,no,18,no,white,no,no,768,99,3.6.1,legacy,legacy,1 4 9 3,osweb,1.4.0,1,0,n,37,,0,left,,,h,right,right,left,745,,,44327,18899,33954,745,2,legacy,824,1536,24,864,24,-7,-7,1536,1632986216764,4,1024,2,48000,-16,experiment,1,odd,Win32,5,431464,,,428222,47,429243,295993,46,44411,140507,433482,430251,434228,47,433482,Sternberg_updated,51,52536,54,yes,1024
95,95,971,971,black,no,experiment,Mozilla,Netscape,5.0 (Windows),legacy,legacy,legacy,0,uniform,1,1,right,54,54,54,54,0,0,0,54,54,0,0,0,54,54,54,0,0,54,54,0,30-08-21,30-08-21,09:16:56,Thu Sep 30 2021 09:16:56 GMT+0200 (Θερινή ώρα Κεντρικής Ευρώπης),The main experiment item,yes,0,0,/Users/ethan/Documents/GitHub/OpenSesame/Sternberg/experiment_files,0,0,0,no,mono,no,18,no,white,no,no,768,99,3.6.1,legacy,legacy,8 9 5 6 7,osweb,1.4.0,1,1,y,37,,0,right,,,h,right,right,right,883,,,44327,18899,33954,883,2,legacy,824,1536,24,864,24,-7,-7,1536,1632986216764,5,1024,2,48000,-16,experiment,1,odd,Win32,8,437475,,,434232,47,435256,295993,46,44411,140507,439492,436262,440388,47,439492,Sternberg_updated,52,53419,55,yes,1024
95,95,973,973,black,no,experiment,Mozilla,Netscape,5.0 (Windows),legacy,legacy,legacy,0,uniform,1,1,left,55,55,55,55,0,0,0,55,55,0,0,0,55,55,55,0,0,55,55,0,30-08-21,30-08-21,09:16:56,Thu Sep 30 2021 09:16:56 GMT+0200 (Θερινή ώρα Κεντρικής Ευρώπης),The main experiment item,yes,0,0,/Users/ethan/Documents/GitHub/OpenSesame/Sternberg/experiment_files,0,0,0,no,mono,no,18,no,white,no,no,768,99,3.6.1,legacy,legacy,1 7 8 3 9,osweb,1.4.0,1,0,n,37,,0,left,space,,h,right,right,left,1077,31117,,44327,18899,33954,1077,2,legacy,824,1536,24,864,24,-7,-7,1536,1632986216764,5,1024,2,48000,-16,experiment,1,odd,Win32,2,474774,441413,,440392,47,472557,295993,46,44411,140507,476791,473560,477870,47,476791,Sternberg_updated,53,54496,56,yes,1024
95,95,967,967,black,no,experiment,Mozilla,Netscape,5.0 (Windows),legacy,legacy,legacy,0,uniform,1,1,right,56,56,56,56,0,0,0,56,56,0,0,0,56,56,56,0,0,56,56,0,30-08-21,30-08-21,09:16:56,Thu Sep 30 2021 09:16:56 GMT+0200 (Θερινή ώρα Κεντρικής Ευρώπης),The main experiment item,yes,0,0,/Users/ethan/Documents/GitHub/OpenSesame/Sternberg/experiment_files,0,0,0,no,mono,no,18,no,white,no,no,768,99,3.6.1,legacy,legacy,7 6,osweb,1.4.0,1,2,y,37,,0,right,space,,h,right,right,right,651,31117,,44327,18899,33954,651,2,legacy,824,1536,24,864,24,-7,-7,1536,1632986216764,2,1024,2,48000,-16,experiment,1,odd,Win32,6,481134,441413,,477874,47,478906,295993,46,44411,140507,483153,479922,483815,47,483153,Sternberg_updated,54,55147,57,yes,1024
95,95,965,965,black,no,experiment,Mozilla,Netscape,5.0 (Windows),legacy,legacy,legacy,0,uniform,1,1,left,57,57,57,57,0,0,0,57,57,0,0,0,57,57,57,0,0,57,57,0,30-08-21,30-08-21,09:16:56,Thu Sep 30 2021 09:16:56 GMT+0200 (Θερινή ώρα Κεντρικής Ευρώπης),The main experiment item,yes,0,0,/Users/ethan/Documents/GitHub/OpenSesame/Sternberg/experiment_files,0,0,0,no,mono,no,18,no,white,no,no,768,99,3.6.1,legacy,legacy,4 2 6 9,osweb,1.4.0,1,0,n,37,,0,left,space,,h,right,right,left,809,31117,,44327,18899,33954,809,2,legacy,824,1536,24,864,24,-7,-7,1536,1632986216764,4,1024,2,48000,-16,experiment,1,odd,Win32,7,487062,441413,,483819,47,484842,295993,46,44411,140507,489080,485848,489892,47,489080,Sternberg_updated,55,55956,58,yes,1024
95,95,964,964,black,no,experiment,Mozilla,Netscape,5.0 (Windows),legacy,legacy,legacy,0,uniform,1,1,left,58,58,58,58,0,0,0,58,58,0,0,0,58,58,58,0,0,58,58,0,30-08-21,30-08-21,09:16:56,Thu Sep 30 2021 09:16:56 GMT+0200 (Θερινή ώρα Κεντρικής Ευρώπης),The main experiment item,yes,0,0,/Users/ethan/Documents/GitHub/OpenSesame/Sternberg/experiment_files,0,0,0,no,mono,no,18,no,white,no,no,768,99,3.6.1,legacy,legacy,2 3 8 5 6 7,osweb,1.4.0,1,0,n,37,,0,left,space,,h,right,right,left,944,31117,,44327,18899,33954,944,2,legacy,824,1536,24,864,24,-7,-7,1536,1632986216764,6,1024,2,48000,-16,experiment,1,odd,Win32,1,493157,441413,,489897,47,490929,295993,46,44411,140507,495174,491944,496119,47,495173,Sternberg_updated,56,56900,59,yes,1024
95,95,965,965,black,no,experiment,Mozilla,Netscape,5.0 (Windows),legacy,legacy,legacy,0,uniform,1,1,right,59,59,59,59,0,0,0,59,59,0,0,0,59,59,59,0,0,59,59,0,30-08-21,30-08-21,09:16:56,Thu Sep 30 2021 09:16:56 GMT+0200 (Θερινή ώρα Κεντρικής Ευρώπης),The main experiment item,yes,0,0,/Users/ethan/Documents/GitHub/OpenSesame/Sternberg/experiment_files,0,0,0,no,mono,no,18,no,white,no,no,768,99,3.6.1,legacy,legacy,4 3 2 5 8,osweb,1.4.0,1,2,y,37,,0,right,space,,h,right,right,right,1009,31117,,44327,18899,33954,1009,2,legacy,824,1536,24,864,24,-7,-7,1536,1632986216764,5,1024,2,48000,-16,experiment,1,odd,Win32,3,499384,441413,,496125,47,497156,295993,46,44411,140507,501403,498171,502415,47,501403,Sternberg_updated,57,57909,60,yes,1024
95,95,962,962,black,no,experiment,Mozilla,Netscape,5.0 (Windows),legacy,legacy,legacy,0,uniform,1,1,right,60,60,60,60,0,0,0,60,60,0,0,0,60,60,60,0,0,60,60,0,30-08-21,30-08-21,09:16:56,Thu Sep 30 2021 09:16:56 GMT+0200 (Θερινή ώρα Κεντρικής Ευρώπης),The main experiment item,yes,0,0,/Users/ethan/Documents/GitHub/OpenSesame/Sternberg/experiment_files,0,0,0,no,mono,no,18,no,white,no,no,768,99,3.6.1,legacy,legacy,7 2 3,osweb,1.4.0,1,3,y,37,,0,right,space,,h,right,right,right,745,31117,,44327,18899,33954,745,2,legacy,824,1536,24,864,24,-7,-7,1536,1632986216764,3,1024,2,48000,-16,experiment,1,odd,Win32,3,505662,441413,,502418,47,503439,295993,46,44411,140507,507680,504449,508426,47,507680,Sternberg_updated,58,58654,61,yes,1024
95,95,957,957,black,no,experiment,Mozilla,Netscape,5.0 (Windows),legacy,legacy,legacy,0,uniform,1,1,right,61,61,61,61,0,0,0,61,61,0,0,0,61,61,61,0,0,61,61,0,30-08-21,30-08-21,09:16:56,Thu Sep 30 2021 09:16:56 GMT+0200 (Θερινή ώρα Κεντρικής Ευρώπης),The main experiment item,yes,0,0,/Users/ethan/Documents/GitHub/OpenSesame/Sternberg/experiment_files,0,0,0,no,mono,no,18,no,white,no,no,768,99,3.6.1,legacy,legacy,6 1 2,osweb,1.4.0,1,3,y,37,,0,right,space,,h,right,right,right,680,31117,,44327,18899,33954,680,2,legacy,824,1536,24,864,24,-7,-7,1536,1632986216764,3,1024,2,48000,-16,experiment,1,odd,Win32,2,511672,441413,,508430,47,509453,295993,46,44411,140507,513691,510460,514387,47,513691,Sternberg_updated,59,59334,62,yes,1024
95,95,961,961,black,no,experiment,Mozilla,Netscape,5.0 (Windows),legacy,legacy,legacy,0,uniform,1,1,right,62,62,62,62,0,0,0,62,62,0,0,0,62,62,62,0,0,62,62,0,30-08-21,30-08-21,09:16:56,Thu Sep 30 2021 09:16:56 GMT+0200 (Θερινή ώρα Κεντρικής Ευρώπης),The main experiment item,yes,0,0,/Users/ethan/Documents/GitHub/OpenSesame/Sternberg/experiment_files,0,0,0,no,mono,no,18,no,white,no,no,768,99,3.6.1,legacy,legacy,6 9 7 4 5 1,osweb,1.4.0,1,2,y,37,,0,right,space,,h,right,right,right,1211,31117,,44327,18899,33954,1211,2,legacy,824,1536,24,864,24,-7,-7,1536,1632986216764,6,1024,2,48000,-16,experiment,1,odd,Win32,9,517651,441413,,514391,47,515422,295993,46,44411,140507,519668,516438,520880,47,519668,Sternberg_updated,60,60545,63,yes,1024
95,95,959,959,black,no,experiment,Mozilla,Netscape,5.0 (Windows),legacy,legacy,legacy,0,uniform,1,1,left,63,63,63,63,0,0,0,63,63,0,0,0,63,63,63,0,0,63,63,0,30-08-21,30-08-21,09:16:56,Thu Sep 30 2021 09:16:56 GMT+0200 (Θερινή ώρα Κεντρικής Ευρώπης),The main experiment item,yes,0,0,/Users/ethan/Documents/GitHub/OpenSesame/Sternberg/experiment_files,0,0,0,no,mono,no,18,no,white,no,no,768,99,3.6.1,legacy,legacy,1 8 7,osweb,1.4.0,1,0,n,37,,0,left,space,,h,right,right,left,822,31117,,44327,18899,33954,822,2,legacy,824,1536,24,864,24,-7,-7,1536,1632986216764,3,1024,2,48000,-16,experiment,1,odd,Win32,4,524128,441413,,520885,47,521907,295993,46,44411,140507,526145,522915,526975,47,526145,Sternberg_updated,61,61367,64,yes,1024
95,95,960,960,black,no,experiment,Mozilla,Netscape,5.0 (Windows),legacy,legacy,legacy,0,uniform,1,1,left,64,64,64,64,0,0,0,64,64,0,0,0,64,64,64,0,0,64,64,0,30-08-21,30-08-21,09:16:56,Thu Sep 30 2021 09:16:56 GMT+0200 (Θερινή ώρα Κεντρικής Ευρώπης),The main experiment item,yes,0,0,/Users/ethan/Documents/GitHub/OpenSesame/Sternberg/experiment_files,0,0,0,no,mono,no,18,no,white,no,no,768,99,3.6.1,legacy,legacy,3 9 1,osweb,1.4.0,1,0,n,37,,0,left,space,,h,right,right,left,1045,31117,,44327,18899,33954,1045,2,legacy,824,1536,24,864,24,-7,-7,1536,1632986216764,3,1024,2,48000,-16,experiment,1,odd,Win32,7,530222,441413,,526979,47,528006,295993,46,44411,140507,532241,529009,533302,47,532241,Sternberg_updated,62,62412,65,yes,1024
95,95,961,961,black,no,experiment,Mozilla,Netscape,5.0 (Windows),legacy,legacy,legacy,0,uniform,1,1,left,65,65,65,65,0,0,0,65,65,0,0,0,65,65,65,0,0,65,65,0,30-08-21,30-08-21,09:16:56,Thu Sep 30 2021 09:16:56 GMT+0200 (Θερινή ώρα Κεντρικής Ευρώπης),The main experiment item,yes,0,0,/Users/ethan/Documents/GitHub/OpenSesame/Sternberg/experiment_files,0,0,0,no,mono,no,18,no,white,no,no,768,99,3.6.1,legacy,legacy,9 8 2 7 4,osweb,1.4.0,1,0,n,37,,0,left,space,,h,right,right,left,1024,31117,,44327,18899,33954,1024,2,legacy,824,1536,24,864,24,-7,-7,1536,1632986216764,5,1024,2,48000,-16,experiment,1,odd,Win32,5,536567,441413,,533306,47,534342,295993,46,44411,140507,538585,535354,539613,47,538585,Sternberg_updated,63,63436,66,yes,1024
94,94,955,955,black,no,experiment,Mozilla,Netscape,5.0 (Windows),legacy,legacy,legacy,0,uniform,0,0,right,66,66,66,66,0,0,0,66,66,0,0,0,66,66,66,0,0,66,66,0,30-08-21,30-08-21,09:16:56,Thu Sep 30 2021 09:16:56 GMT+0200 (Θερινή ώρα Κεντρικής Ευρώπης),The main experiment item,yes,0,0,/Users/ethan/Documents/GitHub/OpenSesame/Sternberg/experiment_files,0,0,0,no,mono,no,18,no,white,no,no,768,99,3.6.1,legacy,legacy,6 5,osweb,1.4.0,1,2,y,37,,0,left,space,,h,right,right,left,544,31117,,44327,18899,33954,544,2,legacy,824,1536,24,864,24,-7,-7,1536,1632986216764,2,1024,2,48000,-16,experiment,1,odd,Win32,5,542861,441413,,539617,47,540640,295993,46,44411,140507,544879,541648,545424,47,544879,Sternberg_updated,63,63980,67,yes,1024
94,94,953,953,black,no,experiment,Mozilla,Netscape,5.0 (Windows),legacy,legacy,legacy,0,uniform,1,1,right,67,67,67,67,0,0,0,67,67,0,0,0,67,67,67,0,0,67,67,0,30-08-21,30-08-21,09:16:56,Thu Sep 30 2021 09:16:56 GMT+0200 (Θερινή ώρα Κεντρικής Ευρώπης),The main experiment item,yes,0,0,/Users/ethan/Documents/GitHub/OpenSesame/Sternberg/experiment_files,0,0,0,no,mono,no,18,no,white,no,no,768,99,3.6.1,legacy,legacy,8 5 1 3 9,osweb,1.4.0,1,4,y,37,,0,right,space,,h,right,right,right,817,31117,,44327,18899,33954,817,2,legacy,824,1536,24,864,24,-7,-7,1536,1632986216764,5,1024,2,48000,-16,experiment,1,odd,Win32,3,548672,441413,,539617,47,546452,545427,46,44411,140507,550690,547459,551519,47,550689,Sternberg_updated,64,64797,68,yes,1024
94,94,952,952,black,no,experiment,Mozilla,Netscape,5.0 (Windows),legacy,legacy,legacy,0,uniform,1,1,left,68,68,68,68,0,0,0,68,68,0,0,0,68,68,68,0,0,68,68,0,30-08-21,30-08-21,09:16:56,Thu Sep 30 2021 09:16:56 GMT+0200 (Θερινή ώρα Κεντρικής Ευρώπης),The main experiment item,yes,0,0,/Users/ethan/Documents/GitHub/OpenSesame/Sternberg/experiment_files,0,0,0,no,mono,no,18,no,white,no,no,768,99,3.6.1,legacy,legacy,7 1 8 4 9 3,osweb,1.4.0,1,0,n,37,,0,left,space,,h,right,right,left,914,31117,,44327,18899,33954,914,2,legacy,824,1536,24,864,24,-7,-7,1536,1632986216764,6,1024,2,48000,-16,experiment,1,odd,Win32,6,554783,441413,,551524,47,552553,545427,46,44411,140507,556802,553570,557730,47,556801,Sternberg_updated,65,65711,69,yes,1024
93,93,952,952,black,no,experiment,Mozilla,Netscape,5.0 (Windows),legacy,legacy,legacy,0,uniform,0,0,left,69,69,69,69,0,0,0,69,69,0,0,0,69,69,69,0,0,69,69,0,30-08-21,30-08-21,09:16:56,Thu Sep 30 2021 09:16:56 GMT+0200 (Θερινή ώρα Κεντρικής Ευρώπης),The main experiment item,yes,0,0,/Users/ethan/Documents/GitHub/OpenSesame/Sternberg/experiment_files,0,0,0,no,mono,no,18,no,white,no,no,768,99,3.6.1,legacy,legacy,1 6 4,osweb,1.4.0,1,0,n,37,,0,right,space,,h,right,right,right,913,31117,,44327,18899,33954,913,2,legacy,824,1536,24,864,24,-7,-7,1536,1632986216764,3,1024,2,48000,-16,experiment,1,odd,Win32,7,560994,441413,,557735,47,558762,545427,46,44411,140507,563013,559781,563941,47,563012,Sternberg_updated,65,66624,70,yes,1024
93,93,960,960,black,no,experiment,Mozilla,Netscape,5.0 (Windows),legacy,legacy,legacy,0,uniform,1,1,left,70,70,70,70,0,0,0,70,70,0,0,0,70,70,70,0,0,70,70,0,30-08-21,30-08-21,09:16:56,Thu Sep 30 2021 09:16:56 GMT+0200 (Θερινή ώρα Κεντρικής Ευρώπης),The main experiment item,yes,0,0,/Users/ethan/Documents/GitHub/OpenSesame/Sternberg/experiment_files,0,0,0,no,mono,no,18,no,white,no,no,768,99,3.6.1,legacy,legacy,1 7 5 2 9,osweb,1.4.0,1,0,n,37,,0,left,space,,h,right,right,left,1526,31117,,44327,18899,33954,1526,2,legacy,824,1536,24,864,24,-7,-7,1536,1632986216764,5,1024,2,48000,-16,experiment,1,odd,Win32,3,567188,441413,,557735,47,564969,563945,46,44411,140507,569206,565975,570734,47,569206,Sternberg_updated,66,68150,71,yes,1024
93,93,965,965,black,no,experiment,Mozilla,Netscape,5.0 (Windows),legacy,legacy,legacy,0,uniform,1,1,left,71,71,71,71,0,0,0,71,71,0,0,0,71,71,71,0,0,71,71,0,30-08-21,30-08-21,09:16:56,Thu Sep 30 2021 09:16:56 GMT+0200 (Θερινή ώρα Κεντρικής Ευρώπης),The main experiment item,yes,0,0,/Users/ethan/Documents/GitHub/OpenSesame/Sternberg/experiment_files,0,0,0,no,mono,no,18,no,white,no,no,768,99,3.6.1,legacy,legacy,2 5 1 4,osweb,1.4.0,1,0,n,37,,0,left,space,,h,right,right,left,1317,31117,,44327,18899,33954,1317,2,legacy,824,1536,24,864,24,-7,-7,1536,1632986216764,4,1024,2,48000,-16,experiment,1,odd,Win32,6,573982,441413,,570738,47,571762,563945,46,44411,140507,576000,572769,577329,47,576000,Sternberg_updated,67,69467,72,yes,1024
93,93,969,969,black,no,experiment,Mozilla,Netscape,5.0 (Windows),legacy,legacy,legacy,0,uniform,1,1,left,72,72,72,72,0,0,0,72,72,0,0,0,72,72,72,0,0,72,72,0,30-08-21,30-08-21,09:16:56,Thu Sep 30 2021 09:16:56 GMT+0200 (Θερινή ώρα Κεντρικής Ευρώπης),The main experiment item,yes,0,0,/Users/ethan/Documents/GitHub/OpenSesame/Sternberg/experiment_files,0,0,0,no,mono,no,18,no,white,no,no,768,99,3.6.1,legacy,legacy,7 9 1 6,osweb,1.4.0,1,0,n,37,,0,left,space,,h,right,right,left,1293,31117,,44327,18899,33954,1293,2,legacy,824,1536,24,864,24,-7,-7,1536,1632986216764,4,1024,2,48000,-16,experiment,1,odd,Win32,4,580592,441413,,577333,47,578363,563945,46,44411,140507,582610,579380,583906,47,582609,Sternberg_updated,68,70760,73,yes,1024
93,93,973,973,black,no,experiment,Mozilla,Netscape,5.0 (Windows),legacy,legacy,legacy,0,uniform,1,1,right,73,73,73,73,0,0,0,73,73,0,0,0,73,73,73,0,0,73,73,0,30-08-21,30-08-21,09:16:56,Thu Sep 30 2021 09:16:56 GMT+0200 (Θερινή ώρα Κεντρικής Ευρώπης),The main experiment item,yes,0,0,/Users/ethan/Documents/GitHub/OpenSesame/Sternberg/experiment_files,0,0,0,no,mono,no,18,no,white,no,no,768,99,3.6.1,legacy,legacy,6 8 9 3 4 9,osweb,1.4.0,1,5,y,37,,0,right,space,,h,right,right,right,1275,31117,,44327,18899,33954,1275,2,legacy,824,1536,24,864,24,-7,-7,1536,1632986216764,6,1024,2,48000,-16,experiment,1,odd,Win32,4,587153,441413,,583910,47,584934,563945,46,44411,140507,589171,585940,590449,47,589171,Sternberg_updated,69,72035,74,yes,1024
93,93,972,972,black,no,experiment,Mozilla,Netscape,5.0 (Windows),legacy,legacy,legacy,0,uniform,1,1,right,74,74,74,74,0,0,0,74,74,0,0,0,74,74,74,0,0,74,74,0,30-08-21,30-08-21,09:16:56,Thu Sep 30 2021 09:16:56 GMT+0200 (Θερινή ώρα Κεντρικής Ευρώπης),The main experiment item,yes,0,0,/Users/ethan/Documents/GitHub/OpenSesame/Sternberg/experiment_files,0,0,0,no,mono,no,18,no,white,no,no,768,99,3.6.1,legacy,legacy,9 8 4,osweb,1.4.0,1,1,y,37,,0,right,space,,h,right,right,right,846,31117,,44327,18899,33954,846,2,legacy,824,1536,24,864,24,-7,-7,1536,1632986216764,3,1024,2,48000,-16,experiment,1,odd,Win32,9,593697,441413,,590453,47,591476,563945,46,44411,140507,595715,592484,596578,47,595715,Sternberg_updated,70,72881,75,yes,1024
93,93,973,973,black,no,experiment,Mozilla,Netscape,5.0 (Windows),legacy,legacy,legacy,0,uniform,1,1,left,75,75,75,75,0,0,0,75,75,0,0,0,75,75,75,0,0,75,75,0,30-08-21,30-08-21,09:16:56,Thu Sep 30 2021 09:16:56 GMT+0200 (Θερινή ώρα Κεντρικής Ευρώπης),The main experiment item,yes,0,0,/Users/ethan/Documents/GitHub/OpenSesame/Sternberg/experiment_files,0,0,0,no,mono,no,18,no,white,no,no,768,99,3.6.1,legacy,legacy,9,osweb,1.4.0,1,0,n,37,,0,left,space,,h,right,right,left,1038,31117,,44327,18899,33954,1038,2,legacy,824,1536,24,864,24,-7,-7,1536,1632986216764,1,1024,2,48000,-16,experiment,1,odd,Win32,6,599841,441413,,596582,47,597611,563945,46,44411,140507,601859,598628,602904,47,601859,Sternberg_updated,71,73919,76,yes,1024
94,94,972,972,black,no,experiment,Mozilla,Netscape,5.0 (Windows),legacy,legacy,legacy,0,uniform,1,1,right,76,76,76,76,0,0,0,76,76,0,0,0,76,76,76,0,0,76,76,0,30-08-21,30-08-21,09:16:56,Thu Sep 30 2021 09:16:56 GMT+0200 (Θερινή ώρα Κεντρικής Ευρώπης),The main experiment item,yes,0,0,/Users/ethan/Documents/GitHub/OpenSesame/Sternberg/experiment_files,0,0,0,no,mono,no,18,no,white,no,no,768,99,3.6.1,legacy,legacy,7 8 4 6 9 5,osweb,1.4.0,1,4,y,37,,0,right,space,,h,right,right,right,897,31117,,44327,18899,33954,897,2,legacy,824,1536,24,864,24,-7,-7,1536,1632986216764,6,1024,2,48000,-16,experiment,1,odd,Win32,6,606169,441413,,602908,47,603939,563945,46,44411,140507,608186,604956,609099,47,608186,Sternberg_updated,72,74816,77,yes,1024
94,94,970,970,black,no,experiment,Mozilla,Netscape,5.0 (Windows),legacy,legacy,legacy,0,uniform,1,1,left,77,77,77,77,0,0,0,77,77,0,0,0,77,77,77,0,0,77,77,0,30-08-21,30-08-21,09:16:56,Thu Sep 30 2021 09:16:56 GMT+0200 (Θερινή ώρα Κεντρικής Ευρώπης),The main experiment item,yes,0,0,/Users/ethan/Documents/GitHub/OpenSesame/Sternberg/experiment_files,0,0,0,no,mono,no,18,no,white,no,no,768,99,3.6.1,legacy,legacy,6 2 9 3 8 4,osweb,1.4.0,1,0,n,37,,0,left,space,,h,right,right,left,863,31117,,44327,18899,33954,863,2,legacy,824,1536,24,864,24,-7,-7,1536,1632986216764,6,1024,2,48000,-16,experiment,1,odd,Win32,1,612363,441413,,609103,47,610133,563945,46,44411,140507,614380,611150,615260,47,614380,Sternberg_updated,73,75679,78,yes,1024
94,94,971,971,black,no,experiment,Mozilla,Netscape,5.0 (Windows),legacy,legacy,legacy,0,uniform,1,1,right,78,78,78,78,0,0,0,78,78,0,0,0,78,78,78,0,0,78,78,0,30-08-21,30-08-21,09:16:56,Thu Sep 30 2021 09:16:56 GMT+0200 (Θερινή ώρα Κεντρικής Ευρώπης),The main experiment item,yes,0,0,/Users/ethan/Documents/GitHub/OpenSesame/Sternberg/experiment_files,0,0,0,no,mono,no,18,no,white,no,no,768,99,3.6.1,legacy,legacy,7 1 8 5 6 2,osweb,1.4.0,1,2,y,37,,0,right,space,,h,right,right,right,1052,31117,,44327,18899,33954,1052,2,legacy,824,1536,24,864,24,-7,-7,1536,1632986216764,6,1024,2,48000,-16,experiment,1,odd,Win32,1,618524,441413,,615264,47,616294,563945,46,44411,140507,620541,617310,621605,47,620541,Sternberg_updated,74,76731,79,yes,1024
94,94,974,974,black,no,experiment,Mozilla,Netscape,5.0 (Windows),legacy,legacy,legacy,0,uniform,1,1,right,79,79,79,79,0,0,0,79,79,0,0,0,79,79,79,0,0,79,79,0,30-08-21,30-08-21,09:16:56,Thu Sep 30 2021 09:16:56 GMT+0200 (Θερινή ώρα Κεντρικής Ευρώπης),The main experiment item,yes,0,0,/Users/ethan/Documents/GitHub/OpenSesame/Sternberg/experiment_files,0,0,0,no,mono,no,18,no,white,no,no,768,99,3.6.1,legacy,legacy,5 2 9 6 1 7,osweb,1.4.0,1,3,y,37,,0,right,space,,h,right,right,right,1197,31117,,44327,18899,33954,1197,2,legacy,824,1536,24,864,24,-7,-7,1536,1632986216764,6,1024,2,48000,-16,experiment,1,odd,Win32,9,624868,441413,,621609,47,622638,563945,46,44411,140507,626886,623655,628098,47,626885,Sternberg_updated,75,77928,80,yes,1024
94,94,973,973,black,no,experiment,Mozilla,Netscape,5.0 (Windows),legacy,legacy,legacy,0,uniform,1,1,right,80,80,80,80,0,0,0,80,80,0,0,0,80,80,80,0,0,80,80,0,30-08-21,30-08-21,09:16:56,Thu Sep 30 2021 09:16:56 GMT+0200 (Θερινή ώρα Κεντρικής Ευρώπης),The main experiment item,yes,0,0,/Users/ethan/Documents/GitHub/OpenSesame/Sternberg/experiment_files,0,0,0,no,mono,no,18,no,white,no,no,768,99,3.6.1,legacy,legacy,3 4,osweb,1.4.0,1,1,y,37,,0,right,space,,h,right,right,right,854,31117,,44327,18899,33954,854,2,legacy,824,1536,24,864,24,-7,-7,1536,1632986216764,2,1024,2,48000,-16,experiment,1,odd,Win32,3,631362,441413,,628103,47,629132,563945,46,44411,140507,633380,630149,634243,47,633380,Sternberg_updated,76,78782,81,yes,1024
94,94,975,975,black,no,experiment,Mozilla,Netscape,5.0 (Windows),legacy,legacy,legacy,0,uniform,1,1,left,81,81,81,81,0,0,0,81,81,0,0,0,81,81,81,0,0,81,81,0,30-08-21,30-08-21,09:16:56,Thu Sep 30 2021 09:16:56 GMT+0200 (Θερινή ώρα Κεντρικής Ευρώπης),The main experiment item,yes,0,0,/Users/ethan/Documents/GitHub/OpenSesame/Sternberg/experiment_files,0,0,0,no,mono,no,18,no,white,no,no,768,99,3.6.1,legacy,legacy,5 7 3,osweb,1.4.0,1,0,n,37,,0,left,space,,h,right,right,left,1156,31117,,44327,18899,33954,1156,2,legacy,824,1536,24,864,24,-7,-7,1536,1632986216764,3,1024,2,48000,-16,experiment,1,odd,Win32,9,637489,441413,,634246,47,635269,563945,46,44411,140507,639507,636276,640670,47,639507,Sternberg_updated,77,79938,82,yes,1024
94,94,977,977,black,no,experiment,Mozilla,Netscape,5.0 (Windows),legacy,legacy,legacy,0,uniform,1,1,left,82,82,82,82,0,0,0,82,82,0,0,0,82,82,82,0,0,82,82,0,30-08-21,30-08-21,09:16:56,Thu Sep 30 2021 09:16:56 GMT+0200 (Θερινή ώρα Κεντρικής Ευρώπης),The main experiment item,yes,0,0,/Users/ethan/Documents/GitHub/OpenSesame/Sternberg/experiment_files,0,0,0,no,mono,no,18,no,white,no,no,768,99,3.6.1,legacy,legacy,6 9 4 5 3 2,osweb,1.4.0,1,0,n,37,,0,left,space,,h,right,right,left,1175,31117,,44327,18899,33954,1175,2,legacy,824,1536,24,864,24,-7,-7,1536,1632986216764,6,1024,2,48000,-16,experiment,1,odd,Win32,8,643933,441413,,640674,47,641704,563945,46,44411,140507,645953,642721,647131,47,645953,Sternberg_updated,78,81113,83,yes,1024
94,94,978,978,black,no,experiment,Mozilla,Netscape,5.0 (Windows),legacy,legacy,legacy,0,uniform,1,1,right,83,83,83,83,0,0,0,83,83,0,0,0,83,83,83,0,0,83,83,0,30-08-21,30-08-21,09:16:56,Thu Sep 30 2021 09:16:56 GMT+0200 (Θερινή ώρα Κεντρικής Ευρώπης),The main experiment item,yes,0,0,/Users/ethan/Documents/GitHub/OpenSesame/Sternberg/experiment_files,0,0,0,no,mono,no,18,no,white,no,no,768,99,3.6.1,legacy,legacy,9 3 1 2 5,osweb,1.4.0,1,4,y,37,,0,right,space,,h,right,right,right,1023,31117,,44327,18899,33954,1023,2,legacy,824,1536,24,864,24,-7,-7,1536,1632986216764,5,1024,2,48000,-16,experiment,1,odd,Win32,2,650378,441413,,647134,47,648161,563945,46,44411,140507,652395,649165,653425,47,652395,Sternberg_updated,79,82136,84,yes,1024
94,94,976,976,black,no,experiment,Mozilla,Netscape,5.0 (Windows),legacy,legacy,legacy,0,uniform,1,1,right,84,84,84,84,0,0,0,84,84,0,0,0,84,84,84,0,0,84,84,0,30-08-21,30-08-21,09:16:56,Thu Sep 30 2021 09:16:56 GMT+0200 (Θερινή ώρα Κεντρικής Ευρώπης),The main experiment item,yes,0,0,/Users/ethan/Documents/GitHub/OpenSesame/Sternberg/experiment_files,0,0,0,no,mono,no,18,no,white,no,no,768,99,3.6.1,legacy,legacy,5 7 3 6 2,osweb,1.4.0,1,5,y,37,,0,right,space,,h,right,right,right,853,31117,,44327,18899,33954,853,2,legacy,824,1536,24,864,24,-7,-7,1536,1632986216764,5,1024,2,48000,-16,experiment,1,odd,Win32,2,656689,441413,,653429,47,654460,563945,46,44411,140507,658706,655475,659569,47,658706,Sternberg_updated,80,82989,85,yes,1024
94,94,976,976,black,no,experiment,Mozilla,Netscape,5.0 (Windows),legacy,legacy,legacy,0,uniform,1,1,left,85,85,85,85,0,0,0,85,85,0,0,0,85,85,85,0,0,85,85,0,30-08-21,30-08-21,09:16:56,Thu Sep 30 2021 09:16:56 GMT+0200 (Θερινή ώρα Κεντρικής Ευρώπης),The main experiment item,yes,0,0,/Users/ethan/Documents/GitHub/OpenSesame/Sternberg/experiment_files,0,0,0,no,mono,no,18,no,white,no,no,768,99,3.6.1,legacy,legacy,5 9 2 3,osweb,1.4.0,1,0,n,37,,0,left,space,,h,right,right,left,929,31117,,44327,18899,33954,929,2,legacy,824,1536,24,864,24,-7,-7,1536,1632986216764,4,1024,2,48000,-16,experiment,1,odd,Win32,8,662816,441413,,659573,47,660596,563945,46,44411,140507,664833,661603,665763,47,664833,Sternberg_updated,81,83918,86,yes,1024
94,94,976,976,black,no,experiment,Mozilla,Netscape,5.0 (Windows),legacy,legacy,legacy,0,uniform,1,1,left,86,86,86,86,0,0,0,86,86,0,0,0,86,86,86,0,0,86,86,0,30-08-21,30-08-21,09:16:56,Thu Sep 30 2021 09:16:56 GMT+0200 (Θερινή ώρα Κεντρικής Ευρώπης),The main experiment item,yes,0,0,/Users/ethan/Documents/GitHub/OpenSesame/Sternberg/experiment_files,0,0,0,no,mono,no,18,no,white,no,no,768,99,3.6.1,legacy,legacy,2 8 9,osweb,1.4.0,1,0,n,37,,0,left,space,,h,right,right,left,984,31117,,44327,18899,33954,984,2,legacy,824,1536,24,864,24,-7,-7,1536,1632986216764,3,1024,2,48000,-16,experiment,1,odd,Win32,6,669027,441413,,665767,47,666800,563945,46,44411,140507,671045,667814,672041,47,671045,Sternberg_updated,82,84902,87,yes,1024
94,94,974,974,black,no,experiment,Mozilla,Netscape,5.0 (Windows),legacy,legacy,legacy,0,uniform,1,1,left,87,87,87,87,0,0,0,87,87,0,0,0,87,87,87,0,0,87,87,0,30-08-21,30-08-21,09:16:56,Thu Sep 30 2021 09:16:56 GMT+0200 (Θερινή ώρα Κεντρικής Ευρώπης),The main experiment item,yes,0,0,/Users/ethan/Documents/GitHub/OpenSesame/Sternberg/experiment_files,0,0,0,no,mono,no,18,no,white,no,no,768,99,3.6.1,legacy,legacy,2 6 4 3 9,osweb,1.4.0,1,0,n,37,,0,left,space,,h,right,right,left,844,31117,,44327,18899,33954,844,2,legacy,824,1536,24,864,24,-7,-7,1536,1632986216764,5,1024,2,48000,-16,experiment,1,odd,Win32,1,675305,441413,,672046,47,673076,563945,46,44411,140507,677323,674092,678168,47,677323,Sternberg_updated,83,85746,88,yes,1024
94,94,978,978,black,no,experiment,Mozilla,Netscape,5.0 (Windows),legacy,legacy,legacy,0,uniform,1,1,left,88,88,88,88,0,0,0,88,88,0,0,0,88,88,88,0,0,88,88,0,30-08-21,30-08-21,09:16:56,Thu Sep 30 2021 09:16:56 GMT+0200 (Θερινή ώρα Κεντρικής Ευρώπης),The main experiment item,yes,0,0,/Users/ethan/Documents/GitHub/OpenSesame/Sternberg/experiment_files,0,0,0,no,mono,no,18,no,white,no,no,768,99,3.6.1,legacy,legacy,8 6 3 4 7,osweb,1.4.0,1,0,n,37,,0,left,space,,h,right,right,left,1256,31117,,44327,18899,33954,1256,2,legacy,824,1536,24,864,24,-7,-7,1536,1632986216764,5,1024,2,48000,-16,experiment,1,odd,Win32,1,681416,441413,,678173,47,679197,563945,46,44411,140507,683432,680203,684695,47,683432,Sternberg_updated,84,87002,89,yes,1024
94,94,976,976,black,no,experiment,Mozilla,Netscape,5.0 (Windows),legacy,legacy,legacy,0,uniform,1,1,right,89,89,89,89,0,0,0,89,89,0,0,0,89,89,89,0,0,89,89,0,30-08-21,30-08-21,09:16:56,Thu Sep 30 2021 09:16:56 GMT+0200 (Θερινή ώρα Κεντρικής Ευρώπης),The main experiment item,yes,0,0,/Users/ethan/Documents/GitHub/OpenSesame/Sternberg/experiment_files,0,0,0,no,mono,no,18,no,white,no,no,768,99,3.6.1,legacy,legacy,4 1 5,osweb,1.4.0,1,2,y,37,,0,right,space,,h,right,right,right,849,31117,,44327,18899,33954,849,2,legacy,824,1536,24,864,24,-7,-7,1536,1632986216764,3,1024,2,48000,-16,experiment,1,odd,Win32,1,687960,441413,,684700,47,685730,563945,46,44411,140507,689977,686747,690840,47,689977,Sternberg_updated,85,87851,90,yes,1024
95,95,983,983,black,no,experiment,Mozilla,Netscape,5.0 (Windows),legacy,legacy,legacy,0,uniform,1,1,left,90,90,90,90,0,0,0,90,90,0,0,0,90,90,90,0,0,90,90,0,30-08-21,30-08-21,09:16:56,Thu Sep 30 2021 09:16:56 GMT+0200 (Θερινή ώρα Κεντρικής Ευρώπης),The main experiment item,yes,0,0,/Users/ethan/Documents/GitHub/OpenSesame/Sternberg/experiment_files,0,0,0,no,mono,no,18,no,white,no,no,768,99,3.6.1,legacy,legacy,6 9 4 5 2,osweb,1.4.0,1,0,n,37,,0,left,space,,h,right,right,left,1636,31117,,44327,18899,33954,1636,2,legacy,824,1536,24,864,24,-7,-7,1536,1632986216764,5,1024,2,48000,-16,experiment,1,odd,Win32,1,694104,441413,,690845,47,691875,563945,46,44411,140507,696122,692890,697767,47,696122,Sternberg_updated,86,89487,91,yes,1024
95,95,985,985,black,no,experiment,Mozilla,Netscape,5.0 (Windows),legacy,legacy,legacy,0,uniform,1,1,right,91,91,91,91,0,0,0,91,91,0,0,0,91,91,91,0,0,91,91,0,30-08-21,30-08-21,09:16:56,Thu Sep 30 2021 09:16:56 GMT+0200 (Θερινή ώρα Κεντρικής Ευρώπης),The main experiment item,yes,0,0,/Users/ethan/Documents/GitHub/OpenSesame/Sternberg/experiment_files,0,0,0,no,mono,no,18,no,white,no,no,768,99,3.6.1,legacy,legacy,7 4 2 6 3 5,osweb,1.4.0,1,6,y,37,,0,right,space,,h,right,right,right,1133,31117,,44327,18899,33954,1133,2,legacy,824,1536,24,864,24,-7,-7,1536,1632986216764,6,1024,2,48000,-16,experiment,1,odd,Win32,5,701031,441413,,697771,47,698803,563945,46,44411,140507,703049,699818,704195,47,703049,Sternberg_updated,87,90620,92,yes,1024
95,95,981,981,black,no,experiment,Mozilla,Netscape,5.0 (Windows),legacy,legacy,legacy,0,uniform,1,1,right,92,92,92,92,0,0,0,92,92,0,0,0,92,92,92,0,0,92,92,0,30-08-21,30-08-21,09:16:56,Thu Sep 30 2021 09:16:56 GMT+0200 (Θερινή ώρα Κεντρικής Ευρώπης),The main experiment item,yes,0,0,/Users/ethan/Documents/GitHub/OpenSesame/Sternberg/experiment_files,0,0,0,no,mono,no,18,no,white,no,no,768,99,3.6.1,legacy,legacy,8 5 3 7 4 6,osweb,1.4.0,1,6,y,37,,0,right,space,,h,right,right,right,621,31117,,44327,18899,33954,621,2,legacy,824,1536,24,864,24,-7,-7,1536,1632986216764,6,1024,2,48000,-16,experiment,1,odd,Win32,6,707459,441413,,704199,47,705230,563945,46,44411,140507,709476,706245,710106,47,709476,Sternberg_updated,88,91241,93,yes,1024
95,95,981,981,black,no,experiment,Mozilla,Netscape,5.0 (Windows),legacy,legacy,legacy,0,uniform,1,1,left,93,93,93,93,0,0,0,93,93,0,0,0,93,93,93,0,0,93,93,0,30-08-21,30-08-21,09:16:56,Thu Sep 30 2021 09:16:56 GMT+0200 (Θερινή ώρα Κεντρικής Ευρώπης),The main experiment item,yes,0,0,/Users/ethan/Documents/GitHub/OpenSesame/Sternberg/experiment_files,0,0,0,no,mono,no,18,no,white,no,no,768,99,3.6.1,legacy,legacy,2 8 6 3 1,osweb,1.4.0,1,0,n,37,,0,left,space,,h,right,right,left,968,31117,,44327,18899,33954,968,2,legacy,824,1536,24,864,24,-7,-7,1536,1632986216764,5,1024,2,48000,-16,experiment,1,odd,Win32,7,713369,441413,,710109,47,711140,563945,46,44411,140507,715387,712155,716367,47,715387,Sternberg_updated,89,92209,94,yes,1024
95,95,981,981,black,no,experiment,Mozilla,Netscape,5.0 (Windows),legacy,legacy,legacy,0,uniform,1,1,left,94,94,94,94,0,0,0,94,94,0,0,0,94,94,94,0,0,94,94,0,30-08-21,30-08-21,09:16:56,Thu Sep 30 2021 09:16:56 GMT+0200 (Θερινή ώρα Κεντρικής Ευρώπης),The main experiment item,yes,0,0,/Users/ethan/Documents/GitHub/OpenSesame/Sternberg/experiment_files,0,0,0,no,mono,no,18,no,white,no,no,768,99,3.6.1,legacy,legacy,6 9 5,osweb,1.4.0,1,0,n,37,,0,left,space,,h,right,right,left,1008,31117,,44327,18899,33954,1008,2,legacy,824,1536,24,864,24,-7,-7,1536,1632986216764,3,1024,2,48000,-16,experiment,1,odd,Win32,8,719613,441413,,716370,47,717393,563945,46,44411,140507,721633,718400,722644,47,721632,Sternberg_updated,90,93217,95,yes,1024
95,95,981,981,black,no,experiment,Mozilla,Netscape,5.0 (Windows),legacy,legacy,legacy,0,uniform,1,1,right,95,95,95,95,0,0,0,95,95,0,0,0,95,95,95,0,0,95,95,0,30-08-21,30-08-21,09:16:56,Thu Sep 30 2021 09:16:56 GMT+0200 (Θερινή ώρα Κεντρικής Ευρώπης),The main experiment item,yes,0,0,/Users/ethan/Documents/GitHub/OpenSesame/Sternberg/experiment_files,0,0,0,no,mono,no,18,no,white,no,no,768,99,3.6.1,legacy,legacy,9 5 3 8 4,osweb,1.4.0,1,1,y,37,,0,right,space,,h,right,right,right,940,31117,,44327,18899,33954,940,2,legacy,824,1536,24,864,24,-7,-7,1536,1632986216764,5,1024,2,48000,-16,experiment,1,odd,Win32,9,725892,441413,,722647,47,723668,563945,46,44411,140507,727909,724678,728855,47,727909,Sternberg_updated,91,94157,96,yes,1024
95,95,980,980,black,no,experiment,Mozilla,Netscape,5.0 (Windows),legacy,legacy,legacy,0,uniform,1,1,left,96,96,96,96,0,0,0,96,96,0,0,0,96,96,96,0,0,96,96,0,30-08-21,30-08-21,09:16:56,Thu Sep 30 2021 09:16:56 GMT+0200 (Θερινή ώρα Κεντρικής Ευρώπης),The main experiment item,yes,0,0,/Users/ethan/Documents/GitHub/OpenSesame/Sternberg/experiment_files,0,0,0,no,mono,no,18,no,white,no,no,768,99,3.6.1,legacy,legacy,5 3 2 6 9 8,osweb,1.4.0,1,0,n,37,,0,left,space,,h,right,right,left,891,31117,,44327,18899,33954,891,2,legacy,824,1536,24,864,24,-7,-7,1536,1632986216764,6,1024,2,48000,-16,experiment,1,odd,Win32,4,732119,441413,,728859,47,729889,563945,46,44411,140507,734136,730906,735033,47,734136,Sternberg_updated,92,95048,97,yes,1024
95,95,981,981,black,no,experiment,Mozilla,Netscape,5.0 (Windows),legacy,legacy,legacy,0,uniform,1,1,right,97,97,97,97,0,0,0,97,97,0,0,0,97,97,97,0,0,97,97,0,30-08-21,30-08-21,09:16:56,Thu Sep 30 2021 09:16:56 GMT+0200 (Θερινή ώρα Κεντρικής Ευρώπης),The main experiment item,yes,0,0,/Users/ethan/Documents/GitHub/OpenSesame/Sternberg/experiment_files,0,0,0,no,mono,no,18,no,white,no,no,768,99,3.6.1,legacy,legacy,2 6 1 7 4,osweb,1.4.0,1,2,y,37,,0,right,space,space,h,right,right,right,1053,31117,96214,44327,18899,33954,1053,2,legacy,824,1536,24,864,24,-7,-7,1536,1632986216764,5,1024,2,48000,-16,experiment,1,odd,Win32,6,834524,441413,736059,735036,47,832293,563945,46,44411,140507,836542,833310,837603,47,836542,Sternberg_updated,93,96101,98,yes,1024
95,95,984,984,black,no,experiment,Mozilla,Netscape,5.0 (Windows),legacy,legacy,legacy,0,uniform,1,1,right,98,98,98,98,0,0,0,98,98,0,0,0,98,98,98,0,0,98,98,0,30-08-21,30-08-21,09:16:56,Thu Sep 30 2021 09:16:56 GMT+0200 (Θερινή ώρα Κεντρικής Ευρώπης),The main experiment item,yes,0,0,/Users/ethan/Documents/GitHub/OpenSesame/Sternberg/experiment_files,0,0,0,no,mono,no,18,no,white,no,no,768,99,3.6.1,legacy,legacy,8 5 4 7 3 1,osweb,1.4.0,1,2,y,37,,0,right,space,space,h,right,right,right,1321,31117,96214,44327,18899,33954,1321,2,legacy,824,1536,24,864,24,-7,-7,1536,1632986216764,6,1024,2,48000,-16,experiment,1,odd,Win32,5,840868,441413,736059,837608,47,838637,563945,46,44411,140507,842887,839656,844214,47,842887,Sternberg_updated,94,97422,99,yes,1024
95,95,982,982,black,no,experiment,Mozilla,Netscape,5.0 (Windows),legacy,legacy,legacy,0,uniform,1,1,right,99,99,99,99,0,0,0,99,99,0,0,0,99,99,99,0,0,99,99,0,30-08-21,30-08-21,09:16:56,Thu Sep 30 2021 09:16:56 GMT+0200 (Θερινή ώρα Κεντρικής Ευρώπης),The main experiment item,yes,0,0,/Users/ethan/Documents/GitHub/OpenSesame/Sternberg/experiment_files,0,0,0,no,mono,no,18,no,white,no,no,768,99,3.6.1,legacy,legacy,2 5 4 8 7,osweb,1.4.0,1,3,y,37,,0,right,space,space,h,right,right,right,818,31117,96214,44327,18899,33954,818,2,legacy,824,1536,24,864,24,-7,-7,1536,1632986216764,5,1024,2,48000,-16,experiment,1,odd,Win32,4,847479,441413,736059,844218,47,845249,563945,46,44411,140507,849496,846265,850326,47,849496,Sternberg_updated,95,98240,100,yes,1024
95,95,981,981,black,no,experiment,Mozilla,Netscape,5.0 (Windows),legacy,legacy,legacy,0,uniform,1,1,left,100,100,100,100,0,0,0,100,100,0,0,0,100,100,100,0,0,100,100,0,30-08-21,30-08-21,09:16:56,Thu Sep 30 2021 09:16:56 GMT+0200 (Θερινή ώρα Κεντρικής Ευρώπης),The main experiment item,yes,0,0,/Users/ethan/Documents/GitHub/OpenSesame/Sternberg/experiment_files,0,0,0,no,mono,no,18,no,white,no,no,768,99,3.6.1,legacy,legacy,7 3 2 8,osweb,1.4.0,1,0,n,37,,0,left,space,space,h,right,right,left,853,31117,96214,44327,18899,33954,853,2,legacy,824,1536,24,864,24,-7,-7,1536,1632986216764,4,1024,2,48000,-16,experiment,1,odd,Win32,4,853589,441413,736059,850330,47,851360,563945,46,44411,140507,855607,852376,856470,47,855607,Sternberg_updated,96,99093,101,yes,1024
95,95,985,985,black,no,experiment,Mozilla,Netscape,5.0 (Windows),legacy,legacy,legacy,0,uniform,1,1,left,101,101,101,101,0,0,0,101,101,0,0,0,101,101,101,0,0,101,101,0,30-08-21,30-08-21,09:16:56,Thu Sep 30 2021 09:16:56 GMT+0200 (Θερινή ώρα Κεντρικής Ευρώπης),The main experiment item,yes,0,0,/Users/ethan/Documents/GitHub/OpenSesame/Sternberg/experiment_files,0,0,0,no,mono,no,18,no,white,no,no,768,99,3.6.1,legacy,legacy,4 2 7 6 1 3,osweb,1.4.0,1,0,n,37,,0,left,space,space,h,right,right,left,1364,31117,96214,44327,18899,33954,1364,2,legacy,824,1536,24,864,24,-7,-7,1536,1632986216764,6,1024,2,48000,-16,experiment,1,odd,Win32,8,859734,441413,736059,856474,47,857504,563945,46,44411,140507,861751,858521,863131,47,861751,Sternberg_updated,97,100457,102,yes,1024
95,95,985,985,black,no,experiment,Mozilla,Netscape,5.0 (Windows),legacy,legacy,legacy,0,uniform,1,1,right,102,102,102,102,0,0,0,102,102,0,0,0,102,102,102,0,0,102,102,0,30-08-21,30-08-21,09:16:56,Thu Sep 30 2021 09:16:56 GMT+0200 (Θερινή ώρα Κεντρικής Ευρώπης),The main experiment item,yes,0,0,/Users/ethan/Documents/GitHub/OpenSesame/Sternberg/experiment_files,0,0,0,no,mono,no,18,no,white,no,no,768,99,3.6.1,legacy,legacy,6 9 3 1,osweb,1.4.0,1,4,y,37,,0,right,space,space,h,right,right,right,988,31117,96214,44327,18899,33954,988,2,legacy,824,1536,24,864,24,-7,-7,1536,1632986216764,4,1024,2,48000,-16,experiment,1,odd,Win32,1,866394,441413,736059,863134,47,864165,563945,46,44411,140507,868412,865181,869408,47,868412,Sternberg_updated,98,101445,103,yes,1024
95,95,985,985,black,no,experiment,Mozilla,Netscape,5.0 (Windows),legacy,legacy,legacy,0,uniform,1,1,right,103,103,103,103,0,0,0,103,103,0,0,0,103,103,103,0,0,103,103,0,30-08-21,30-08-21,09:16:56,Thu Sep 30 2021 09:16:56 GMT+0200 (Θερινή ώρα Κεντρικής Ευρώπης),The main experiment item,yes,0,0,/Users/ethan/Documents/GitHub/OpenSesame/Sternberg/experiment_files,0,0,0,no,mono,no,18,no,white,no,no,768,99,3.6.1,legacy,legacy,4,osweb,1.4.0,1,1,y,37,,0,right,space,space,h,right,right,right,958,31117,96214,44327,18899,33954,958,2,legacy,824,1536,24,864,24,-7,-7,1536,1632986216764,1,1024,2,48000,-16,experiment,1,odd,Win32,4,872658,441413,736059,869416,47,870431,563945,46,44411,140507,874673,871442,875635,47,874673,Sternberg_updated,99,102403,104,yes,1024
95,95,982,982,black,no,experiment,Mozilla,Netscape,5.0 (Windows),legacy,legacy,legacy,0,uniform,1,1,left,104,104,104,104,0,0,0,104,104,0,0,0,104,104,104,0,0,104,104,0,30-08-21,30-08-21,09:16:56,Thu Sep 30 2021 09:16:56 GMT+0200 (Θερινή ώρα Κεντρικής Ευρώπης),The main experiment item,yes,0,0,/Users/ethan/Documents/GitHub/OpenSesame/Sternberg/experiment_files,0,0,0,no,mono,no,18,no,white,no,no,768,99,3.6.1,legacy,legacy,8 4 3 9,osweb,1.4.0,1,0,n,37,,0,left,space,space,h,right,right,left,701,31117,96214,44327,18899,33954,701,2,legacy,824,1536,24,864,24,-7,-7,1536,1632986216764,4,1024,2,48000,-16,experiment,1,odd,Win32,5,878899,441413,736059,875640,47,876670,563945,46,44411,140507,880917,877686,881630,47,880917,Sternberg_updated,100,103104,105,yes,1024
95,95,980,980,black,no,experiment,Mozilla,Netscape,5.0 (Windows),legacy,legacy,legacy,0,uniform,1,1,left,105,105,105,105,0,0,0,105,105,0,0,0,105,105,105,0,0,105,105,0,30-08-21,30-08-21,09:16:56,Thu Sep 30 2021 09:16:56 GMT+0200 (Θερινή ώρα Κεντρικής Ευρώπης),The main experiment item,yes,0,0,/Users/ethan/Documents/GitHub/OpenSesame/Sternberg/experiment_files,0,0,0,no,mono,no,18,no,white,no,no,768,99,3.6.1,legacy,legacy,8 4 3 5,osweb,1.4.0,1,0,n,37,,0,left,space,space,h,right,right,left,808,31117,96214,44327,18899,33954,808,2,legacy,824,1536,24,864,24,-7,-7,1536,1632986216764,4,1024,2,48000,-16,experiment,1,odd,Win32,6,884877,441413,736059,881635,47,882659,563945,46,44411,140507,886896,883664,887707,47,886895,Sternberg_updated,101,103912,106,yes,1024
95,95,978,978,black,no,experiment,Mozilla,Netscape,5.0 (Windows),legacy,legacy,legacy,0,uniform,1,1,left,106,106,106,106,0,0,0,106,106,0,0,0,106,106,106,0,0,106,106,0,30-08-21,30-08-21,09:16:56,Thu Sep 30 2021 09:16:56 GMT+0200 (Θερινή ώρα Κεντρικής Ευρώπης),The main experiment item,yes,0,0,/Users/ethan/Documents/GitHub/OpenSesame/Sternberg/experiment_files,0,0,0,no,mono,no,18,no,white,no,no,768,99,3.6.1,legacy,legacy,5,osweb,1.4.0,1,0,n,37,,0,left,space,space,h,right,right,left,709,31117,96214,44327,18899,33954,709,2,legacy,824,1536,24,864,24,-7,-7,1536,1632986216764,1,1024,2,48000,-16,experiment,1,odd,Win32,8,890955,441413,736059,887712,47,888735,563945,46,44411,140507,892973,889742,893686,47,892973,Sternberg_updated,102,104621,107,yes,1024
95,95,976,976,black,no,experiment,Mozilla,Netscape,5.0 (Windows),legacy,legacy,legacy,0,uniform,1,1,left,107,107,107,107,0,0,0,107,107,0,0,0,107,107,107,0,0,107,107,0,30-08-21,30-08-21,09:16:56,Thu Sep 30 2021 09:16:56 GMT+0200 (Θερινή ώρα Κεντρικής Ευρώπης),The main experiment item,yes,0,0,/Users/ethan/Documents/GitHub/OpenSesame/Sternberg/experiment_files,0,0,0,no,mono,no,18,no,white,no,no,768,99,3.6.1,legacy,legacy,4 8 1 2,osweb,1.4.0,1,0,n,37,,0,left,space,space,h,right,right,left,733,31117,96214,44327,18899,33954,733,2,legacy,824,1536,24,864,24,-7,-7,1536,1632986216764,4,1024,2,48000,-16,experiment,1,odd,Win32,7,896949,441413,736059,893689,47,894719,563945,46,44411,140507,898967,895736,899713,47,898967,Sternberg_updated,103,105354,108,yes,1024
95,95,980,980,black,no,experiment,Mozilla,Netscape,5.0 (Windows),legacy,legacy,legacy,0,uniform,1,1,right,108,108,108,108,0,0,0,108,108,0,0,0,108,108,108,0,0,108,108,0,30-08-21,30-08-21,09:16:56,Thu Sep 30 2021 09:16:56 GMT+0200 (Θερινή ώρα Κεντρικής Ευρώπης),The main experiment item,yes,0,0,/Users/ethan/Documents/GitHub/OpenSesame/Sternberg/experiment_files,0,0,0,no,mono,no,18,no,white,no,no,768,99,3.6.1,legacy,legacy,4 9 7 8 5 3,osweb,1.4.0,1,4,y,37,,0,right,space,space,h,right,right,right,1448,31117,96214,44327,18899,33954,1448,2,legacy,824,1536,24,864,24,-7,-7,1536,1632986216764,6,1024,2,48000,-16,experiment,1,odd,Win32,8,902977,441413,736059,899717,47,900748,563945,46,44411,140507,904995,901764,906457,47,904995,Sternberg_updated,104,106802,109,yes,1024
95,95,979,979,black,no,experiment,Mozilla,Netscape,5.0 (Windows),legacy,legacy,legacy,0,uniform,1,1,right,109,109,109,109,0,0,0,109,109,0,0,0,109,109,109,0,0,109,109,0,30-08-21,30-08-21,09:16:56,Thu Sep 30 2021 09:16:56 GMT+0200 (Θερινή ώρα Κεντρικής Ευρώπης),The main experiment item,yes,0,0,/Users/ethan/Documents/GitHub/OpenSesame/Sternberg/experiment_files,0,0,0,no,mono,no,18,no,white,no,no,768,99,3.6.1,legacy,legacy,6 2,osweb,1.4.0,1,1,y,37,,0,right,space,space,h,right,right,right,872,31117,96214,44327,18899,33954,872,2,legacy,824,1536,24,864,24,-7,-7,1536,1632986216764,2,1024,2,48000,-16,experiment,1,odd,Win32,6,909704,441413,736059,906461,47,907480,563945,46,44411,140507,911722,908491,912601,47,911722,Sternberg_updated,105,107674,110,yes,1024
95,95,977,977,black,no,experiment,Mozilla,Netscape,5.0 (Windows),legacy,legacy,legacy,0,uniform,1,1,right,110,110,110,110,0,0,0,110,110,0,0,0,110,110,110,0,0,110,110,0,30-08-21,30-08-21,09:16:56,Thu Sep 30 2021 09:16:56 GMT+0200 (Θερινή ώρα Κεντρικής Ευρώπης),The main experiment item,yes,0,0,/Users/ethan/Documents/GitHub/OpenSesame/Sternberg/experiment_files,0,0,0,no,mono,no,18,no,white,no,no,768,99,3.6.1,legacy,legacy,9 6 2 4 1,osweb,1.4.0,1,4,y,37,,0,right,space,space,h,right,right,right,733,31117,96214,44327,18899,33954,733,2,legacy,824,1536,24,864,24,-7,-7,1536,1632986216764,5,1024,2,48000,-16,experiment,1,odd,Win32,4,915865,441413,736059,912605,47,913635,563945,46,44411,140507,917883,914652,918629,47,917883,Sternberg_updated,106,108407,111,yes,1024
96,96,975,975,black,no,experiment,Mozilla,Netscape,5.0 (Windows),legacy,legacy,legacy,0,uniform,1,1,left,111,111,111,111,0,0,0,111,111,0,0,0,111,111,111,0,0,111,111,0,30-08-21,30-08-21,09:16:56,Thu Sep 30 2021 09:16:56 GMT+0200 (Θερινή ώρα Κεντρικής Ευρώπης),The main experiment item,yes,0,0,/Users/ethan/Documents/GitHub/OpenSesame/Sternberg/experiment_files,0,0,0,no,mono,no,18,no,white,no,no,768,99,3.6.1,legacy,legacy,7 4 2 8 1 9,osweb,1.4.0,1,0,n,37,,0,left,space,space,h,right,right,left,781,31117,96214,44327,18899,33954,781,2,legacy,824,1536,24,864,24,-7,-7,1536,1632986216764,6,1024,2,48000,-16,experiment,1,odd,Win32,5,921893,441413,736059,918636,47,919663,563945,46,44411,140507,923910,920680,924706,47,923910,Sternberg_updated,107,109188,112,yes,1024
96,96,976,976,black,no,experiment,Mozilla,Netscape,5.0 (Windows),legacy,legacy,legacy,0,uniform,1,1,left,112,112,112,112,0,0,0,112,112,0,0,0,112,112,112,0,0,112,112,0,30-08-21,30-08-21,09:16:56,Thu Sep 30 2021 09:16:56 GMT+0200 (Θερινή ώρα Κεντρικής Ευρώπης),The main experiment item,yes,0,0,/Users/ethan/Documents/GitHub/OpenSesame/Sternberg/experiment_files,0,0,0,no,mono,no,18,no,white,no,no,768,99,3.6.1,legacy,legacy,1 5 3 2 8,osweb,1.4.0,1,0,n,37,,0,left,space,space,h,right,right,left,1147,31117,96214,44327,18899,33954,1147,2,legacy,824,1536,24,864,24,-7,-7,1536,1632986216764,5,1024,2,48000,-16,experiment,1,odd,Win32,4,927970,441413,736059,924709,47,925741,563945,46,44411,140507,929988,926757,931151,47,929988,Sternberg_updated,108,110335,113,yes,1024
96,96,977,977,black,no,experiment,Mozilla,Netscape,5.0 (Windows),legacy,legacy,legacy,0,uniform,1,1,left,113,113,113,113,0,0,0,113,113,0,0,0,113,113,113,0,0,113,113,0,30-08-21,30-08-21,09:16:56,Thu Sep 30 2021 09:16:56 GMT+0200 (Θερινή ώρα Κεντρικής Ευρώπης),The main experiment item,yes,0,0,/Users/ethan/Documents/GitHub/OpenSesame/Sternberg/experiment_files,0,0,0,no,mono,no,18,no,white,no,no,768,99,3.6.1,legacy,legacy,7 8 6 1,osweb,1.4.0,1,0,n,37,,0,left,space,space,h,right,right,left,1011,31117,96214,44327,18899,33954,1011,2,legacy,824,1536,24,864,24,-7,-7,1536,1632986216764,4,1024,2,48000,-16,experiment,1,odd,Win32,3,934415,441413,736059,931155,47,932185,563945,46,44411,140507,936432,933202,937445,47,936432,Sternberg_updated,109,111346,114,yes,1024
96,96,975,975,black,no,experiment,Mozilla,Netscape,5.0 (Windows),legacy,legacy,legacy,0,uniform,1,1,left,114,114,114,114,0,0,0,114,114,0,0,0,114,114,114,0,0,114,114,0,30-08-21,30-08-21,09:16:56,Thu Sep 30 2021 09:16:56 GMT+0200 (Θερινή ώρα Κεντρικής Ευρώπης),The main experiment item,yes,0,0,/Users/ethan/Documents/GitHub/OpenSesame/Sternberg/experiment_files,0,0,0,no,mono,no,18,no,white,no,no,768,99,3.6.1,legacy,legacy,2 7 5,osweb,1.4.0,1,0,n,37,,0,left,space,space,h,right,right,left,751,31117,96214,44327,18899,33954,751,2,legacy,824,1536,24,864,24,-7,-7,1536,1632986216764,3,1024,2,48000,-16,experiment,1,odd,Win32,8,940709,441413,736059,937448,47,938480,563945,46,44411,140507,942726,939496,943489,47,942725,Sternberg_updated,110,112097,115,yes,1024
95,95,980,980,black,no,experiment,Mozilla,Netscape,5.0 (Windows),legacy,legacy,legacy,0,uniform,0,0,left,115,115,115,115,0,0,0,115,115,0,0,0,115,115,115,0,0,115,115,0,30-08-21,30-08-21,09:16:56,Thu Sep 30 2021 09:16:56 GMT+0200 (Θερινή ώρα Κεντρικής Ευρώπης),The main experiment item,yes,0,0,/Users/ethan/Documents/GitHub/OpenSesame/Sternberg/experiment_files,0,0,0,no,mono,no,18,no,white,no,no,768,99,3.6.1,legacy,legacy,6 7 5 9,osweb,1.4.0,1,0,n,37,,0,right,space,space,h,right,right,right,1528,31117,96214,44327,18899,33954,1528,2,legacy,824,1536,24,864,24,-7,-7,1536,1632986216764,4,1024,2,48000,-16,experiment,1,odd,Win32,2,946753,441413,736059,943493,47,944524,563945,46,44411,140507,948771,945539,950299,47,948771,Sternberg_updated,110,113625,116,yes,1024
95,95,980,980,black,no,experiment,Mozilla,Netscape,5.0 (Windows),legacy,legacy,legacy,0,uniform,1,1,left,116,116,116,116,0,0,0,116,116,0,0,0,116,116,116,0,0,116,116,0,30-08-21,30-08-21,09:16:56,Thu Sep 30 2021 09:16:56 GMT+0200 (Θερινή ώρα Κεντρικής Ευρώπης),The main experiment item,yes,0,0,/Users/ethan/Documents/GitHub/OpenSesame/Sternberg/experiment_files,0,0,0,no,mono,no,18,no,white,no,no,768,99,3.6.1,legacy,legacy,1 3 2 6 9,osweb,1.4.0,1,0,n,37,,0,left,space,space,h,right,right,left,982,31117,96214,44327,18899,33954,982,2,legacy,824,1536,24,864,24,-7,-7,1536,1632986216764,5,1024,2,48000,-16,experiment,1,odd,Win32,5,953549,441413,736059,943493,47,951328,950302,46,44411,140507,955565,952332,956560,47,955564,Sternberg_updated,111,114607,117,yes,1024
95,95,980,980,black,no,experiment,Mozilla,Netscape,5.0 (Windows),legacy,legacy,legacy,0,uniform,1,1,right,117,117,117,117,0,0,0,117,117,0,0,0,117,117,117,0,0,117,117,0,30-08-21,30-08-21,09:16:56,Thu Sep 30 2021 09:16:56 GMT+0200 (Θερινή ώρα Κεντρικής Ευρώπης),The main experiment item,yes,0,0,/Users/ethan/Documents/GitHub/OpenSesame/Sternberg/experiment_files,0,0,0,no,mono,no,18,no,white,no,no,768,99,3.6.1,legacy,legacy,3 4 9 6 2 9,osweb,1.4.0,1,5,y,37,,0,right,space,space,h,right,right,right,996,31117,96214,44327,18899,33954,996,2,legacy,824,1536,24,864,24,-7,-7,1536,1632986216764,6,1024,2,48000,-16,experiment,1,odd,Win32,2,959824,441413,736059,956562,47,957595,950302,46,44411,140507,961842,958611,962855,47,961842,Sternberg_updated,112,115603,118,yes,1024
95,95,979,979,black,no,experiment,Mozilla,Netscape,5.0 (Windows),legacy,legacy,legacy,0,uniform,1,1,left,118,118,118,118,0,0,0,118,118,0,0,0,118,118,118,0,0,118,118,0,30-08-21,30-08-21,09:16:56,Thu Sep 30 2021 09:16:56 GMT+0200 (Θερινή ώρα Κεντρικής Ευρώπης),The main experiment item,yes,0,0,/Users/ethan/Documents/GitHub/OpenSesame/Sternberg/experiment_files,0,0,0,no,mono,no,18,no,white,no,no,768,99,3.6.1,legacy,legacy,8 2 1 4 5 9,osweb,1.4.0,1,0,n,37,,0,left,space,space,h,right,right,left,875,31117,96214,44327,18899,33954,875,2,legacy,824,1536,24,864,24,-7,-7,1536,1632986216764,6,1024,2,48000,-16,experiment,1,odd,Win32,7,966118,441413,736059,962858,47,963889,950302,46,44411,140507,968136,964906,969015,47,968136,Sternberg_updated,113,116478,119,yes,1024
95,95,976,976,black,no,experiment,Mozilla,Netscape,5.0 (Windows),legacy,legacy,legacy,0,uniform,1,1,right,119,119,119,119,0,0,0,119,119,0,0,0,119,119,119,0,0,119,119,0,30-08-21,30-08-21,09:16:56,Thu Sep 30 2021 09:16:56 GMT+0200 (Θερινή ώρα Κεντρικής Ευρώπης),The main experiment item,yes,0,0,/Users/ethan/Documents/GitHub/OpenSesame/Sternberg/experiment_files,0,0,0,no,mono,no,18,no,white,no,no,768,99,3.6.1,legacy,legacy,6 7 8 5,osweb,1.4.0,1,3,y,37,,0,right,space,space,h,right,right,right,636,31117,96214,44327,18899,33954,636,2,legacy,824,1536,24,864,24,-7,-7,1536,1632986216764,4,1024,2,48000,-16,experiment,1,odd,Win32,8,972280,441413,736059,969019,47,970052,950302,46,44411,140507,974298,971067,974944,47,974298,Sternberg_updated,114,117114,120,yes,1024
95,95,974,974,black,no,experiment,Mozilla,Netscape,5.0 (Windows),legacy,legacy,legacy,0,uniform,1,1,right,120,120,120,120,0,0,0,120,120,0,0,0,120,120,120,0,0,120,120,0,30-08-21,30-08-21,09:16:56,Thu Sep 30 2021 09:16:56 GMT+0200 (Θερινή ώρα Κεντρικής Ευρώπης),The main experiment item,yes,0,0,/Users/ethan/Documents/GitHub/OpenSesame/Sternberg/experiment_files,0,0,0,no,mono,no,18,no,white,no,no,768,99,3.6.1,legacy,legacy,2 3 7 4,osweb,1.4.0,1,1,y,37,,0,right,space,space,h,right,right,right,710,31117,96214,44327,18899,33954,710,2,legacy,824,1536,24,864,24,-7,-7,1536,1632986216764,4,1024,2,48000,-16,experiment,1,odd,Win32,2,978208,441413,736059,974947,47,975978,950302,46,44411,140507,980225,976994,980937,47,980225,Sternberg_updated,115,117824,121,yes,1024
95,95,973,973,black,no,experiment,Mozilla,Netscape,5.0 (Windows),legacy,legacy,legacy,0,uniform,1,1,left,121,121,121,121,0,0,0,121,121,0,0,0,121,121,121,0,0,121,121,0,30-08-21,30-08-21,09:16:56,Thu Sep 30 2021 09:16:56 GMT+0200 (Θερινή ώρα Κεντρικής Ευρώπης),The main experiment item,yes,0,0,/Users/ethan/Documents/GitHub/OpenSesame/Sternberg/experiment_files,0,0,0,no,mono,no,18,no,white,no,no,768,99,3.6.1,legacy,legacy,9 5 3 2 8 6,osweb,1.4.0,1,0,n,37,,0,left,space,space,h,right,right,left,853,31117,96214,44327,18899,33954,853,2,legacy,824,1536,24,864,24,-7,-7,1536,1632986216764,6,1024,2,48000,-16,experiment,1,odd,Win32,7,984202,441413,736059,980942,47,981973,950302,46,44411,140507,986219,982988,987082,47,986219,Sternberg_updated,116,118677,122,yes,1024
95,95,971,971,black,no,experiment,Mozilla,Netscape,5.0 (Windows),legacy,legacy,legacy,0,uniform,1,1,right,122,122,122,122,0,0,0,122,122,0,0,0,122,122,122,0,0,122,122,0,30-08-21,30-08-21,09:16:56,Thu Sep 30 2021 09:16:56 GMT+0200 (Θερινή ώρα Κεντρικής Ευρώπης),The main experiment item,yes,0,0,/Users/ethan/Documents/GitHub/OpenSesame/Sternberg/experiment_files,0,0,0,no,mono,no,18,no,white,no,no,768,99,3.6.1,legacy,legacy,2 4 8 5 1 3,osweb,1.4.0,1,1,y,37,,0,right,space,space,h,right,right,right,776,31117,96214,44327,18899,33954,776,2,legacy,824,1536,24,864,24,-7,-7,1536,1632986216764,6,1024,2,48000,-16,experiment,1,odd,Win32,2,990346,441413,736059,987086,47,988117,950302,46,44411,140507,992364,989133,993143,47,992364,Sternberg_updated,117,119453,123,yes,1024
94,94,973,973,black,no,experiment,Mozilla,Netscape,5.0 (Windows),legacy,legacy,legacy,0,uniform,0,0,right,123,123,123,123,0,0,0,123,123,0,0,0,123,123,123,0,0,123,123,0,30-08-21,30-08-21,09:16:56,Thu Sep 30 2021 09:16:56 GMT+0200 (Θερινή ώρα Κεντρικής Ευρώπης),The main experiment item,yes,0,0,/Users/ethan/Documents/GitHub/OpenSesame/Sternberg/experiment_files,0,0,0,no,mono,no,18,no,white,no,no,768,99,3.6.1,legacy,legacy,9 1 7 2,osweb,1.4.0,1,2,y,37,,0,left,space,space,h,right,right,left,1202,31117,96214,44327,18899,33954,1202,2,legacy,824,1536,24,864,24,-7,-7,1536,1632986216764,4,1024,2,48000,-16,experiment,1,odd,Win32,1,996408,441413,736059,993147,47,994187,950302,46,44411,140507,998425,995195,999637,47,998425,Sternberg_updated,117,120655,124,yes,1024
94,94,972,972,black,no,experiment,Mozilla,Netscape,5.0 (Windows),legacy,legacy,legacy,0,uniform,1,1,left,124,124,124,124,0,0,0,124,124,0,0,0,124,124,124,0,0,124,124,0,30-08-21,30-08-21,09:16:56,Thu Sep 30 2021 09:16:56 GMT+0200 (Θερινή ώρα Κεντρικής Ευρώπης),The main experiment item,yes,0,0,/Users/ethan/Documents/GitHub/OpenSesame/Sternberg/experiment_files,0,0,0,no,mono,no,18,no,white,no,no,768,99,3.6.1,legacy,legacy,7 6 4 8 1 2,osweb,1.4.0,1,0,n,37,,0,left,space,space,h,right,right,left,895,31117,96214,44327,18899,33954,895,2,legacy,824,1536,24,864,24,-7,-7,1536,1632986216764,6,1024,2,48000,-16,experiment,1,odd,Win32,9,1002901,441413,736059,993147,47,1000673,999641,46,44411,140507,1004919,1001689,1005815,47,1004919,Sternberg_updated,118,121550,125,yes,1024
94,94,970,970,black,no,experiment,Mozilla,Netscape,5.0 (Windows),legacy,legacy,legacy,0,uniform,0,0,left,125,125,125,125,0,0,0,125,125,0,0,0,125,125,125,0,0,125,125,0,30-08-21,30-08-21,09:16:56,Thu Sep 30 2021 09:16:56 GMT+0200 (Θερινή ώρα Κεντρικής Ευρώπης),The main experiment item,yes,0,0,/Users/ethan/Documents/GitHub/OpenSesame/Sternberg/experiment_files,0,0,0,no,mono,no,18,no,white,no,no,768,99,3.6.1,legacy,legacy,5 3 8 7 2 4,osweb,1.4.0,1,0,n,37,,0,right,space,space,h,right,right,right,638,31117,96214,44327,18899,33954,638,2,legacy,824,1536,24,864,24,-7,-7,1536,1632986216764,6,1024,2,48000,-16,experiment,1,odd,Win32,9,1009079,441413,736059,1005818,47,1006852,999641,46,44411,140507,1011097,1007866,1011742,47,1011097,Sternberg_updated,118,122188,126,yes,1024
94,94,968,968,black,no,experiment,Mozilla,Netscape,5.0 (Windows),legacy,legacy,legacy,0,uniform,1,1,right,126,126,126,126,0,0,0,126,126,0,0,0,126,126,126,0,0,126,126,0,30-08-21,30-08-21,09:16:56,Thu Sep 30 2021 09:16:56 GMT+0200 (Θερινή ώρα Κεντρικής Ευρώπης),The main experiment item,yes,0,0,/Users/ethan/Documents/GitHub/OpenSesame/Sternberg/experiment_files,0,0,0,no,mono,no,18,no,white,no,no,768,99,3.6.1,legacy,legacy,4 7 6 8 2 3,osweb,1.4.0,1,6,y,37,,0,right,space,space,h,right,right,right,776,31117,96214,44327,18899,33954,776,2,legacy,824,1536,24,864,24,-7,-7,1536,1632986216764,6,1024,2,48000,-16,experiment,1,odd,Win32,3,1015006,441413,736059,1005818,47,1012778,1011746,46,44411,140507,1017025,1013794,1017803,47,1017025,Sternberg_updated,119,122964,127,yes,1024
94,94,970,970,black,no,experiment,Mozilla,Netscape,5.0 (Windows),legacy,legacy,legacy,0,uniform,1,1,left,127,127,127,127,0,0,0,127,127,0,0,0,127,127,127,0,0,127,127,0,30-08-21,30-08-21,09:16:56,Thu Sep 30 2021 09:16:56 GMT+0200 (Θερινή ώρα Κεντρικής Ευρώπης),The main experiment item,yes,0,0,/Users/ethan/Documents/GitHub/OpenSesame/Sternberg/experiment_files,0,0,0,no,mono,no,18,no,white,no,no,768,99,3.6.1,legacy,legacy,9 7 4 5 8,osweb,1.4.0,1,0,n,37,,0,left,space,space,h,right,right,left,1180,31117,96214,44327,18899,33954,1180,2,legacy,824,1536,24,864,24,-7,-7,1536,1632986216764,5,1024,2,48000,-16,experiment,1,odd,Win32,6,1021067,441413,736059,1017807,47,1018839,1011746,46,44411,140507,1023086,1019855,1024281,47,1023086,Sternberg_updated,120,124144,128,yes,1024
94,94,969,969,black,no,experiment,Mozilla,Netscape,5.0 (Windows),legacy,legacy,legacy,0,uniform,1,1,right,128,128,128,128,0,0,0,128,128,0,0,0,128,128,128,0,0,128,128,0,30-08-21,30-08-21,09:16:56,Thu Sep 30 2021 09:16:56 GMT+0200 (Θερινή ώρα Κεντρικής Ευρώπης),The main experiment item,yes,0,0,/Users/ethan/Documents/GitHub/OpenSesame/Sternberg/experiment_files,0,0,0,no,mono,no,18,no,white,no,no,768,99,3.6.1,legacy,legacy,2 8 5 1,osweb,1.4.0,1,4,y,37,,0,right,space,space,h,right,right,right,882,31117,96214,44327,18899,33954,882,2,legacy,824,1536,24,864,24,-7,-7,1536,1632986216764,4,1024,2,48000,-16,experiment,1,odd,Win32,1,1027545,441413,736059,1024286,47,1025315,1011746,46,44411,140507,1029563,1026332,1030458,47,1029563,Sternberg_updated,121,125026,129,yes,1024
94,94,969,969,black,no,experiment,Mozilla,Netscape,5.0 (Windows),legacy,legacy,legacy,0,uniform,1,1,right,129,129,129,129,0,0,0,129,129,0,0,0,129,129,129,0,0,129,129,0,30-08-21,30-08-21,09:16:56,Thu Sep 30 2021 09:16:56 GMT+0200 (Θερινή ώρα Κεντρικής Ευρώπης),The main experiment item,yes,0,0,/Users/ethan/Documents/GitHub/OpenSesame/Sternberg/experiment_files,0,0,0,no,mono,no,18,no,white,no,no,768,99,3.6.1,legacy,legacy,8 9 5 7 1 6,osweb,1.4.0,1,4,y,37,,0,right,space,space,h,right,right,right,963,31117,96214,44327,18899,33954,963,2,legacy,824,1536,24,864,24,-7,-7,1536,1632986216764,6,1024,2,48000,-16,experiment,1,odd,Win32,7,1033722,441413,736059,1030463,47,1031493,1011746,46,44411,140507,1035740,1032509,1036720,47,1035739,Sternberg_updated,122,125989,130,yes,1024
94,94,967,967,black,no,experiment,Mozilla,Netscape,5.0 (Windows),legacy,legacy,legacy,0,uniform,1,1,right,130,130,130,130,0,0,0,130,130,0,0,0,130,130,130,0,0,130,130,0,30-08-21,30-08-21,09:16:56,Thu Sep 30 2021 09:16:56 GMT+0200 (Θερινή ώρα Κεντρικής Ευρώπης),The main experiment item,yes,0,0,/Users/ethan/Documents/GitHub/OpenSesame/Sternberg/experiment_files,0,0,0,no,mono,no,18,no,white,no,no,768,99,3.6.1,legacy,legacy,3 9 6 2,osweb,1.4.0,1,4,y,37,,0,right,space,space,h,right,right,right,659,31117,96214,44327,18899,33954,659,2,legacy,824,1536,24,864,24,-7,-7,1536,1632986216764,4,1024,2,48000,-16,experiment,1,odd,Win32,2,1039966,441413,736059,1036724,47,1037746,1011746,46,44411,140507,1041984,1038753,1042647,47,1041984,Sternberg_updated,123,126648,131,yes,1024
94,94,965,965,black,no,experiment,Mozilla,Netscape,5.0 (Windows),legacy,legacy,legacy,0,uniform,1,1,left,131,131,131,131,0,0,0,131,131,0,0,0,131,131,131,0,0,131,131,0,30-08-21,30-08-21,09:16:56,Thu Sep 30 2021 09:16:56 GMT+0200 (Θερινή ώρα Κεντρικής Ευρώπης),The main experiment item,yes,0,0,/Users/ethan/Documents/GitHub/OpenSesame/Sternberg/experiment_files,0,0,0,no,mono,no,18,no,white,no,no,768,99,3.6.1,legacy,legacy,7 9,osweb,1.4.0,1,0,n,37,,0,left,space,space,h,right,right,left,789,31117,96214,44327,18899,33954,789,2,legacy,824,1536,24,864,24,-7,-7,1536,1632986216764,2,1024,2,48000,-16,experiment,1,odd,Win32,1,1045911,441413,736059,1042652,47,1043681,1011746,46,44411,140507,1047928,1044698,1048725,47,1047928,Sternberg_updated,124,127437,132,yes,1024
94,94,963,963,black,no,experiment,Mozilla,Netscape,5.0 (Windows),legacy,legacy,legacy,0,uniform,1,1,right,132,132,132,132,0,0,0,132,132,0,0,0,132,132,132,0,0,132,132,0,30-08-21,30-08-21,09:16:56,Thu Sep 30 2021 09:16:56 GMT+0200 (Θερινή ώρα Κεντρικής Ευρώπης),The main experiment item,yes,0,0,/Users/ethan/Documents/GitHub/OpenSesame/Sternberg/experiment_files,0,0,0,no,mono,no,18,no,white,no,no,768,99,3.6.1,legacy,legacy,3 9 7 6 4,osweb,1.4.0,1,3,y,37,,0,right,space,space,h,right,right,right,672,31117,96214,44327,18899,33954,672,2,legacy,824,1536,24,864,24,-7,-7,1536,1632986216764,5,1024,2,48000,-16,experiment,1,odd,Win32,7,1051989,441413,736059,1048729,47,1049760,1011746,46,44411,140507,1054008,1050776,1054685,47,1054008,Sternberg_updated,125,128109,133,yes,1024
94,94,963,963,black,no,experiment,Mozilla,Netscape,5.0 (Windows),legacy,legacy,legacy,0,uniform,1,1,right,133,133,133,133,0,0,0,133,133,0,0,0,133,133,133,0,0,133,133,0,30-08-21,30-08-21,09:16:56,Thu Sep 30 2021 09:16:56 GMT+0200 (Θερινή ώρα Κεντρικής Ευρώπης),The main experiment item,yes,0,0,/Users/ethan/Documents/GitHub/OpenSesame/Sternberg/experiment_files,0,0,0,no,mono,no,18,no,white,no,no,768,99,3.6.1,legacy,legacy,4 6 5 8,osweb,1.4.0,1,1,y,37,,0,right,space,space,h,right,right,right,931,31117,96214,44327,18899,33954,931,2,legacy,824,1536,24,864,24,-7,-7,1536,1632986216764,4,1024,2,48000,-16,experiment,1,odd,Win32,4,1057949,441413,736059,1054689,47,1055731,1011746,46,44411,140507,1059968,1056737,1060914,47,1059968,Sternberg_updated,126,129040,134,yes,1024
