ID,sender,sender_type,sender_id,timestamp,meta,color,correct,correctResponse,duration,ended_on,phase,response,response_action,time_commit,time_end,time_render,time_run,time_show,time_switch,url,word
1,Instruction,html.Screen,0,2024-09-26T07:12:24.606Z,"{""labjs_version"":""20.2.4"",""labjs_build"":{""flavor"":""development"",""commit"":""f5b4a49f956347addd546a832a3327688c2c0fef""},""location"":""https://labjs.felixhenninger.com/api/labjs_preview/index.html"",""userAgent"":""Mozilla/5.0 (Macintosh; Intel Mac OS X 10_15_7) AppleWebKit/605.1.15 (KHTML, like Gecko) Version/17.6 Safari/605.1.15"",""platform"":""MacIntel"",""language"":""en-GB"",""locale"":""en-GB"",""timeZone"":""Europe/Copenhagen"",""timezoneOffset"":-120,""screen_width"":1728,""screen_height"":1117,""scroll_width"":1389,""scroll_height"":155,""window_innerWidth"":1405,""window_innerHeight"":930,""devicePixelRatio"":2}",,,,5604,response,,continue,keypress(Space),5806,5763,159,136,176,5868,{},
1,Fixation cross,canvas.Screen,1_0_0_0,2024-09-26T07:12:25.155Z,,orange,,,501,timeout,practice,,,6355,6353,5842,5810,5868,6369,,orange
1,Stroop screen,canvas.Screen,1_0_0_1,2024-09-26T07:12:26.097Z,,orange,TRUE,orange,910,response,practice,orange,keydown(o),7297,7263,6353,6356,6369,7322,,orange
1,Inter-trial interval,canvas.Screen,1_0_0_2,2024-09-26T07:12:26.604Z,,orange,,,498,timeout,practice,,,7804,7803,7298,7297,7322,7820,,orange
1,Trial,flow.Sequence,1_0_0,2024-09-26T07:12:26.605Z,,orange,,,1935,completion,practice,,,7805,7803,5842,5810,5868,7820,,orange
1,Fixation cross,canvas.Screen,1_0_1_0,2024-09-26T07:12:27.104Z,,blue,,,500,timeout,practice,,,8304,8303,7803,7805,7820,8320,,blue
1,Stroop screen,canvas.Screen,1_0_1_1,2024-09-26T07:12:27.900Z,,blue,TRUE,blue,761,response,practice,blue,keydown(b),9100,9064,8303,8304,8320,9121,,blue
1,Inter-trial interval,canvas.Screen,1_0_1_2,2024-09-26T07:12:28.406Z,,blue,,,500,timeout,practice,,,9606,9605,9100,9100,9121,9621,,blue
1,Trial,flow.Sequence,1_0_1,2024-09-26T07:12:28.406Z,,blue,,,1785,completion,practice,,,9606,9605,7803,7805,7820,9621,,blue
1,Fixation cross,canvas.Screen,1_0_2_0,2024-09-26T07:12:28.907Z,,green,,,501,timeout,practice,,,10107,10106,9605,9607,9621,10122,,green
1,Stroop screen,canvas.Screen,1_0_2_1,2024-09-26T07:12:29.942Z,,green,TRUE,green,997,response,practice,green,keydown(g),11142,11103,10106,10107,10122,11156,,green
1,Inter-trial interval,canvas.Screen,1_0_2_2,2024-09-26T07:12:30.440Z,,green,,,500,timeout,practice,,,11640,11640,11143,11142,11156,11656,,green
1,Trial,flow.Sequence,1_0_2,2024-09-26T07:12:30.440Z,,green,,,2019,completion,practice,,,11640,11640,9605,9607,9621,11656,,green
1,Fixation cross,canvas.Screen,1_0_3_0,2024-09-26T07:12:30.940Z,,red,,,501,timeout,practice,,,12140,12140,11640,11640,11656,12157,,red
1,Stroop screen,canvas.Screen,1_0_3_1,2024-09-26T07:12:31.829Z,,red,TRUE,red,853,response,practice,red,keydown(r),13029,12993,12140,12141,12157,13041,,red
1,Inter-trial interval,canvas.Screen,1_0_3_2,2024-09-26T07:12:32.326Z,,red,,,500,timeout,practice,,,13526,13525,13030,13029,13041,13541,,red
1,Trial,flow.Sequence,1_0_3,2024-09-26T07:12:32.327Z,,red,,,1869,completion,practice,,,13527,13525,11640,11640,11656,13541,,red
1,Practice task,flow.Loop,1_0,2024-09-26T07:12:32.327Z,,,,,7657,completion,,,,13527,13525,5842,5810,5868,13541,,
1,Practice frame,canvas.Frame,1,2024-09-26T07:12:32.328Z,,,,,7659,,,,,13528,13527,5842,5807,5868,13558,,
1,Fixation cross,canvas.Screen,2_0_0_0,2024-09-26T07:12:32.843Z,,blue,,,501,timeout,task,,,14043,14042,13541,13530,13558,14059,,red
1,Stroop screen,canvas.Screen,2_0_0_1,2024-09-26T07:12:34.171Z,,blue,TRUE,blue,1291,response,task,blue,keydown(b),15371,15333,14042,14043,14059,15393,,red
1,Inter-trial interval,canvas.Screen,2_0_0_2,2024-09-26T07:12:34.678Z,,blue,,,501,timeout,task,,,15878,15877,15372,15371,15393,15894,,red
1,Trial,flow.Sequence,2_0_0,2024-09-26T07:12:34.679Z,,blue,,,2319,completion,task,,,15879,15877,13541,13530,13558,15894,,red
1,Fixation cross,canvas.Screen,2_0_1_0,2024-09-26T07:12:35.178Z,,orange,,,501,timeout,task,,,16378,16377,15877,15879,15894,16395,,orange
1,Stroop screen,canvas.Screen,2_0_1_1,2024-09-26T07:12:36.086Z,,orange,TRUE,orange,875,response,task,orange,keydown(o),17286,17252,16377,16379,16395,17294,,orange
1,Inter-trial interval,canvas.Screen,2_0_1_2,2024-09-26T07:12:36.578Z,,orange,,,501,timeout,task,,,17778,17777,17287,17286,17294,17795,,orange
1,Trial,flow.Sequence,2_0_1,2024-09-26T07:12:36.579Z,,orange,,,1883,completion,task,,,17779,17777,15877,15879,15894,17795,,orange
1,Fixation cross,canvas.Screen,2_0_2_0,2024-09-26T07:12:37.081Z,,green,,,500,timeout,task,,,18281,18280,17777,17779,17795,18295,,green
1,Stroop screen,canvas.Screen,2_0_2_1,2024-09-26T07:12:37.975Z,,green,TRUE,green,862,response,task,green,keydown(g),19175,19142,18280,18281,18295,19196,,green
1,Inter-trial interval,canvas.Screen,2_0_2_2,2024-09-26T07:12:38.481Z,,green,,,501,timeout,task,,,19680,19680,19176,19176,19196,19697,,green
1,Trial,flow.Sequence,2_0_2,2024-09-26T07:12:38.481Z,,green,,,1885,completion,task,,,19681,19680,17777,17779,17795,19697,,green
1,Fixation cross,canvas.Screen,2_0_3_0,2024-09-26T07:12:38.981Z,,green,,,500,timeout,task,,,20181,20180,19680,19681,19697,20197,,red
1,Stroop screen,canvas.Screen,2_0_3_1,2024-09-26T07:12:41.159Z,,green,TRUE,green,2143,response,task,green,keydown(g),22359,22323,20180,20181,20197,22387,,red
1,Inter-trial interval,canvas.Screen,2_0_3_2,2024-09-26T07:12:41.666Z,,green,,,495,timeout,task,,,22866,22865,22359,22359,22387,22882,,red
1,Trial,flow.Sequence,2_0_3,2024-09-26T07:12:41.667Z,,green,,,3168,completion,task,,,22867,22865,19680,19681,19697,22882,,red
1,Fixation cross,canvas.Screen,2_0_4_0,2024-09-26T07:12:42.168Z,,orange,,,503,timeout,task,,,23367,23366,22865,22867,22882,23385,,green
1,Stroop screen,canvas.Screen,2_0_4_1,2024-09-26T07:12:43.196Z,,orange,TRUE,orange,996,response,task,orange,keydown(o),24396,24362,23366,23368,23385,24417,,green
1,Inter-trial interval,canvas.Screen,2_0_4_2,2024-09-26T07:12:43.702Z,,orange,,,501,timeout,task,,,24902,24901,24397,24396,24417,24918,,green
1,Trial,flow.Sequence,2_0_4,2024-09-26T07:12:43.703Z,,orange,,,2019,completion,task,,,24902,24901,22865,22867,22882,24918,,green
1,Fixation cross,canvas.Screen,2_0_5_0,2024-09-26T07:12:44.202Z,,red,,,500,timeout,task,,,25402,25401,24901,24903,24918,25418,,blue
1,Stroop screen,canvas.Screen,2_0_5_1,2024-09-26T07:12:45.631Z,,red,TRUE,red,1392,response,task,red,keydown(r),26831,26793,25401,25403,25418,26853,,blue
1,Inter-trial interval,canvas.Screen,2_0_5_2,2024-09-26T07:12:46.138Z,,red,,,502,timeout,task,,,27338,27336,26832,26831,26853,27355,,blue
1,Trial,flow.Sequence,2_0_5,2024-09-26T07:12:46.139Z,,red,,,2418,completion,task,,,27339,27336,24901,24903,24918,27355,,blue
1,Fixation cross,canvas.Screen,2_0_6_0,2024-09-26T07:12:46.638Z,,blue,,,498,timeout,task,,,27838,27837,27336,27339,27355,27853,,blue
1,Stroop screen,canvas.Screen,2_0_6_1,2024-09-26T07:12:47.458Z,,blue,TRUE,blue,786,response,task,blue,keydown(b),28658,28623,27837,27838,27853,28671,,blue
1,Inter-trial interval,canvas.Screen,2_0_6_2,2024-09-26T07:12:47.955Z,,blue,,,499,timeout,task,,,29155,29154,28660,28659,28671,29170,,blue
1,Trial,flow.Sequence,2_0_6,2024-09-26T07:12:47.955Z,,blue,,,1799,completion,task,,,29155,29154,27336,27339,27355,29170,,blue
1,Fixation cross,canvas.Screen,2_0_7_0,2024-09-26T07:12:48.455Z,,red,,,503,timeout,task,,,29655,29654,29154,29155,29170,29673,,red
1,Stroop screen,canvas.Screen,2_0_7_1,2024-09-26T07:12:49.650Z,,red,TRUE,red,1159,response,task,red,keydown(r),30850,30813,29654,29656,29673,30872,,red
1,Inter-trial interval,canvas.Screen,2_0_7_2,2024-09-26T07:12:50.157Z,,red,,,500,timeout,task,,,31357,31356,30851,30850,30872,31372,,red
1,Trial,flow.Sequence,2_0_7,2024-09-26T07:12:50.158Z,,red,,,2186,completion,task,,,31357,31356,29154,29155,29170,31372,,red
1,Fixation cross,canvas.Screen,2_0_8_0,2024-09-26T07:12:50.658Z,,red,,,501,timeout,task,,,31857,31856,31356,31358,31372,31873,,red
1,Stroop screen,canvas.Screen,2_0_8_1,2024-09-26T07:12:51.569Z,,red,TRUE,red,877,response,task,red,keydown(r),32768,32733,31856,31858,31873,32791,,red
1,Inter-trial interval,canvas.Screen,2_0_8_2,2024-09-26T07:12:52.075Z,,red,,,500,timeout,task,,,33275,33274,32770,32769,32791,33291,,red
1,Trial,flow.Sequence,2_0_8,2024-09-26T07:12:52.075Z,,red,,,1902,completion,task,,,33275,33274,31356,31358,31372,33291,,red
1,Fixation cross,canvas.Screen,2_0_9_0,2024-09-26T07:12:52.576Z,,orange,,,501,timeout,task,,,33776,33775,33274,33275,33291,33792,,orange
1,Stroop screen,canvas.Screen,2_0_9_1,2024-09-26T07:12:53.159Z,,orange,TRUE,orange,547,response,task,orange,keydown(o),34359,34322,33775,33776,33792,34375,,orange
1,Inter-trial interval,canvas.Screen,2_0_9_2,2024-09-26T07:12:53.660Z,,orange,,,501,timeout,task,,,34860,34859,34360,34360,34375,34876,,orange
1,Trial,flow.Sequence,2_0_9,2024-09-26T07:12:53.661Z,,orange,,,1568,completion,task,,,34861,34859,33274,33275,33291,34876,,orange
1,Fixation cross,canvas.Screen,2_0_10_0,2024-09-26T07:12:54.162Z,,blue,,,500,timeout,task,,,35362,35361,34859,34861,34876,35376,,blue
1,Stroop screen,canvas.Screen,2_0_10_1,2024-09-26T07:12:54.868Z,,blue,TRUE,blue,671,response,task,blue,keydown(b),36068,36032,35361,35362,35376,36076,,blue
1,Inter-trial interval,canvas.Screen,2_0_10_2,2024-09-26T07:12:55.361Z,,blue,,,501,timeout,task,,,36561,36560,36069,36068,36076,36577,,blue
1,Trial,flow.Sequence,2_0_10,2024-09-26T07:12:55.361Z,,blue,,,1684,completion,task,,,36561,36560,34859,34861,34876,36577,,blue
1,Fixation cross,canvas.Screen,2_0_11_0,2024-09-26T07:12:55.862Z,,red,,,501,timeout,task,,,37062,37061,36560,36561,36577,37078,,green
1,Stroop screen,canvas.Screen,2_0_11_1,2024-09-26T07:12:56.909Z,,red,FALSE,red,1012,response,task,green,keydown(g),38109,38073,37061,37062,37078,38128,,green
1,Inter-trial interval,canvas.Screen,2_0_11_2,2024-09-26T07:12:57.413Z,,red,,,501,timeout,task,,,38612,38612,38110,38109,38128,38629,,green
1,Trial,flow.Sequence,2_0_11,2024-09-26T07:12:57.413Z,,red,,,2035,completion,task,,,38613,38612,36560,36561,36577,38629,,green
1,Fixation cross,canvas.Screen,2_0_12_0,2024-09-26T07:12:57.914Z,,red,,,500,timeout,task,,,39114,39113,38612,38613,38629,39129,,red
1,Stroop screen,canvas.Screen,2_0_12_1,2024-09-26T07:12:58.897Z,,red,TRUE,red,939,response,task,red,keydown(r),40097,40052,39113,39114,39129,40113,,red
1,Inter-trial interval,canvas.Screen,2_0_12_2,2024-09-26T07:12:59.400Z,,red,,,501,timeout,task,,,40599,40598,40098,40097,40113,40614,,red
1,Trial,flow.Sequence,2_0_12,2024-09-26T07:12:59.400Z,,red,,,1969,completion,task,,,40600,40598,38612,38613,38629,40614,,red
1,Fixation cross,canvas.Screen,2_0_13_0,2024-09-26T07:12:59.898Z,,blue,,,500,timeout,task,,,41098,41098,40598,40600,40614,41114,,green
1,Stroop screen,canvas.Screen,2_0_13_1,2024-09-26T07:13:00.869Z,,blue,TRUE,blue,935,response,task,blue,keydown(b),42069,42033,41098,41098,41114,42081,,green
1,Inter-trial interval,canvas.Screen,2_0_13_2,2024-09-26T07:13:01.366Z,,blue,,,502,timeout,task,,,42566,42565,42069,42069,42081,42583,,green
1,Trial,flow.Sequence,2_0_13,2024-09-26T07:13:01.367Z,,blue,,,1951,completion,task,,,42567,42565,40598,40600,40614,42583,,green
1,Fixation cross,canvas.Screen,2_0_14_0,2024-09-26T07:13:01.868Z,,red,,,500,timeout,task,,,43068,43066,42565,42567,42583,43083,,orange
1,Stroop screen,canvas.Screen,2_0_14_1,2024-09-26T07:13:03.480Z,,red,TRUE,red,1577,response,task,red,keydown(r),44680,44643,43066,43068,43083,44701,,orange
1,Inter-trial interval,canvas.Screen,2_0_14_2,2024-09-26T07:13:03.985Z,,red,,,500,timeout,task,,,45185,45184,44681,44680,44701,45201,,orange
1,Trial,flow.Sequence,2_0_14,2024-09-26T07:13:03.986Z,,red,,,2601,completion,task,,,45186,45184,42565,42567,42583,45201,,orange
1,Fixation cross,canvas.Screen,2_0_15_0,2024-09-26T07:13:04.486Z,,green,,,504,timeout,task,,,45685,45685,45184,45186,45201,45705,,green
1,Stroop screen,canvas.Screen,2_0_15_1,2024-09-26T07:13:05.518Z,,green,TRUE,green,998,response,task,green,keydown(g),46717,46683,45685,45686,45705,46737,,green
1,Inter-trial interval,canvas.Screen,2_0_15_2,2024-09-26T07:13:06.020Z,,green,,,499,timeout,task,,,47220,47219,46719,46718,46737,47236,,green
1,Trial,flow.Sequence,2_0_15,2024-09-26T07:13:06.021Z,,green,,,2018,completion,task,,,47221,47219,45184,45186,45201,47236,,green
1,Fixation cross,canvas.Screen,2_0_16_0,2024-09-26T07:13:06.521Z,,orange,,,500,timeout,task,,,47721,47720,47219,47221,47236,47736,,orange
1,Stroop screen,canvas.Screen,2_0_16_1,2024-09-26T07:13:07.349Z,,orange,TRUE,orange,793,response,task,orange,keydown(o),48549,48513,47720,47721,47736,48571,,orange
1,Inter-trial interval,canvas.Screen,2_0_16_2,2024-09-26T07:13:07.856Z,,orange,,,502,timeout,task,,,49055,49054,48550,48550,48571,49073,,orange
1,Trial,flow.Sequence,2_0_16,2024-09-26T07:13:07.856Z,,orange,,,1818,completion,task,,,49056,49054,47219,47221,47236,49073,,orange
1,Fixation cross,canvas.Screen,2_0_17_0,2024-09-26T07:13:08.355Z,,blue,,,499,timeout,task,,,49555,49554,49054,49056,49073,49572,,orange
1,Stroop screen,canvas.Screen,2_0_17_1,2024-09-26T07:13:09.393Z,,blue,TRUE,blue,999,response,task,blue,keydown(b),50593,50553,49554,49556,49572,50606,,orange
1,Inter-trial interval,canvas.Screen,2_0_17_2,2024-09-26T07:13:09.890Z,,blue,,,500,timeout,task,,,51090,51089,50593,50593,50606,51106,,orange
1,Trial,flow.Sequence,2_0_17,2024-09-26T07:13:09.891Z,,blue,,,2016,completion,task,,,51091,51089,49054,49056,49073,51106,,orange
1,Fixation cross,canvas.Screen,2_0_18_0,2024-09-26T07:13:10.391Z,,green,,,501,timeout,task,,,51591,51591,51089,51091,51106,51607,,orange
1,Stroop screen,canvas.Screen,2_0_18_1,2024-09-26T07:13:11.553Z,,green,TRUE,green,1121,response,task,green,keydown(g),52753,52712,51591,51592,51607,52774,,orange
1,Inter-trial interval,canvas.Screen,2_0_18_2,2024-09-26T07:13:12.058Z,,green,,,500,timeout,task,,,53258,53257,52754,52754,52774,53274,,orange
1,Trial,flow.Sequence,2_0_18,2024-09-26T07:13:12.058Z,,green,,,2151,completion,task,,,53258,53257,51089,51091,51106,53274,,orange
1,Fixation cross,canvas.Screen,2_0_19_0,2024-09-26T07:13:12.558Z,,blue,,,501,timeout,task,,,53758,53757,53257,53258,53274,53775,,blue
1,Stroop screen,canvas.Screen,2_0_19_1,2024-09-26T07:13:13.345Z,,blue,TRUE,blue,755,response,task,blue,keydown(b),54545,54512,53757,53758,53775,54559,,blue
1,Inter-trial interval,canvas.Screen,2_0_19_2,2024-09-26T07:13:13.844Z,,blue,,,500,timeout,task,,,55043,55042,54545,54545,54559,55059,,blue
1,Trial,flow.Sequence,2_0_19,2024-09-26T07:13:13.844Z,,blue,,,1768,completion,task,,,55044,55042,53257,53258,53274,55059,,blue
1,Fixation cross,canvas.Screen,2_0_20_0,2024-09-26T07:13:14.344Z,,orange,,,501,timeout,task,,,55544,55543,55042,55044,55059,55560,,blue
1,Stroop screen,canvas.Screen,2_0_20_1,2024-09-26T07:13:15.661Z,,orange,TRUE,orange,1279,response,task,orange,keydown(o),56860,56822,55543,55544,55560,56877,,blue
1,Inter-trial interval,canvas.Screen,2_0_20_2,2024-09-26T07:13:16.162Z,,orange,,,501,timeout,task,,,57362,57361,56861,56861,56877,57378,,blue
1,Trial,flow.Sequence,2_0_20,2024-09-26T07:13:16.163Z,,orange,,,2302,completion,task,,,57363,57361,55042,55044,55059,57378,,blue
1,Fixation cross,canvas.Screen,2_0_21_0,2024-09-26T07:13:16.662Z,,green,,,500,timeout,task,,,57862,57861,57361,57363,57378,57878,,green
1,Stroop screen,canvas.Screen,2_0_21_1,2024-09-26T07:13:17.579Z,,green,TRUE,green,881,response,task,green,keydown(g),58778,58742,57861,57863,57878,58796,,green
1,Inter-trial interval,canvas.Screen,2_0_21_2,2024-09-26T07:13:18.080Z,,green,,,500,timeout,task,,,59280,59279,58779,58779,58796,59296,,green
1,Trial,flow.Sequence,2_0_21,2024-09-26T07:13:18.080Z,,green,,,1901,completion,task,,,59280,59279,57361,57363,57378,59296,,green
1,Fixation cross,canvas.Screen,2_0_22_0,2024-09-26T07:13:18.582Z,,green,,,501,timeout,task,,,59781,59780,59279,59280,59296,59797,,blue
1,Stroop screen,canvas.Screen,2_0_22_1,2024-09-26T07:13:19.947Z,,green,TRUE,green,1331,response,task,green,keydown(g),61146,61111,59780,59782,59797,61165,,blue
1,Inter-trial interval,canvas.Screen,2_0_22_2,2024-09-26T07:13:20.449Z,,green,,,500,timeout,task,,,61648,61648,61147,61147,61165,61665,,blue
1,Trial,flow.Sequence,2_0_22,2024-09-26T07:13:20.449Z,,green,,,2352,completion,task,,,61649,61648,59279,59280,59296,61665,,blue
1,Fixation cross,canvas.Screen,2_0_23_0,2024-09-26T07:13:20.949Z,,orange,,,500,timeout,task,,,62149,62148,61648,61649,61665,62165,,red
1,Stroop screen,canvas.Screen,2_0_23_1,2024-09-26T07:13:21.926Z,,orange,TRUE,orange,943,response,task,orange,keydown(o),63126,63091,62148,62149,62165,63133,,red
1,Inter-trial interval,canvas.Screen,2_0_23_2,2024-09-26T07:13:22.417Z,,orange,,,500,timeout,task,,,63617,63616,63127,63126,63133,63633,,red
1,Trial,flow.Sequence,2_0_23,2024-09-26T07:13:22.417Z,,orange,,,1951,completion,task,,,63617,63616,61648,61649,61665,63633,,red
1,Stroop task,flow.Loop,2_0,2024-09-26T07:13:22.417Z,,,,,50058,completion,,,,63617,63616,13541,13530,13558,63633,,
1,Task frame,canvas.Frame,2,2024-09-26T07:13:22.418Z,,,,,50059,,,,,63618,63617,13541,13528,13558,63650,,
1,Thanks,html.Screen,3,2024-09-26T07:13:22.451Z,,,,,16,timeout,,,,63650,63650,63633,63618,63650,63666,,
1,root,flow.Sequence,,2024-09-26T07:13:22.452Z,,,,,63474,completion,,,,63652,63650,159,136,176,63666,,
Charlotte 2,root,flow.Sequence,null,2024-09-26T08:49:20.880Z,"{""labjs_version"":""20.2.4"",​""labjs_build"":{""flavor"":""development"",​""commit"":""f5b4a49f956347addd546a832a",blue,TRUE,blue,86392,completion,task,blue,keydown(b),86495,86493,96,72,101,,{},orange
2,root,flow.Sequence,null,2024-09-26T08:49:20.880Z,,,,,86392,completion,,,,86495,86493,96,72,101,86510,,
2,Thanks,html.Screen,3,2024-09-26T08:49:20.879Z,,,,,17,timeout,,,,86494,86493,86477,86464,86493,86510,,
2,Task frame,canvas.Frame,2,2024-09-26T08:49:20.849Z,,,,,53021,null,,,,86463,86462,33425,33412,33441,86493,,
2,Stroop task,flow.Loop,2_0,2024-09-26T08:49:20.848Z,,,,,53019,completion,,,,86462,86460,33425,33414,33441,86477,,
2,Trial,flow.Sequence,2_0_23,2024-09-26T08:49:20.847Z,,blue,,,1750,completion,task,,,86461,86460,84693,84695,84710,86477,,orange
2,Inter-trial interval,canvas.Screen,2_0_23_2,2024-09-26T08:49:20.846Z,,blue,,,501,timeout,task,,,86461,86460,85967,85966,85976,86477,,orange
2,Stroop screen,canvas.Screen,2_0_23_1,2024-09-26T08:49:20.351Z,,blue,TRUE,blue,863,response,task,blue,keydown(b),85966,86056,85193,85195,85210,85976,,orange
2,Fixation cross,canvas.Screen,2_0_23_0,2024-09-26T08:49:19.580Z,,blue,,,500,timeout,task,,,85194,85193,84693,84695,84710,85210,,orange
2,Trial,flow.Sequence,2_0_22,2024-09-26T08:49:19.080Z,,blue,,,2016,completion,task,,,84695,84693,82660,82661,82677,84710,,green
2,Inter-trial interval,canvas.Screen,2_0_22_2,2024-09-26T08:49:19.080Z,,blue,,,500,timeout,task,,,84694,84693,84192,84192,84210,84710,,green
2,Stroop screen,canvas.Screen,2_0_22_1,2024-09-26T08:49:18.577Z,,blue,TRUE,blue,1121,response,task,blue,keydown(b),84191,84281,83160,83161,83177,84210,,green
2,Fixation cross,canvas.Screen,2_0_22_0,2024-09-26T08:49:17.546Z,,blue,,,500,timeout,task,,,83161,83160,82660,82661,82677,83177,,green
2,Trial,flow.Sequence,2_0_21,2024-09-26T08:49:17.046Z,,orange,,,2067,completion,task,,,82661,82660,80577,80578,80593,82677,,orange
2,Inter-trial interval,canvas.Screen,2_0_21_2,2024-09-26T08:49:17.046Z,,orange,,,501,timeout,task,,,82660,82660,82154,82154,82176,82677,,orange
2,Stroop screen,canvas.Screen,2_0_21_1,2024-09-26T08:49:16.539Z,,orange,TRUE,orange,1166,response,task,orange,keydown(o),82153,82243,81077,81077,81093,82176,,orange
2,Fixation cross,canvas.Screen,2_0_21_0,2024-09-26T08:49:15.463Z,,orange,,,500,timeout,task,,,81077,81077,80577,80578,80593,81093,,orange
2,Trial,flow.Sequence,2_0_20,2024-09-26T08:49:14.964Z,,red,,,1900,completion,task,,,80578,80577,78660,78661,78677,80593,,red
2,Inter-trial interval,canvas.Screen,2_0_20_2,2024-09-26T08:49:14.963Z,,red,,,500,timeout,task,,,80577,80577,80078,80077,80093,80593,,red
2,Stroop screen,canvas.Screen,2_0_20_1,2024-09-26T08:49:14.463Z,,red,TRUE,red,1007,response,task,red,keydown(r),80077,80167,79160,79161,79177,80093,,red
2,Fixation cross,canvas.Screen,2_0_20_0,2024-09-26T08:49:13.546Z,,red,,,500,timeout,task,,,79160,79160,78660,78661,78677,79177,,red
2,Trial,flow.Sequence,2_0_19,2024-09-26T08:49:13.047Z,,orange,,,2134,completion,task,,,78661,78660,76510,76511,76526,78677,,blue
2,Inter-trial interval,canvas.Screen,2_0_19_2,2024-09-26T08:49:13.046Z,,orange,,,500,timeout,task,,,78660,78660,78153,78153,78177,78677,,blue
2,Stroop screen,canvas.Screen,2_0_19_1,2024-09-26T08:49:12.538Z,,orange,TRUE,orange,1232,response,task,orange,keydown(o),78152,78242,77010,77011,77026,78177,,blue
2,Fixation cross,canvas.Screen,2_0_19_0,2024-09-26T08:49:11.396Z,,orange,,,500,timeout,task,,,77010,77010,76510,76511,76526,77026,,blue
2,Trial,flow.Sequence,2_0_18,2024-09-26T08:49:10.896Z,,orange,,,2500,completion,task,,,76510,76510,73993,73994,74010,76526,,green
2,Inter-trial interval,canvas.Screen,2_0_18_2,2024-09-26T08:49:10.896Z,,orange,,,500,timeout,task,,,76510,76510,76001,76001,76026,76526,,green
2,Stroop screen,canvas.Screen,2_0_18_1,2024-09-26T08:49:10.386Z,,orange,TRUE,orange,1597,response,task,orange,keydown(o),76000,76090,74493,74494,74510,76026,,green
2,Fixation cross,canvas.Screen,2_0_18_0,2024-09-26T08:49:08.879Z,,orange,,,500,timeout,task,,,74493,74493,73993,73994,74010,74510,,green
2,Trial,flow.Sequence,2_0_17,2024-09-26T08:49:08.380Z,,blue,,,2283,completion,task,,,73994,73993,71693,71694,71710,74010,,blue
2,Inter-trial interval,canvas.Screen,2_0_17_2,2024-09-26T08:49:08.380Z,,blue,,,500,timeout,task,,,73994,73993,73490,73490,73510,74010,,blue
2,Stroop screen,canvas.Screen,2_0_17_1,2024-09-26T08:49:07.875Z,,blue,TRUE,blue,1386,response,task,blue,keydown(b),73489,73579,72193,72194,72210,73510,,blue
2,Fixation cross,canvas.Screen,2_0_17_0,2024-09-26T08:49:06.580Z,,blue,,,500,timeout,task,,,72194,72193,71693,71694,71710,72210,,blue
2,Trial,flow.Sequence,2_0_16,2024-09-26T08:49:06.080Z,,red,,,2283,completion,task,,,71694,71693,69393,69394,69410,71710,,green
2,Inter-trial interval,canvas.Screen,2_0_16_2,2024-09-26T08:49:06.080Z,,red,,,501,timeout,task,,,71694,71693,71197,71196,71209,71710,,green
2,Stroop screen,canvas.Screen,2_0_16_1,2024-09-26T08:49:05.582Z,,red,TRUE,red,1392,response,task,red,keydown(r),71196,71285,69893,69894,69910,71209,,green
2,Fixation cross,canvas.Screen,2_0_16_0,2024-09-26T08:49:04.280Z,,red,,,500,timeout,task,,,69894,69893,69393,69394,69410,69910,,green
2,Trial,flow.Sequence,2_0_15,2024-09-26T08:49:03.780Z,,green,,,2083,completion,task,,,69394,69393,67293,67294,67310,69410,,orange
2,Inter-trial interval,canvas.Screen,2_0_15_2,2024-09-26T08:49:03.780Z,,green,,,500,timeout,task,,,69394,69393,68894,68894,68910,69410,,orange
2,Stroop screen,canvas.Screen,2_0_15_1,2024-09-26T08:49:03.280Z,,green,TRUE,green,1190,response,task,green,keydown(g),68893,68983,67793,67794,67810,68910,,orange
2,Fixation cross,canvas.Screen,2_0_15_0,2024-09-26T08:49:02.180Z,,green,,,500,timeout,task,,,67794,67793,67293,67294,67310,67810,,orange
2,Trial,flow.Sequence,2_0_14,2024-09-26T08:49:01.680Z,,green,,,2533,completion,task,,,67294,67293,64743,64744,64760,67310,,red
2,Inter-trial interval,canvas.Screen,2_0_14_2,2024-09-26T08:49:01.679Z,,green,,,501,timeout,task,,,67293,67293,66797,66797,66809,67310,,red
2,Stroop screen,canvas.Screen,2_0_14_1,2024-09-26T08:49:01.183Z,,green,TRUE,green,1643,response,task,green,keydown(g),66797,66886,65243,65244,65260,66809,,red
2,Fixation cross,canvas.Screen,2_0_14_0,2024-09-26T08:48:59.630Z,,green,,,500,timeout,task,,,65244,65243,64743,64744,64760,65260,,red
2,Trial,flow.Sequence,2_0_13,2024-09-26T08:48:59.130Z,,orange,,,1950,completion,task,,,64744,64743,62776,62778,62793,64760,,orange
2,Inter-trial interval,canvas.Screen,2_0_13_2,2024-09-26T08:48:59.130Z,,orange,,,501,timeout,task,,,64743,64743,64250,64250,64259,64760,,orange
2,Stroop screen,canvas.Screen,2_0_13_1,2024-09-26T08:48:58.636Z,,orange,TRUE,orange,1062,response,task,orange,keydown(o),64249,64338,63276,63277,63293,64259,,orange
2,Fixation cross,canvas.Screen,2_0_13_0,2024-09-26T08:48:57.663Z,,orange,,,500,timeout,task,,,63277,63276,62776,62778,62793,63293,,orange
2,Trial,flow.Sequence,2_0_12,2024-09-26T08:48:57.164Z,,blue,,,2133,completion,task,,,62777,62776,60626,60627,60643,62793,,blue
2,Inter-trial interval,canvas.Screen,2_0_12_2,2024-09-26T08:48:57.163Z,,blue,,,501,timeout,task,,,62777,62776,62285,62284,62292,62793,,blue
2,Stroop screen,canvas.Screen,2_0_12_1,2024-09-26T08:48:56.670Z,,blue,TRUE,blue,1247,response,task,blue,keydown(b),62284,62373,61126,61127,61143,62292,,blue
2,Fixation cross,canvas.Screen,2_0_12_0,2024-09-26T08:48:55.513Z,,blue,,,500,timeout,task,,,61127,61126,60626,60627,60643,61143,,blue
2,Trial,flow.Sequence,2_0_11,2024-09-26T08:48:55.014Z,,green,,,2618,completion,task,,,60627,60626,57993,57994,58008,60643,,green
2,Inter-trial interval,canvas.Screen,2_0_11_2,2024-09-26T08:48:55.013Z,,green,,,500,timeout,task,,,60627,60626,60118,60118,60143,60643,,green
2,Stroop screen,canvas.Screen,2_0_11_1,2024-09-26T08:48:54.504Z,,green,TRUE,green,1713,response,task,green,keydown(g),60117,60206,58493,58494,58510,60143,,green
2,Fixation cross,canvas.Screen,2_0_11_0,2024-09-26T08:48:52.880Z,,green,,,502,timeout,task,,,58493,58493,57993,57994,58008,58510,,green
2,Trial,flow.Sequence,2_0_10,2024-09-26T08:48:52.380Z,,blue,,,2284,completion,task,,,57994,57993,55693,55695,55709,58008,,red
2,Inter-trial interval,canvas.Screen,2_0_10_2,2024-09-26T08:48:52.380Z,,blue,,,499,timeout,task,,,57993,57993,57499,57499,57509,58008,,red
2,Stroop screen,canvas.Screen,2_0_10_1,2024-09-26T08:48:51.885Z,,blue,TRUE,blue,1394,response,task,blue,keydown(b),57498,57587,56193,56194,56209,57509,,red
2,Fixation cross,canvas.Screen,2_0_10_0,2024-09-26T08:48:50.580Z,,blue,,,500,timeout,task,,,56193,56193,55693,55695,55709,56209,,red
2,Trial,flow.Sequence,2_0_9,2024-09-26T08:48:50.081Z,,red,,,1850,completion,task,,,55694,55693,53826,53827,53843,55709,,red
2,Inter-trial interval,canvas.Screen,2_0_9_2,2024-09-26T08:48:50.080Z,,red,,,500,timeout,task,,,55694,55693,55200,55199,55209,55709,,red
2,Stroop screen,canvas.Screen,2_0_9_1,2024-09-26T08:48:49.585Z,,red,TRUE,red,961,response,task,red,keydown(r),55198,55287,54326,54327,54343,55209,,red
2,Fixation cross,canvas.Screen,2_0_9_0,2024-09-26T08:48:48.713Z,,red,,,500,timeout,task,,,54327,54326,53826,53827,53843,54343,,red
2,Trial,flow.Sequence,2_0_8,2024-09-26T08:48:48.214Z,,orange,,,2233,completion,task,,,53827,53826,51576,51577,51593,53843,,red
2,Inter-trial interval,canvas.Screen,2_0_8_2,2024-09-26T08:48:48.213Z,,orange,,,501,timeout,task,,,53827,53826,53328,53327,53342,53843,,red
2,Stroop screen,canvas.Screen,2_0_8_1,2024-09-26T08:48:47.714Z,,orange,FALSE,orange,1340,response,task,red,keydown(r),53327,53416,52076,52077,52092,53342,,red
2,Fixation cross,canvas.Screen,2_0_8_0,2024-09-26T08:48:46.463Z,,orange,,,499,timeout,task,,,52077,52076,51576,51577,51593,52092,,red
2,Trial,flow.Sequence,2_0_7,2024-09-26T08:48:45.963Z,,green,,,2233,completion,task,,,51577,51576,49326,49327,49343,51593,,green
2,Inter-trial interval,canvas.Screen,2_0_7_2,2024-09-26T08:48:45.963Z,,green,,,500,timeout,task,,,51576,51576,51071,51071,51093,51593,,green
2,Stroop screen,canvas.Screen,2_0_7_1,2024-09-26T08:48:45.457Z,,green,TRUE,green,1333,response,task,green,keydown(g),51070,51159,49826,49827,49843,51093,,green
2,Fixation cross,canvas.Screen,2_0_7_0,2024-09-26T08:48:44.213Z,,green,,,500,timeout,task,,,49827,49826,49326,49327,49343,49843,,green
2,Trial,flow.Sequence,2_0_6,2024-09-26T08:48:43.714Z,,orange,,,1967,completion,task,,,49327,49326,47343,47344,47359,49343,,orange
2,Inter-trial interval,canvas.Screen,2_0_6_2,2024-09-26T08:48:43.713Z,,orange,,,500,timeout,task,,,49327,49326,48821,48820,48843,49343,,orange
2,Stroop screen,canvas.Screen,2_0_6_1,2024-09-26T08:48:43.206Z,,orange,TRUE,orange,1065,response,task,orange,keydown(o),48819,48908,47843,47844,47859,48843,,orange
2,Fixation cross,canvas.Screen,2_0_6_0,2024-09-26T08:48:42.231Z,,orange,,,500,timeout,task,,,47844,47843,47343,47344,47359,47859,,orange
2,Trial,flow.Sequence,2_0_5,2024-09-26T08:48:41.731Z,,red,,,2151,completion,task,,,47344,47343,45176,45178,45192,47359,,red
2,Inter-trial interval,canvas.Screen,2_0_5_2,2024-09-26T08:48:41.730Z,,red,,,500,timeout,task,,,47343,47343,46838,46837,46859,47359,,red
2,Stroop screen,canvas.Screen,2_0_5_1,2024-09-26T08:48:41.223Z,,red,TRUE,red,1248,response,task,red,keydown(r),46837,46924,45676,45677,45693,46859,,red
2,Fixation cross,canvas.Screen,2_0_5_0,2024-09-26T08:48:40.064Z,,red,,,501,timeout,task,,,45677,45676,45176,45178,45192,45693,,red
2,Trial,flow.Sequence,2_0_4,2024-09-26T08:48:39.564Z,,green,,,2617,completion,task,,,45178,45176,42542,42544,42559,45192,,blue
2,Inter-trial interval,canvas.Screen,2_0_4_2,2024-09-26T08:48:39.564Z,,green,,,500,timeout,task,,,45177,45176,44681,44680,44692,45192,,blue
2,Stroop screen,canvas.Screen,2_0_4_1,2024-09-26T08:48:39.066Z,,green,TRUE,green,1724,response,task,green,keydown(g),44679,44766,43042,43044,43059,44692,,blue
2,Fixation cross,canvas.Screen,2_0_4_0,2024-09-26T08:48:37.430Z,,green,,,500,timeout,task,,,43043,43042,42542,42544,42559,43059,,blue
2,Trial,flow.Sequence,2_0_3,2024-09-26T08:48:36.931Z,,red,,,2149,completion,task,,,42544,42542,40376,40378,40393,42559,,orange
2,Inter-trial interval,canvas.Screen,2_0_3_2,2024-09-26T08:48:36.930Z,,red,,,500,timeout,task,,,42543,42542,42038,42037,42059,42559,,orange
2,Stroop screen,canvas.Screen,2_0_3_1,2024-09-26T08:48:36.424Z,,red,TRUE,red,1249,response,task,red,keydown(r),42037,42125,40876,40877,40892,42059,,orange
2,Fixation cross,canvas.Screen,2_0_3_0,2024-09-26T08:48:35.263Z,,red,,,499,timeout,task,,,40877,40876,40376,40378,40393,40892,,orange
2,Trial,flow.Sequence,2_0_2,2024-09-26T08:48:34.764Z,,green,,,2201,completion,task,,,40377,40376,38159,38161,38175,40393,,green
2,Inter-trial interval,canvas.Screen,2_0_2_2,2024-09-26T08:48:34.764Z,,green,,,501,timeout,task,,,40377,40376,39879,39879,39892,40393,,green
2,Stroop screen,canvas.Screen,2_0_2_1,2024-09-26T08:48:34.265Z,,green,TRUE,green,1307,response,task,green,keydown(g),39878,39967,38660,38661,38676,39892,,green
2,Fixation cross,canvas.Screen,2_0_2_0,2024-09-26T08:48:33.048Z,,green,,,501,timeout,task,,,38661,38660,38159,38161,38175,38676,,green
2,Trial,flow.Sequence,2_0_1,2024-09-26T08:48:32.547Z,,red,,,2583,completion,task,,,38160,38159,35559,35561,35576,38175,,blue
2,Inter-trial interval,canvas.Screen,2_0_1_2,2024-09-26T08:48:32.547Z,,red,,,499,timeout,task,,,38160,38159,37654,37654,37676,38175,,blue
2,Stroop screen,canvas.Screen,2_0_1_1,2024-09-26T08:48:32.040Z,,red,TRUE,red,1682,response,task,red,keydown(r),37653,37741,36059,36060,36076,37676,,blue
2,Fixation cross,canvas.Screen,2_0_1_0,2024-09-26T08:48:30.447Z,,red,,,500,timeout,task,,,36060,36059,35559,35561,35576,36076,,blue
2,Trial,flow.Sequence,2_0_0,2024-09-26T08:48:29.948Z,,blue,,,2118,completion,task,,,35561,35559,33425,33414,33441,35576,,blue
2,Inter-trial interval,canvas.Screen,2_0_0_2,2024-09-26T08:48:29.947Z,,blue,,,500,timeout,task,,,35560,35559,35062,35061,35076,35576,,blue
2,Stroop screen,canvas.Screen,2_0_0_1,2024-09-26T08:48:29.448Z,,blue,TRUE,blue,1222,response,task,blue,keydown(b),35061,35148,33926,33927,33942,35076,,blue
2,Fixation cross,canvas.Screen,2_0_0_0,2024-09-26T08:48:28.313Z,,blue,,,501,timeout,task,,,33926,33926,33425,33414,33441,33942,,blue
2,Practice frame,canvas.Frame,1,2024-09-26T08:48:27.799Z,,,,,8136,null,,,,33412,33411,25256,25252,25275,33441,,
2,Practice task,flow.Loop,1_0,2024-09-26T08:48:27.798Z,,,,,8134,completion,,,,33411,33409,25256,25255,25275,33425,,
2,Trial,flow.Sequence,1_0_3,2024-09-26T08:48:27.797Z,,blue,,,2117,completion,practice,,,33410,33409,31276,31277,31292,33425,,blue
2,Inter-trial interval,canvas.Screen,1_0_3_2,2024-09-26T08:48:27.797Z,,blue,,,499,timeout,practice,,,33410,33409,32907,32906,32926,33425,,blue
2,Stroop screen,canvas.Screen,1_0_3_1,2024-09-26T08:48:27.293Z,,blue,TRUE,blue,1218,response,practice,blue,keydown(b),32906,32994,31776,31777,31792,32926,,blue
2,Fixation cross,canvas.Screen,1_0_3_0,2024-09-26T08:48:26.163Z,,blue,,,500,timeout,practice,,,31776,31776,31276,31277,31292,31792,,blue
2,Trial,flow.Sequence,1_0_2,2024-09-26T08:48:25.664Z,,orange,,,2050,completion,practice,,,31277,31276,29209,29210,29226,31292,,orange
2,Inter-trial interval,canvas.Screen,1_0_2_2,2024-09-26T08:48:25.663Z,,orange,,,500,timeout,practice,,,31276,31276,30770,30770,30792,31292,,orange
2,Stroop screen,canvas.Screen,1_0_2_1,2024-09-26T08:48:25.156Z,,orange,TRUE,orange,1148,response,practice,orange,keydown(o),30769,30857,29709,29710,29726,30792,,orange
2,Fixation cross,canvas.Screen,1_0_2_0,2024-09-26T08:48:24.097Z,,orange,,,500,timeout,practice,,,29709,29709,29209,29210,29226,29726,,orange
2,Trial,flow.Sequence,1_0_1,2024-09-26T08:48:23.597Z,,green,,,2000,completion,practice,,,29210,29209,27192,27194,27209,29226,,green
2,Inter-trial interval,canvas.Screen,1_0_1_2,2024-09-26T08:48:23.597Z,,green,,,501,timeout,practice,,,29209,29209,28712,28712,28725,29226,,green
2,Stroop screen,canvas.Screen,1_0_1_1,2024-09-26T08:48:23.098Z,,green,TRUE,green,1107,response,practice,green,keydown(g),28711,28799,27692,27693,27709,28725,,green
2,Fixation cross,canvas.Screen,1_0_1_0,2024-09-26T08:48:22.080Z,,green,,,500,timeout,practice,,,27693,27692,27192,27194,27209,27709,,green
2,Trial,flow.Sequence,1_0_0,2024-09-26T08:48:21.581Z,,red,,,1917,completion,practice,,,27194,27192,25256,25255,25275,27209,,red
2,Inter-trial interval,canvas.Screen,1_0_0_2,2024-09-26T08:48:21.580Z,,red,,,501,timeout,practice,,,27193,27192,26698,26697,26708,27209,,red
2,Stroop screen,canvas.Screen,1_0_0_1,2024-09-26T08:48:21.084Z,,red,TRUE,red,1026,response,practice,red,keydown(r),26697,26785,25759,25760,25775,26708,,red
3,Fixation cross,canvas.Screen,1_0_0_0,2024-09-26T08:48:20.147Z,,red,,,500,timeout,practice,,,25760,25759,25256,25255,25275,25775,,red
3,Instruction,html.Screen,0,2024-09-26T08:48:19.638Z,"{""labjs_version"":""20.2.4"",​""labjs_build"":{""flavor"":""development"",​""commit"":""f5b4a49f956347addd546a832a",,,,25232,response,,continue,keypress(Space),25251,25328,96,72,101,25275,{},orange
3,,canvas.Screen,1_0_0_1,2024-09-26T08:46:52.158Z,,orange,TRUE,orange,1163.1,response,practice,orange,keydown(o),4495.5,4493.4,3297,3298.9,3330.3,4526.8,,orange
3,Inter-trial interval,canvas.Screen,1_0_0_2,2024-09-26T08:46:52.665Z,,orange,,,498.8,timeout,practice,,,5002.5,4992.2,4496.92,4496,4526.8,5025.6,,orange
3,Trial,flow.Sequence,1_0_0,2024-09-26T08:46:52.665Z,,orange,,,2177.3,completion,practice,,,5002.7,4992.2,2783.572,2784.8,2814.9,5025.6,,orange
3,Fixation cross,canvas.Screen,1_0_1_0,2024-09-26T08:46:53.155Z,,red,,,498.5,timeout,practice,,,5492.3,5491.2,4992.2,5002.8,5025.6,5524.1,,red
3,Stroop screen,canvas.Screen,1_0_1_1,2024-09-26T08:46:53.828Z,,red,TRUE,red,640.7,response,practice,red,keydown(r),6165.9,6164.8,5491.2,5492.6,5524.1,6189.6,,red
3,Inter-trial interval,canvas.Screen,1_0_1_2,2024-09-26T08:46:54.318Z,,red,,,498.4,timeout,practice,,,6655.2,6654.4,6157.408,6166.2,6189.6,6688,,red
3,Trial,flow.Sequence,1_0_1,2024-09-26T08:46:54.318Z,,red,,,1628.8,completion,practice,,,6655.7,6654.4,4992.2,5002.8,5025.6,6688,,red
3,Fixation cross,canvas.Screen,1_0_2_0,2024-09-26T08:46:54.833Z,,blue,,,514.9,timeout,practice,,,7171,7169.7,6654.4,6655.9,6688,7202.9,,blue
3,Stroop screen,canvas.Screen,1_0_2_1,2024-09-26T08:46:55.475Z,,blue,TRUE,blue,608.2,response,practice,blue,keydown(b),7812.5,7811.1,7169.7,7171.1,7202.9,7834.7,,blue
3,Inter-trial interval,canvas.Screen,1_0_2_2,2024-09-26T08:46:55.964Z,,blue,,,498.5,timeout,practice,,,8302,8300.8,7802.876,7812.7,7834.7,8333.2,,blue
3,Trial,flow.Sequence,1_0_2,2024-09-26T08:46:55.965Z,,blue,,,1612.8,completion,practice,,,8302.9,8300.8,6654.4,6655.8,6688,8333.2,,blue
3,Fixation cross,canvas.Screen,1_0_3_0,2024-09-26T08:46:56.462Z,,green,,,498.9,timeout,practice,,,8799.7,8798.5,8300.8,8303.2,8333.2,8832.1,,green
3,Stroop screen,canvas.Screen,1_0_3_1,2024-09-26T08:46:56.775Z,,green,TRUE,green,279.4,response,practice,green,keydown(g),9113,9111.5,8798.5,8799.9,8832.1,9134.7,,green
3,Inter-trial interval,canvas.Screen,1_0_3_2,2024-09-26T08:46:57.260Z,,green,,,495,timeout,practice,,,9597.4,9596.3,9098.756,9113.2,9134.7,9629.7,,green
3,Trial,flow.Sequence,1_0_3,2024-09-26T08:46:57.260Z,,green,,,1263.1,completion,practice,,,9597.6,9596.3,8300.8,8303.1,8333.2,9629.7,,green
3,Practice task,flow.Loop,1_0,2024-09-26T08:46:57.260Z,,,,,6781.4,completion,,,,9597.8,9596.3,2783.572,2784.7,2814.9,9629.7,,
3,Practice frame,canvas.Frame,1,2024-09-26T08:46:57.273Z,,,,,6795.8,,,,,9610.9,9610.7,2783.572,2783.9,2814.9,9662.8,,
3,Fixation cross,canvas.Screen,2_0_0_0,2024-09-26T08:46:57.791Z,,green,,,498.6,timeout,task,,,10129,10128.3,9629.7,9612,9662.8,10161.4,,red
3,Stroop screen,canvas.Screen,2_0_0_1,2024-09-26T08:47:00.054Z,,green,TRUE,green,2229.1,response,task,green,keydown(g),12391.9,12390.5,10128.3,10129.1,10161.4,12422,,red
3,Inter-trial interval,canvas.Screen,2_0_0_2,2024-09-26T08:47:00.550Z,,green,,,499,timeout,task,,,12888,12887.3,12388.9,12392,12422,12921,,red
3,Trial,flow.Sequence,2_0_0,2024-09-26T08:47:00.550Z,,green,,,3224.5,completion,task,,,12888.2,12887.3,9629.7,9612,9662.8,12921,,red
3,Fixation cross,canvas.Screen,2_0_1_0,2024-09-26T08:47:01.050Z,,orange,,,498.2,timeout,task,,,13387.1,13386.2,12887.3,12888.2,12921,13419.2,,orange
3,Stroop screen,canvas.Screen,2_0_1_1,2024-09-26T08:47:01.739Z,,orange,TRUE,orange,655.2,response,task,orange,keydown(o),14076.2,14074.4,13386.2,13387.3,13419.2,14101,,orange
3,Inter-trial interval,canvas.Screen,2_0_1_2,2024-09-26T08:47:02.230Z,,orange,,,499,timeout,task,,,14567.2,14566.3,14069.17,14076.4,14101,14600,,orange
3,Trial,flow.Sequence,2_0_1,2024-09-26T08:47:02.230Z,,orange,,,1645.3,completion,task,,,14567.5,14566.3,12887.3,12888.2,12921,14600,,orange
3,Fixation cross,canvas.Screen,2_0_2_0,2024-09-26T08:47:02.728Z,,red,,,498.3,timeout,task,,,15065.5,15064.7,14566.3,14567.6,14600,15098.3,,red
3,Stroop screen,canvas.Screen,2_0_2_1,2024-09-26T08:47:03.314Z,,red,TRUE,red,551.9,response,task,red,keydown(r),15651.8,15650.2,15064.7,15065.7,15098.3,15679.8,,red
3,Inter-trial interval,canvas.Screen,2_0_2_2,2024-09-26T08:47:03.809Z,,red,,,498.8,timeout,task,,,16146.7,16145.8,15648.28,15652.1,15679.8,16178.6,,red
3,Trial,flow.Sequence,2_0_2,2024-09-26T08:47:03.809Z,,red,,,1545.8,completion,task,,,16147,16145.8,14566.3,14567.6,14600,16178.6,,red
3,Fixation cross,canvas.Screen,2_0_3_0,2024-09-26T08:47:04.307Z,,blue,,,498.5,timeout,task,,,16645,16644.1,16145.8,16147,16178.6,16677.1,,red
3,Stroop screen,canvas.Screen,2_0_3_1,2024-09-26T08:47:05.211Z,,blue,TRUE,blue,869.9,response,task,blue,keydown(b),17548.3,17547,16644.1,16645.2,16677.1,17574.6,,red
3,Inter-trial interval,canvas.Screen,2_0_3_2,2024-09-26T08:47:05.721Z,,blue,,,515.5,timeout,task,,,18058.2,18057.1,17543.73,17548.5,17574.6,18090.1,,red
3,Trial,flow.Sequence,2_0_3,2024-09-26T08:47:05.721Z,,blue,,,1878.5,completion,task,,,18058.4,18057.1,16145.8,16147,16178.6,18090.1,,red
3,Fixation cross,canvas.Screen,2_0_4_0,2024-09-26T08:47:06.219Z,,blue,,,498.3,timeout,task,,,18556.6,18555.5,18057.1,18058.6,18090.1,18588.4,,blue
3,Stroop screen,canvas.Screen,2_0_4_1,2024-09-26T08:47:06.909Z,,blue,TRUE,blue,656.8,response,task,blue,keydown(b),19246.7,19245.2,18555.5,18556.8,18588.4,19270.2,,blue
3,Inter-trial interval,canvas.Screen,2_0_4_2,2024-09-26T08:47:07.399Z,,blue,,,498.5,timeout,task,,,19736.4,19735.5,19238.37,19246.9,19270.2,19768.7,,blue
3,Trial,flow.Sequence,2_0_4,2024-09-26T08:47:07.399Z,,blue,,,1645.4,completion,task,,,19736.6,19735.5,18057.1,18058.6,18090.1,19768.7,,blue
3,Fixation cross,canvas.Screen,2_0_5_0,2024-09-26T08:47:07.904Z,,green,,,498.7,timeout,task,,,20241.9,20234.1,19735.5,19736.8,19768.7,20267.4,,green
3,Stroop screen,canvas.Screen,2_0_5_1,2024-09-26T08:47:08.506Z,,green,TRUE,green,574.9,response,task,green,keydown(g),20843.5,20842.3,20234.1,20242,20267.4,20866.2,,green
3,Inter-trial interval,canvas.Screen,2_0_5_2,2024-09-26T08:47:08.995Z,,green,,,498.5,timeout,task,,,21332.3,21331.2,20834.04,20843.8,20866.2,21364.7,,green
3,Trial,flow.Sequence,2_0_5,2024-09-26T08:47:08.995Z,,green,,,1562.5,completion,task,,,21332.6,21331.2,19735.5,19736.7,19768.7,21364.7,,green
3,Fixation cross,canvas.Screen,2_0_6_0,2024-09-26T08:47:09.494Z,,orange,,,498.1,timeout,task,,,21831.5,21829.8,21331.2,21332.8,21364.7,21862.8,,orange
3,Stroop screen,canvas.Screen,2_0_6_1,2024-09-26T08:47:10.024Z,,orange,TRUE,orange,497.3,response,task,orange,keydown(o),22361.6,22360.1,21829.8,21831.7,21862.8,22395,,orange
3,Inter-trial interval,canvas.Screen,2_0_6_2,2024-09-26T08:47:10.527Z,,orange,,,498.4,timeout,task,,,22864.4,22860.2,22362.78,22361.9,22395,22893.4,,orange
3,Trial,flow.Sequence,2_0_6,2024-09-26T08:47:10.527Z,,orange,,,1495.5,completion,task,,,22864.6,22860.2,21331.2,21332.8,21364.7,22893.4,,orange
3,Fixation cross,canvas.Screen,2_0_7_0,2024-09-26T08:47:11.022Z,,orange,,,498.7,timeout,task,,,23359.8,23358.8,22860.2,22864.7,22893.4,23392.1,,green
3,Stroop screen,canvas.Screen,2_0_7_1,2024-09-26T08:47:12.287Z,,orange,TRUE,orange,1230.6,response,task,orange,keydown(o),24624.4,24622.7,23358.8,23359.9,23392.1,24655.3,,green
3,Inter-trial interval,canvas.Screen,2_0_7_2,2024-09-26T08:47:12.785Z,,orange,,,498.6,timeout,task,,,25122.2,25121.1,24625.38,24624.5,24655.3,25153.9,,green
3,Trial,flow.Sequence,2_0_7,2024-09-26T08:47:12.785Z,,orange,,,2227.7,completion,task,,,25122.4,25121.1,22860.2,22864.7,22893.4,25153.9,,green
3,Fixation cross,canvas.Screen,2_0_8_0,2024-09-26T08:47:13.283Z,,red,,,498.8,timeout,task,,,25620.4,25619.5,25121.1,25122.6,25153.9,25652.7,,green
3,Stroop screen,canvas.Screen,2_0_8_1,2024-09-26T08:47:14.226Z,,red,TRUE,red,908.7,response,task,red,keydown(r),26563.2,26561.4,25619.5,25620.6,25652.7,26583.4,,green
3,Inter-trial interval,canvas.Screen,2_0_8_2,2024-09-26T08:47:14.729Z,,red,,,515.3,timeout,task,,,27066.3,27065.5,26552.66,26563.4,26583.4,27098.7,,green
3,Trial,flow.Sequence,2_0_8,2024-09-26T08:47:14.729Z,,red,,,1911.6,completion,task,,,27066.5,27065.5,25121.1,25122.5,25153.9,27098.7,,green
3,Fixation cross,canvas.Screen,2_0_9_0,2024-09-26T08:47:15.232Z,,green,,,498.6,timeout,task,,,27569.5,27564.3,27065.5,27066.6,27098.7,27597.3,,green
3,Stroop screen,canvas.Screen,2_0_9_1,2024-09-26T08:47:16.238Z,,green,TRUE,green,976.9,response,task,green,keydown(g),28575.5,28574.2,27564.3,27569.8,27597.3,28594.7,,green
3,Inter-trial interval,canvas.Screen,2_0_9_2,2024-09-26T08:47:16.727Z,,green,,,498.4,timeout,task,,,29064.9,29060.1,28563.93,28575.7,28594.7,29093.1,,green
3,Trial,flow.Sequence,2_0_9,2024-09-26T08:47:16.728Z,,green,,,1961.4,completion,task,,,29065.2,29060.1,27065.5,27066.6,27098.7,29093.1,,green
3,Fixation cross,canvas.Screen,2_0_10_0,2024-09-26T08:47:17.222Z,,blue,,,498.8,timeout,task,,,29559.9,29558.7,29060.1,29065.4,29093.1,29591.9,,blue
3,Stroop screen,canvas.Screen,2_0_10_1,2024-09-26T08:47:17.744Z,,blue,TRUE,blue,488.2,response,task,blue,keydown(b),30081.1,30080.1,29558.7,29560,29591.9,30107.1,,blue
3,Inter-trial interval,canvas.Screen,2_0_10_2,2024-09-26T08:47:18.236Z,,blue,,,498.7,timeout,task,,,30573.4,30572.4,30075.21,30081.3,30107.1,30605.8,,blue
3,Trial,flow.Sequence,2_0_10,2024-09-26T08:47:18.236Z,,blue,,,1479.3,completion,task,,,30573.7,30572.4,29060.1,29065.3,29093.1,30605.8,,blue
3,Fixation cross,canvas.Screen,2_0_11_0,2024-09-26T08:47:18.735Z,,red,,,498.6,timeout,task,,,31072.4,31071.4,30572.4,30573.7,30605.8,31104.4,,red
3,Stroop screen,canvas.Screen,2_0_11_1,2024-09-26T08:47:19.837Z,,red,TRUE,red,1067.8,response,task,red,keydown(r),32174.4,32172.2,31071.4,31072.6,31104.4,32202,,red
3,Inter-trial interval,canvas.Screen,2_0_11_2,2024-09-26T08:47:20.347Z,,red,,,514.8,timeout,task,,,32684.8,32683.6,32171.02,32174.7,32202,32716.8,,red
3,Trial,flow.Sequence,2_0_11,2024-09-26T08:47:20.347Z,,red,,,2077.8,completion,task,,,32685.1,32683.6,30572.4,30573.7,30605.8,32716.8,,red
3,Fixation cross,canvas.Screen,2_0_12_0,2024-09-26T08:47:20.845Z,,green,,,499,timeout,task,,,33182.9,33182,32683.6,32685.2,32716.8,33215.8,,orange
3,Stroop screen,canvas.Screen,2_0_12_1,2024-09-26T08:47:21.975Z,,green,TRUE,green,1095.5,response,task,green,keydown(g),34312.9,34311.3,33182,33183.1,33215.8,34345.7,,orange
3,Inter-trial interval,canvas.Screen,2_0_12_2,2024-09-26T08:47:22.487Z,,green,,,498.5,timeout,task,,,34824.6,34810.9,34312.4,34313.8,34345.7,34844.2,,orange
3,Trial,flow.Sequence,2_0_12,2024-09-26T08:47:22.487Z,,green,,,2094.1,completion,task,,,34824.9,34810.9,32683.6,32685.2,32716.8,34844.2,,orange
3,Fixation cross,canvas.Screen,2_0_13_0,2024-09-26T08:47:22.990Z,,green,,,515.2,timeout,task,,,35328,35326.3,34810.9,34825.2,34844.2,35359.4,,green
3,Stroop screen,canvas.Screen,2_0_13_1,2024-09-26T08:47:23.602Z,,green,TRUE,green,578.4,response,task,green,keydown(g),35939.5,35937.8,35326.3,35328.1,35359.4,35965.2,,green
3,Inter-trial interval,canvas.Screen,2_0_13_2,2024-09-26T08:47:24.089Z,,green,,,491.2,timeout,task,,,36426,36423.2,35926.04,35939.7,35965.2,36456.4,,green
3,Trial,flow.Sequence,2_0_13,2024-09-26T08:47:24.089Z,,green,,,1579,completion,task,,,36426.5,36423.2,34810.9,34825.2,34844.2,36456.4,,green
3,Fixation cross,canvas.Screen,2_0_14_0,2024-09-26T08:47:24.586Z,,blue,,,498.7,timeout,task,,,36923.2,36922.1,36423.2,36426.7,36456.4,36955.1,,orange
3,Stroop screen,canvas.Screen,2_0_14_1,2024-09-26T08:47:25.656Z,,blue,TRUE,blue,1037.3,response,task,blue,keydown(b),37993.9,37992.4,36922.1,36923.3,36955.1,38018.8,,orange
3,Inter-trial interval,canvas.Screen,2_0_14_2,2024-09-26T08:47:26.165Z,,blue,,,515.3,timeout,task,,,38502.6,38501,37988.39,37994.1,38018.8,38534.1,,orange
3,Trial,flow.Sequence,2_0_14,2024-09-26T08:47:26.165Z,,blue,,,2044.6,completion,task,,,38502.9,38501,36423.2,36426.6,36456.4,38534.1,,orange
3,Fixation cross,canvas.Screen,2_0_15_0,2024-09-26T08:47:26.680Z,,red,,,515.5,timeout,task,,,39017.1,39016.1,38501,38502.9,38534.1,39049.6,,red
3,Stroop screen,canvas.Screen,2_0_15_1,2024-09-26T08:47:27.403Z,,red,TRUE,red,689.8,response,task,red,keydown(r),39740.8,39739.4,39016.1,39017.3,39049.6,39764.1,,red
3,Inter-trial interval,canvas.Screen,2_0_15_2,2024-09-26T08:47:27.893Z,,red,,,498.7,timeout,task,,,40230.7,40229.6,39732.91,39741,39764.1,40262.8,,red
3,Trial,flow.Sequence,2_0_15,2024-09-26T08:47:27.893Z,,red,,,1695.5,completion,task,,,40230.9,40229.6,38501,38502.9,38534.1,40262.8,,red
3,Fixation cross,canvas.Screen,2_0_16_0,2024-09-26T08:47:28.408Z,,red,,,515.2,timeout,task,,,40745.8,40744.7,40229.6,40231.1,40262.8,40778,,blue
3,Stroop screen,canvas.Screen,2_0_16_1,2024-09-26T08:47:29.344Z,,red,TRUE,red,902.3,response,task,red,keydown(r),41681.8,41680.3,40744.7,40746,40778,41708.9,,blue
3,Inter-trial interval,canvas.Screen,2_0_16_2,2024-09-26T08:47:29.838Z,,red,,,498.4,timeout,task,,,42175.4,42174.3,41677.96,41681.9,41708.9,42207.3,,blue
3,Trial,flow.Sequence,2_0_16,2024-09-26T08:47:29.838Z,,red,,,1911.5,completion,task,,,42175.6,42174.3,40229.6,40231,40262.8,42207.3,,blue
3,Fixation cross,canvas.Screen,2_0_17_0,2024-09-26T08:47:30.337Z,,red,,,498.9,timeout,task,,,42674.2,42673,42174.3,42175.7,42207.3,42706.2,,orange
3,Stroop screen,canvas.Screen,2_0_17_1,2024-09-26T08:47:31.266Z,,red,TRUE,red,896.6,response,task,red,keydown(r),43603.7,43602.8,42673,42674.4,42706.2,43636.7,,orange
3,Inter-trial interval,canvas.Screen,2_0_17_2,2024-09-26T08:47:31.767Z,,red,,,499,timeout,task,,,44104.1,44103.1,43603.8,43603.8,43636.7,44135.7,,orange
3,Trial,flow.Sequence,2_0_17,2024-09-26T08:47:31.767Z,,red,,,1895.8,completion,task,,,44104.3,44103.1,42174.3,42175.7,42207.3,44135.7,,orange
3,Fixation cross,canvas.Screen,2_0_18_0,2024-09-26T08:47:32.281Z,,orange,,,515,timeout,task,,,44618.5,44617.5,44103.1,44104.5,44135.7,44650.7,,orange
3,Stroop screen,canvas.Screen,2_0_18_1,2024-09-26T08:47:32.888Z,,orange,TRUE,orange,573.7,response,task,orange,keydown(o),45225.8,45224.4,44617.5,44618.8,44650.7,45249.3,,orange
3,Inter-trial interval,canvas.Screen,2_0_18_2,2024-09-26T08:47:33.378Z,,orange,,,498.6,timeout,task,,,45715.6,45714.5,45217.34,45226,45249.3,45747.9,,orange
3,Trial,flow.Sequence,2_0_18,2024-09-26T08:47:33.378Z,,orange,,,1578.8,completion,task,,,45715.9,45714.5,44103.1,44104.5,44135.7,45747.9,,orange
3,Fixation cross,canvas.Screen,2_0_19_0,2024-09-26T08:47:33.877Z,,blue,,,498.7,timeout,task,,,46214.4,46213.4,45714.5,45716,45747.9,46246.6,,blue
3,Stroop screen,canvas.Screen,2_0_19_1,2024-09-26T08:47:34.517Z,,blue,TRUE,blue,606.1,response,task,blue,keydown(b),46854.4,46852.7,46213.4,46214.6,46246.6,46878,,blue
3,Inter-trial interval,canvas.Screen,2_0_19_2,2024-09-26T08:47:35.007Z,,blue,,,498.8,timeout,task,,,47344.6,47343.6,46846.58,46854.6,46878,47376.8,,blue
3,Trial,flow.Sequence,2_0_19,2024-09-26T08:47:35.007Z,,blue,,,1595.7,completion,task,,,47344.9,47343.6,45714.5,45716,45747.9,47376.8,,blue
3,Fixation cross,canvas.Screen,2_0_20_0,2024-09-26T08:47:35.506Z,,orange,,,498.6,timeout,task,,,47843.3,47842.3,47343.6,47345,47376.8,47875.4,,blue
3,Stroop screen,canvas.Screen,2_0_20_1,2024-09-26T08:47:36.353Z,,orange,TRUE,orange,813.9,response,task,orange,keydown(o),48690.5,48689.3,47842.3,47843.5,47875.4,48723.2,,blue
3,Inter-trial interval,canvas.Screen,2_0_20_2,2024-09-26T08:47:36.852Z,,orange,,,498.5,timeout,task,,,49189.6,49188.6,48692.03,48690.8,48723.2,49221.7,,blue
3,Trial,flow.Sequence,2_0_20,2024-09-26T08:47:36.852Z,,orange,,,1811.8,completion,task,,,49189.8,49188.6,47343.6,47345,47376.8,49221.7,,blue
3,Fixation cross,canvas.Screen,2_0_21_0,2024-09-26T08:47:37.350Z,,orange,,,498.5,timeout,task,,,49687.9,49687.1,49188.6,49189.9,49221.7,49720.2,,red
3,Stroop screen,canvas.Screen,2_0_21_1,2024-09-26T08:47:39.011Z,,orange,TRUE,orange,1627,response,task,orange,keydown(o),51348.6,51347.2,49687.1,49688,49720.2,51382.6,,red
3,Inter-trial interval,canvas.Screen,2_0_21_2,2024-09-26T08:47:39.512Z,,orange,,,498.6,timeout,task,,,51849.1,51848,51349.1,51348.8,51382.6,51881.2,,red
3,Trial,flow.Sequence,2_0_21,2024-09-26T08:47:39.512Z,,orange,,,2626.3,completion,task,,,51849.4,51848,49188.6,49189.9,49221.7,51881.2,,red
3,Fixation cross,canvas.Screen,2_0_22_0,2024-09-26T08:47:40.010Z,,green,,,498.4,timeout,task,,,52347.5,52346.3,51848,51849.6,51881.2,52379.6,,blue
3,Stroop screen,canvas.Screen,2_0_22_1,2024-09-26T08:47:40.956Z,,green,TRUE,green,913,response,task,green,keydown(g),53293.9,53292.6,52346.3,52347.7,52379.6,53327.2,,blue
3,Inter-trial interval,canvas.Screen,2_0_22_2,2024-09-26T08:47:41.456Z,,green,,,498.3,timeout,task,,,53793.8,53792.6,53294,53294.2,53327.2,53825.5,,blue
3,Trial,flow.Sequence,2_0_22,2024-09-26T08:47:41.457Z,,green,,,1911.4,completion,task,,,53794,53792.6,51848,51849.5,51881.2,53825.5,,blue
3,Fixation cross,canvas.Screen,2_0_23_0,2024-09-26T08:47:41.955Z,,blue,,,499,timeout,task,,,54292.4,54291.3,53792.6,53794.1,53825.5,54324.5,,green
3,Stroop screen,canvas.Screen,2_0_23_1,2024-09-26T08:47:42.995Z,,blue,TRUE,blue,1005.7,response,task,blue,keydown(b),55332.3,55330.2,54291.3,54292.5,54324.5,55355.1,,green
3,Inter-trial interval,canvas.Screen,2_0_23_2,2024-09-26T08:47:43.484Z,,blue,,,498.7,timeout,task,,,55821.4,55820.2,55324.46,55332.4,55355.1,55853.8,,green
3,Trial,flow.Sequence,2_0_23,2024-09-26T08:47:43.484Z,,blue,,,1994.7,completion,task,,,55821.7,55820.2,53792.6,53794.1,53825.5,55853.8,,green
3,Stroop task,flow.Loop,2_0,2024-09-26T08:47:43.485Z,,,,,46157.4,completion,,,,55822.1,55820.2,9629.7,9611.9,9662.8,55853.8,,
3,Task frame,canvas.Frame,2,2024-09-26T08:47:43.485Z,,,,,46159.4,,,,,55822.4,55822.2,9629.7,9610.9,9662.8,55886.8,,
3,Thanks,html.Screen,3,2024-09-26T08:47:43.550Z,,,,,33.4,timeout,,,,55887.8,55887.5,55853.8,55822.6,55886.8,55920.2,,
3,root,flow.Sequence,,2024-09-26T08:47:43.551Z,,,,,55383.1,completion,,,,55888.6,55887.5,472.284,479.4,504.4,55920.2,,
4,Instruction,html.Screen,0,2024-09-26T08:47:51.470Z,"{""labjs_version"":""20.2.4"",""labjs_build"":{""flavor"":""development"",""commit"":""f5b4a49f956347addd546a832a3327688c2c0fef""},""location"":""https://labjs.felixhenninger.com/api/labjs_preview/index.html"",""userAgent"":""Mozilla/5.0 (Windows NT 10.0; Win64; x64) AppleWebKit/537.36 (KHTML, like Gecko) Chrome/128.0.0.0 Safari/537.36"",""platform"":""Win32"",""language"":""zh-CN"",""locale"":""zh-CN"",""timeZone"":""Europe/Paris"",""timezoneOffset"":-120,""screen_width"":1494,""screen_height"":934,""scroll_width"":1024,""scroll_height"":648,""window_innerWidth"":1024,""window_innerHeight"":696,""devicePixelRatio"":1.5}",,,,23188,response,,continue,keypress(Space),23477.2,23468.3,263.666,363.3,280.3,23393.4,{},
4,Fixation cross,canvas.Screen,1_0_0_0,2024-09-26T08:47:51.963Z,,blue,,,500.1,timeout,practice,,,23970.3,23877,23379.32,23479.5,23393.4,23893.5,,blue
4,Stroop screen,canvas.Screen,1_0_0_1,2024-09-26T08:47:54.051Z,,blue,TRUE,blue,2163.3,response,practice,blue,keydown(b),26058.2,26056.8,23877,23970.6,23893.5,25976.6,,blue
4,Inter-trial interval,canvas.Screen,1_0_0_2,2024-09-26T08:47:54.546Z,,blue,,,499.8,timeout,practice,,,26552.5,26459.8,25959.3,26058.4,25976.6,26476.4,,blue
4,Trial,flow.Sequence,1_0_0,2024-09-26T08:47:54.546Z,,blue,,,3066.4,completion,practice,,,26552.9,26459.8,23379.32,23479.5,23393.4,26476.4,,blue
4,Fixation cross,canvas.Screen,1_0_1_0,2024-09-26T08:47:55.046Z,,orange,,,500,timeout,practice,,,27052.5,26959.6,26459.8,26553.2,26476.4,26976.4,,orange
4,Stroop screen,canvas.Screen,1_0_1_1,2024-09-26T08:47:55.818Z,,orange,TRUE,orange,847.7,response,practice,orange,keydown(o),27825.2,27824.1,26959.6,27052.8,26976.4,27742.8,,orange
4,Inter-trial interval,canvas.Screen,1_0_1_2,2024-09-26T08:47:56.312Z,,orange,,,500,timeout,practice,,,28318.8,28226.1,27726.7,27825.4,27742.8,28242.8,,orange
4,Trial,flow.Sequence,1_0_1,2024-09-26T08:47:56.312Z,,orange,,,1749.7,completion,practice,,,28319,28226.1,26459.8,26553.2,26476.4,28242.8,,orange
4,Fixation cross,canvas.Screen,1_0_2_0,2024-09-26T08:47:56.812Z,,red,,,500,timeout,practice,,,28819,28726,28226.1,28319.3,28242.8,28742.8,,red
4,Stroop screen,canvas.Screen,1_0_2_1,2024-09-26T08:47:57.638Z,,red,TRUE,red,901.4,response,practice,red,keydown(r),29645.4,29644.2,28726,28819,28742.8,29559.2,,red
4,Inter-trial interval,canvas.Screen,1_0_2_2,2024-09-26T08:47:58.129Z,,red,,,500.1,timeout,practice,,,30136.2,30042.5,29542.4,29645.6,29559.2,30059.3,,red
4,Trial,flow.Sequence,1_0_2,2024-09-26T08:47:58.129Z,,red,,,1799.7,completion,practice,,,30136.5,30042.5,28226.1,28319.2,28242.8,30059.3,,red
4,Fixation cross,canvas.Screen,1_0_3_0,2024-09-26T08:47:58.629Z,,green,,,499.9,timeout,practice,,,30635.5,30542.6,30042.5,30136.5,30059.3,30559.2,,green
4,Stroop screen,canvas.Screen,1_0_3_1,2024-09-26T08:47:59.166Z,,green,TRUE,green,612.5,response,practice,green,keydown(g),31172.8,31171.7,30542.6,30635.7,30559.2,31092.4,,green
4,Inter-trial interval,canvas.Screen,1_0_3_2,2024-09-26T08:47:59.662Z,,green,,,499.8,timeout,practice,,,31669,31575.8,31076.1,31172.8,31092.4,31592.2,,green
4,Trial,flow.Sequence,1_0_3,2024-09-26T08:47:59.662Z,,green,,,1516.5,completion,practice,,,31669.3,31575.8,30042.5,30136.5,30059.3,31592.2,,green
4,Practice task,flow.Loop,1_0,2024-09-26T08:47:59.663Z,,,,,8182.4,completion,,,,31669.5,31575.8,23379.32,23479.5,23393.4,31592.2,,
4,Practice frame,canvas.Frame,1,2024-09-26T08:47:59.672Z,,,,,8285.4,,,,,31678.9,31678.8,23379.32,23477.4,23393.4,31608.9,,
4,Fixation cross,canvas.Screen,2_0_0_0,2024-09-26T08:48:00.178Z,,red,,,500.1,timeout,task,,,32185.4,32092.3,31592.2,31679.4,31608.9,32109,,red
4,Stroop screen,canvas.Screen,2_0_0_1,2024-09-26T08:48:01.310Z,,red,TRUE,red,1206.2,response,task,red,keydown(r),33317.4,33315.2,32092.3,32185.7,32109,33242,,red
4,Inter-trial interval,canvas.Screen,2_0_0_2,2024-09-26T08:48:01.811Z,,red,,,500.1,timeout,task,,,33817.9,33725.3,33225.9,33317.5,33242,33742.1,,red
4,Trial,flow.Sequence,2_0_0,2024-09-26T08:48:01.811Z,,red,,,2116.4,completion,task,,,33818.1,33725.3,31592.2,31679.4,31608.9,33742.1,,red
4,Fixation cross,canvas.Screen,2_0_1_0,2024-09-26T08:48:02.311Z,,green,,,500.2,timeout,task,,,34318,34225.2,33725.3,33818.3,33742.1,34242.3,,green
4,Stroop screen,canvas.Screen,2_0_1_1,2024-09-26T08:48:03.025Z,,green,TRUE,green,789.2,response,task,green,keydown(g),35032.3,35031.5,34225.2,34318.1,34242.3,34959.3,,green
4,Inter-trial interval,canvas.Screen,2_0_1_2,2024-09-26T08:48:03.527Z,,green,,,499.5,timeout,task,,,35534.3,35441.8,34925.1,35032.4,34959.3,35458.8,,green
4,Trial,flow.Sequence,2_0_1,2024-09-26T08:48:03.527Z,,green,,,1699.7,completion,task,,,35534.5,35441.8,33725.3,33818.2,33742.1,35458.8,,green
4,Fixation cross,canvas.Screen,2_0_2_0,2024-09-26T08:48:04.027Z,,green,,,499.9,timeout,task,,,36034.2,35941.5,35441.8,35534.5,35458.8,35958.7,,green
4,Stroop screen,canvas.Screen,2_0_2_1,2024-09-26T08:48:04.646Z,,green,TRUE,green,692.9,response,task,green,keydown(g),36652.7,36651.6,35941.5,36034.3,35958.7,36574.9,,green
4,Inter-trial interval,canvas.Screen,2_0_2_2,2024-09-26T08:48:05.144Z,,green,,,499.9,timeout,task,,,37151.3,37058.1,36558.8,36652.8,36574.9,37074.8,,green
4,Trial,flow.Sequence,2_0_2,2024-09-26T08:48:05.145Z,,green,,,1599.3,completion,task,,,37151.7,37058.1,35441.8,35534.5,35458.8,37074.8,,green
4,Fixation cross,canvas.Screen,2_0_3_0,2024-09-26T08:48:05.644Z,,orange,,,500.1,timeout,task,,,37651,37558,37058.1,37151.7,37074.8,37574.9,,blue
4,Stroop screen,canvas.Screen,2_0_3_1,2024-09-26T08:48:06.450Z,,orange,TRUE,orange,881.7,response,task,orange,keydown(o),38457.3,38456.6,37558,37651.2,37574.9,38374.7,,blue
4,Inter-trial interval,canvas.Screen,2_0_3_2,2024-09-26T08:48:06.944Z,,orange,,,499.9,timeout,task,,,38951.5,38858.2,38357.9,38457.4,38374.7,38874.6,,blue
4,Trial,flow.Sequence,2_0_3,2024-09-26T08:48:06.944Z,,orange,,,1783.4,completion,task,,,38951.8,38858.2,37058.1,37151.7,37074.8,38874.6,,blue
4,Fixation cross,canvas.Screen,2_0_4_0,2024-09-26T08:48:07.443Z,,green,,,500.1,timeout,task,,,39450.2,39357.7,38858.2,38951.9,38874.6,39374.7,,orange
4,Stroop screen,canvas.Screen,2_0_4_1,2024-09-26T08:48:08.627Z,,green,TRUE,green,1258.7,response,task,green,keydown(g),40634.7,40633.4,39357.7,39450.3,39374.7,40557.5,,orange
4,Inter-trial interval,canvas.Screen,2_0_4_2,2024-09-26T08:48:09.126Z,,green,,,500,timeout,task,,,41133.9,41040.9,40541.4,40634.8,40557.5,41057.5,,orange
4,Trial,flow.Sequence,2_0_4,2024-09-26T08:48:09.127Z,,green,,,2166.3,completion,task,,,41134.2,41040.9,38858.2,38951.9,38874.6,41057.5,,orange
4,Fixation cross,canvas.Screen,2_0_5_0,2024-09-26T08:48:09.627Z,,orange,,,500,timeout,task,,,41634,41540.9,41040.9,41134.3,41057.5,41557.5,,green
4,Stroop screen,canvas.Screen,2_0_5_1,2024-09-26T08:48:10.457Z,,orange,TRUE,orange,906,response,task,orange,keydown(o),42464.5,42463.5,41540.9,41634.2,41557.5,42392.2,,green
4,Inter-trial interval,canvas.Screen,2_0_5_2,2024-09-26T08:48:10.959Z,,orange,,,498.5,timeout,task,,,42966.8,42874,42357.1,42464.6,42392.2,42890.7,,green
4,Trial,flow.Sequence,2_0_5,2024-09-26T08:48:10.960Z,,orange,,,1816.5,completion,task,,,42967,42874,41040.9,41134.2,41057.5,42890.7,,green
4,Fixation cross,canvas.Screen,2_0_6_0,2024-09-26T08:48:11.459Z,,orange,,,500.1,timeout,task,,,43466.9,43373.8,42874,42967.2,42890.7,43390.8,,orange
4,Stroop screen,canvas.Screen,2_0_6_1,2024-09-26T08:48:12.206Z,,orange,TRUE,orange,821.9,response,task,orange,keydown(o),44213.9,44212.7,43373.8,43467.2,43390.8,44141,,orange
4,Inter-trial interval,canvas.Screen,2_0_6_2,2024-09-26T08:48:12.709Z,,orange,,,499.3,timeout,task,,,44716.8,44623.8,44107.6,44214,44141,44640.3,,orange
4,Trial,flow.Sequence,2_0_6,2024-09-26T08:48:12.710Z,,orange,,,1733.1,completion,task,,,44717,44623.8,42874,42967.1,42890.7,44640.3,,orange
4,Fixation cross,canvas.Screen,2_0_7_0,2024-09-26T08:48:13.209Z,,red,,,500,timeout,task,,,45216.8,45123.7,44623.8,44717.1,44640.3,45140.3,,orange
4,Stroop screen,canvas.Screen,2_0_7_1,2024-09-26T08:48:14.084Z,,red,TRUE,red,949.3,response,task,red,keydown(r),46091.1,46089.6,45123.7,45216.9,45140.3,46006.8,,orange
4,Inter-trial interval,canvas.Screen,2_0_7_2,2024-09-26T08:48:14.575Z,,red,,,500.3,timeout,task,,,46582.8,46490.1,45989.9,46091.2,46006.8,46507.1,,orange
4,Trial,flow.Sequence,2_0_7,2024-09-26T08:48:14.576Z,,red,,,1849.8,completion,task,,,46583.1,46490.1,44623.8,44717.1,44640.3,46507.1,,orange
4,Fixation cross,canvas.Screen,2_0_8_0,2024-09-26T08:48:15.075Z,,red,,,499.6,timeout,task,,,47082.6,46990,46490.1,46583.2,46507.1,47006.7,,green
4,Stroop screen,canvas.Screen,2_0_8_1,2024-09-26T08:48:15.917Z,,red,TRUE,red,917.1,response,task,red,keydown(r),47924.9,47923.8,46990,47082.8,47006.7,47839.8,,green
4,Inter-trial interval,canvas.Screen,2_0_8_2,2024-09-26T08:48:16.409Z,,red,,,500.1,timeout,task,,,48416.1,48323.1,47823.6,47925,47839.8,48339.9,,green
4,Trial,flow.Sequence,2_0_8,2024-09-26T08:48:16.409Z,,red,,,1816,completion,task,,,48416.3,48323.1,46490.1,46583.1,46507.1,48339.9,,green
4,Fixation cross,canvas.Screen,2_0_9_0,2024-09-26T08:48:16.908Z,,blue,,,499.8,timeout,task,,,48915.8,48823,48323.1,48416.4,48339.9,48839.7,,blue
4,Stroop screen,canvas.Screen,2_0_9_1,2024-09-26T08:48:17.776Z,,blue,TRUE,blue,942,response,task,blue,keydown(b),49783,49781.7,48823,48915.9,48839.7,49706.6,,blue
4,Inter-trial interval,canvas.Screen,2_0_9_2,2024-09-26T08:48:18.275Z,,blue,,,499.6,timeout,task,,,50282.4,50189.6,49689.6,49783.1,49706.6,50206.2,,blue
4,Trial,flow.Sequence,2_0_9,2024-09-26T08:48:18.275Z,,blue,,,1849.7,completion,task,,,50282.7,50189.6,48323.1,48416.4,48339.9,50206.2,,blue
4,Fixation cross,canvas.Screen,2_0_10_0,2024-09-26T08:48:18.775Z,,green,,,499.9,timeout,task,,,50782.6,50689.4,50189.6,50282.8,50206.2,50706.1,,green
4,Stroop screen,canvas.Screen,2_0_10_1,2024-09-26T08:48:19.634Z,,green,TRUE,green,933.7,response,task,green,keydown(g),51640.9,51639.8,50689.4,50782.9,50706.1,51555.9,,green
4,Inter-trial interval,canvas.Screen,2_0_10_2,2024-09-26T08:48:20.125Z,,green,,,500,timeout,task,,,52132.7,52039.3,51539.8,51641.1,51555.9,52055.9,,green
4,Trial,flow.Sequence,2_0_10,2024-09-26T08:48:20.125Z,,green,,,1833.1,completion,task,,,52132.9,52039.3,50189.6,50282.7,50206.2,52055.9,,green
4,Fixation cross,canvas.Screen,2_0_11_0,2024-09-26T08:48:20.624Z,,blue,,,499.9,timeout,task,,,52631.9,52539.2,52039.3,52133,52055.9,52555.8,,orange
4,Stroop screen,canvas.Screen,2_0_11_1,2024-09-26T08:48:21.466Z,,blue,TRUE,blue,916.7,response,task,blue,keydown(b),53473.7,53472.5,52539.2,52632.1,52555.8,53388.9,,orange
4,Inter-trial interval,canvas.Screen,2_0_11_2,2024-09-26T08:48:21.958Z,,blue,,,500.1,timeout,task,,,53965.3,53872.4,53372.7,53473.9,53388.9,53889,,orange
4,Trial,flow.Sequence,2_0_11,2024-09-26T08:48:21.958Z,,blue,,,1816.5,completion,task,,,53965.6,53872.4,52039.3,52133,52055.9,53889,,orange
4,Fixation cross,canvas.Screen,2_0_12_0,2024-09-26T08:48:22.457Z,,blue,,,499.7,timeout,task,,,54464.6,54372.2,53872.4,53965.8,53889,54388.7,,blue
4,Stroop screen,canvas.Screen,2_0_12_1,2024-09-26T08:48:22.919Z,,blue,TRUE,blue,537,response,task,blue,keydown(b),54926.7,54925.7,54372.2,54464.7,54388.7,54838.7,,blue
4,Inter-trial interval,canvas.Screen,2_0_12_2,2024-09-26T08:48:23.407Z,,blue,,,500,timeout,task,,,55414.4,55322,54822,54926.9,54838.7,55338.7,,blue
4,Trial,flow.Sequence,2_0_12,2024-09-26T08:48:23.407Z,,blue,,,1433,completion,task,,,55414.6,55322,53872.4,53965.8,53889,55338.7,,blue
4,Fixation cross,canvas.Screen,2_0_13_0,2024-09-26T08:48:23.907Z,,red,,,500,timeout,task,,,55914.8,55822,55322,55414.7,55338.7,55838.7,,red
4,Stroop screen,canvas.Screen,2_0_13_1,2024-09-26T08:48:24.554Z,,red,TRUE,red,721.8,response,task,red,keydown(r),56561.8,56560.5,55822,55915.1,55838.7,56471.8,,red
4,Inter-trial interval,canvas.Screen,2_0_13_2,2024-09-26T08:48:25.041Z,,red,,,500,timeout,task,,,57048.4,56955.2,56455.3,56561.9,56471.8,56971.8,,red
4,Trial,flow.Sequence,2_0_13,2024-09-26T08:48:25.041Z,,red,,,1616.5,completion,task,,,57048.5,56955.2,55322,55414.7,55338.7,56971.8,,red
4,Fixation cross,canvas.Screen,2_0_14_0,2024-09-26T08:48:25.541Z,,orange,,,499.9,timeout,task,,,57547.9,57455.1,56955.2,57048.6,56971.8,57471.7,,orange
4,Stroop screen,canvas.Screen,2_0_14_1,2024-09-26T08:48:26.182Z,,orange,TRUE,orange,716.6,response,task,orange,keydown(o),58189.3,58188.3,57455.1,57548.2,57471.7,58104.8,,orange
4,Inter-trial interval,canvas.Screen,2_0_14_2,2024-09-26T08:48:26.673Z,,orange,,,500.1,timeout,task,,,58680.6,58588.3,58088.4,58189.5,58104.8,58604.9,,orange
4,Trial,flow.Sequence,2_0_14,2024-09-26T08:48:26.673Z,,orange,,,1616.5,completion,task,,,58680.8,58588.3,56955.2,57048.6,56971.8,58604.9,,orange
4,Fixation cross,canvas.Screen,2_0_15_0,2024-09-26T08:48:27.174Z,,blue,,,499.8,timeout,task,,,59181.2,59088.2,58588.3,58681,58604.9,59104.7,,green
4,Stroop screen,canvas.Screen,2_0_15_1,2024-09-26T08:48:28.459Z,,blue,TRUE,blue,1360.7,response,task,blue,keydown(b),60466,60465.4,59088.2,59181.4,59104.7,60387.9,,green
4,Inter-trial interval,canvas.Screen,2_0_15_2,2024-09-26T08:48:28.957Z,,blue,,,499.9,timeout,task,,,60964.3,60871.4,60371.4,60466.1,60387.9,60887.8,,green
4,Trial,flow.Sequence,2_0_15,2024-09-26T08:48:28.957Z,,blue,,,2266.5,completion,task,,,60964.5,60871.4,58588.3,58680.9,58604.9,60887.8,,green
4,Fixation cross,canvas.Screen,2_0_16_0,2024-09-26T08:48:29.456Z,,blue,,,500.1,timeout,task,,,61463.8,61371.1,60871.4,60964.7,60887.8,61387.9,,blue
4,Stroop screen,canvas.Screen,2_0_16_1,2024-09-26T08:48:29.970Z,,blue,TRUE,blue,588.1,response,task,blue,keydown(b),61977.1,61976,61371.1,61464,61387.9,61887.6,,blue
4,Inter-trial interval,canvas.Screen,2_0_16_2,2024-09-26T08:48:30.457Z,,blue,,,500,timeout,task,,,62464.5,62371.4,61871.1,61977.1,61887.6,62387.6,,blue
4,Trial,flow.Sequence,2_0_16,2024-09-26T08:48:30.457Z,,blue,,,1483.6,completion,task,,,62464.7,62371.4,60871.4,60964.6,60887.8,62387.6,,blue
4,Fixation cross,canvas.Screen,2_0_17_0,2024-09-26T08:48:30.956Z,,green,,,500.1,timeout,task,,,62963.6,62871,62371.4,62464.8,62387.6,62887.7,,red
4,Stroop screen,canvas.Screen,2_0_17_1,2024-09-26T08:48:31.964Z,,green,TRUE,green,1082.4,response,task,green,keydown(g),63971.2,63970.1,62871,62963.7,62887.7,63887.4,,red
4,Inter-trial interval,canvas.Screen,2_0_17_2,2024-09-26T08:48:32.456Z,,green,,,500.1,timeout,task,,,64463.2,64370.6,63870.6,63971.3,63887.4,64387.5,,red
4,Trial,flow.Sequence,2_0_17,2024-09-26T08:48:32.456Z,,green,,,1983,completion,task,,,64463.5,64370.6,62371.4,62464.8,62387.6,64387.5,,red
4,Fixation cross,canvas.Screen,2_0_18_0,2024-09-26T08:48:32.956Z,,orange,,,499.8,timeout,task,,,64963.5,64870.7,64370.6,64463.5,64387.5,64887.3,,orange
4,Stroop screen,canvas.Screen,2_0_18_1,2024-09-26T08:48:33.668Z,,orange,TRUE,orange,786.6,response,task,orange,keydown(o),65675.3,65673.9,64870.7,64963.6,64887.3,65587.5,,orange
4,Inter-trial interval,canvas.Screen,2_0_18_2,2024-09-26T08:48:34.156Z,,orange,,,499.7,timeout,task,,,66163.7,66070.6,65570.5,65675.5,65587.5,66087.2,,orange
4,Trial,flow.Sequence,2_0_18,2024-09-26T08:48:34.157Z,,orange,,,1683.1,completion,task,,,66164,66070.6,64370.6,64463.5,64387.5,66087.2,,orange
4,Fixation cross,canvas.Screen,2_0_19_0,2024-09-26T08:48:34.655Z,,red,,,499.9,timeout,task,,,66662.8,66570.3,66070.6,66164.1,66087.2,66587.1,,red
4,Stroop screen,canvas.Screen,2_0_19_1,2024-09-26T08:48:35.291Z,,red,TRUE,red,709.8,response,task,red,keydown(r),67298.3,67296.9,66570.3,66663,66587.1,67220.3,,red
4,Inter-trial interval,canvas.Screen,2_0_19_2,2024-09-26T08:48:35.788Z,,red,,,499.8,timeout,task,,,67795.8,67703.4,67203.6,67298.4,67220.3,67720.1,,red
4,Trial,flow.Sequence,2_0_19,2024-09-26T08:48:35.788Z,,red,,,1616.2,completion,task,,,67795.9,67703.4,66070.6,66164,66087.2,67720.1,,red
4,Fixation cross,canvas.Screen,2_0_20_0,2024-09-26T08:48:36.289Z,,blue,,,499.9,timeout,task,,,68296.6,68203.7,67703.4,67796,67720.1,68220,,red
4,Stroop screen,canvas.Screen,2_0_20_1,2024-09-26T08:48:36.799Z,,blue,TRUE,blue,585.6,response,task,blue,keydown(b),68806.5,68805.6,68203.7,68296.7,68220,68719.9,,red
4,Inter-trial interval,canvas.Screen,2_0_20_2,2024-09-26T08:48:37.288Z,,blue,,,500,timeout,task,,,69295.6,69203.3,68703.4,68806.6,68719.9,69219.9,,red
4,Trial,flow.Sequence,2_0_20,2024-09-26T08:48:37.288Z,,blue,,,1483.2,completion,task,,,69295.8,69203.3,67703.4,67796,67720.1,69219.9,,red
4,Fixation cross,canvas.Screen,2_0_21_0,2024-09-26T08:48:37.788Z,,green,,,500.1,timeout,task,,,69795.6,69703.1,69203.3,69296,69219.9,69720,,blue
4,Stroop screen,canvas.Screen,2_0_21_1,2024-09-26T08:48:38.516Z,,green,TRUE,green,802,response,task,green,keydown(g),70523.2,70522,69703.1,69795.8,69720,70436.2,,blue
4,Inter-trial interval,canvas.Screen,2_0_21_2,2024-09-26T08:48:39.005Z,,green,,,500.1,timeout,task,,,71012.9,70919.8,70419.7,70523.3,70436.2,70936.3,,blue
4,Trial,flow.Sequence,2_0_21,2024-09-26T08:48:39.006Z,,green,,,1699.9,completion,task,,,71013.3,70919.8,69203.3,69295.9,69219.9,70936.3,,blue
4,Fixation cross,canvas.Screen,2_0_22_0,2024-09-26T08:48:39.504Z,,red,,,500.2,timeout,task,,,71511.9,71419.5,70919.8,71013.4,70936.3,71436.5,,blue
4,Stroop screen,canvas.Screen,2_0_22_1,2024-09-26T08:48:40.167Z,,red,TRUE,red,737,response,task,red,keydown(r),72174.5,72173.5,71419.5,71512,71436.5,72086.1,,blue
4,Inter-trial interval,canvas.Screen,2_0_22_2,2024-09-26T08:48:40.654Z,,red,,,500,timeout,task,,,72661.9,72569.4,72070.3,72174.6,72086.1,72586.1,,blue
4,Trial,flow.Sequence,2_0_22,2024-09-26T08:48:40.655Z,,red,,,1633.1,completion,task,,,72662,72569.4,70919.8,71013.4,70936.3,72586.1,,blue
4,Fixation cross,canvas.Screen,2_0_23_0,2024-09-26T08:48:41.155Z,,orange,,,500,timeout,task,,,73162.1,73069.4,72569.4,72662.1,72586.1,73086.1,,red
4,Stroop screen,canvas.Screen,2_0_23_1,2024-09-26T08:48:42.153Z,,orange,TRUE,orange,1072.6,response,task,orange,keydown(o),74160,74158.7,73069.4,73162.3,73086.1,74102.6,,red
4,Inter-trial interval,canvas.Screen,2_0_23_2,2024-09-26T08:48:42.671Z,,orange,,,499.8,timeout,task,,,74678,74585.8,74086.6,74160.2,74102.6,74602.4,,red
4,Trial,flow.Sequence,2_0_23,2024-09-26T08:48:42.671Z,,orange,,,1999.7,completion,task,,,74678.1,74585.8,72569.4,72662.1,72586.1,74602.4,,red
4,Stroop task,flow.Loop,2_0,2024-09-26T08:48:42.671Z,,,,,42976.9,completion,,,,74678.2,74585.8,31592.2,31679.4,31608.9,74602.4,,
4,Task frame,canvas.Frame,2,2024-09-26T08:48:42.671Z,,,,,43069.3,,,,,74678.2,74678.2,31592.2,31678.9,31608.9,74619.2,,
4,Thanks,html.Screen,3,2024-09-26T08:48:42.704Z,,,,,16.5,timeout,,,,74711.4,74711.3,74602.4,74678.3,74619.2,74635.7,,
4,root,flow.Sequence,,2024-09-26T08:48:42.705Z,,,,,74431,completion,,,,74712,74711.3,263.666,363.3,280.3,74635.7,,
6,Instruction,html.Screen,0,26-09-2024 10:47,"{""labjs_version"":""20.2.4"",""labjs_build"":{""flavor"":""development"",""commit"":""f5b4a49f956347addd546a832a3327688c2c0fef""},""location"":""https://labjs.felixhenninger.com/api/labjs_preview/index.html"",""userAgent"":""Mozilla/5.0 (Windows NT 10.0; Win64; x64) AppleWebKit/537.36 (KHTML, like Gecko) Chrome/128.0.0.0 Safari/537.36"",""platform"":""Win32"",""language"":""en-CA"",""locale"":""da"",""timeZone"":""Europe/Copenhagen"",""timezoneOffset"":-120,""screen_width"":1280,""screen_height"":800,""scroll_width"":724,""scroll_height"":634,""window_innerWidth"":724,""window_innerHeight"":682,""devicePixelRatio"":2}",,,,9158818,response,,continue,keypress(Space),9.75E+19,97425,583682,7.48E+18,583682,95942,{},
6,Fixation cross,canvas.Screen,1_0_0_0,26-09-2024 10:47,,red,,,350,timeout,practice,,,1.01E+21,1.01E+21,957591,97585,95942,99442,,red
6,Stroop screen,canvas.Screen,1_0_0_1,26-09-2024 10:47,,red,TRUE,red,1.04E+20,response,practice,red,keydown(r),1.10E+21,1.10E+21,1.01E+21,1.01E+21,99442,108347,,red
6,Inter-trial interval,canvas.Screen,1_0_0_2,26-09-2024 10:47,,red,,,3.61E+20,timeout,practice,,,1.14E+21,1.14E+21,108148,10984,108347,11195264,,red
6,Trial,flow.Sequence,1_0_0,26-09-2024 10:47,,red,,,1.78E+20,completion,practice,,,1.14E+21,1.14E+21,957591,9.76E+19,95942,11195264,,red
6,Fixation cross,canvas.Screen,1_0_1_0,26-09-2024 10:47,,blue,,,3.62E+20,timeout,practice,,,1.17E+21,1.17E+21,1.14E+21,1.14E+21,11195264,115575,,blue
6,Stroop screen,canvas.Screen,1_0_1_1,26-09-2024 10:47,,blue,TRUE,blue,8.99E+18,response,practice,blue,keydown(b),12458,1.25E+21,1.17E+21,1.17E+21,115575,123091,,blue
6,Inter-trial interval,canvas.Screen,1_0_1_2,26-09-2024 10:47,,blue,,,3.60E+19,timeout,practice,,,128465,1.28E+21,122907,1.25E+21,123091,12669,,blue
6,Trial,flow.Sequence,1_0_1,26-09-2024 10:47,,blue,,,1.65E+21,completion,practice,,,12847,1.28E+21,1.14E+21,1.14E+21,11195264,12669,,blue
6,Fixation cross,canvas.Screen,1_0_2_0,26-09-2024 10:47,,orange,,,5.06E+19,timeout,practice,,,1.33E+21,131587,1.28E+21,1.28E+21,12669,131754,,orange
6,Stroop screen,canvas.Screen,1_0_2_1,26-09-2024 10:47,,orange,TRUE,orange,8.52E+18,response,practice,orange,keydown(o),1.40E+21,1.40E+21,131587,1.33E+21,131754,138798,,orange
6,Inter-trial interval,canvas.Screen,1_0_2_2,26-09-2024 10:47,,orange,,,3.08E+19,timeout,practice,,,1.44E+21,1.44E+21,138586,1.40E+21,138798,141882,,orange
6,Trial,flow.Sequence,1_0_2,26-09-2024 10:47,,orange,,,1.69E+19,completion,practice,,,1.44E+21,1.44E+21,1.28E+21,1.28E+21,12669,141882,,orange
6,Fixation cross,canvas.Screen,1_0_3_0,26-09-2024 10:47,,green,,,3.03E+20,timeout,practice,,,14666,1.47E+21,1.44E+21,1.44E+21,141882,14491028,,green
6,Stroop screen,canvas.Screen,1_0_3_1,26-09-2024 10:47,,green,TRUE,green,8.27E+20,response,practice,green,keydown(g),1.53E+21,1.53E+21,1.47E+21,1.47E+21,14491028,151707,,green
6,Inter-trial interval,canvas.Screen,1_0_3_2,26-09-2024 10:47,,green,,,3.70E+19,timeout,practice,,,15707,1.57E+21,151495,1.53E+21,151707,155411,,green
6,Trial,flow.Sequence,1_0_3,26-09-2024 10:47,,green,,,1.52E+19,completion,practice,,,1.57E+21,1.57E+21,1.44E+21,1.44E+21,141882,155411,,green
6,Practice task,flow.Loop,1_0,26-09-2024 10:47,,,,,6.11E+19,completion,,,,1.57E+21,1.57E+21,957591,9.76E+19,95942,155411,,
6,Practice frame,canvas.Frame,1,26-09-2024 10:47,,,,,6.11E+19,,,,,1.57E+21,1.57E+21,957591,9.75E+19,95942,155576,,
6,Fixation cross,canvas.Screen,2_0_0_0,26-09-2024 10:47,,orange,,,3.44E+18,timeout,task,,,1.61E+21,16081,155411,1.57E+21,155576,159014,,orange
6,Stroop screen,canvas.Screen,2_0_0_1,26-09-2024 10:47,,orange,TRUE,orange,1.01E+20,response,task,orange,keydown(o),1.69E+21,1.69E+20,16081,1.61E+21,159014,167615,,orange
6,Inter-trial interval,canvas.Screen,2_0_0_2,26-09-2024 10:47,,orange,,,4.92E+18,timeout,task,,,1.74E+21,17237,167346,1.69E+21,167615,172537,,orange
6,Trial,flow.Sequence,2_0_0,26-09-2024 10:47,,orange,,,1.68E+20,completion,task,,,174045,17237,155411,1.57E+21,155576,172537,,orange
6,Fixation cross,canvas.Screen,2_0_1_0,26-09-2024 10:47,,orange,,,3.59E+20,timeout,task,,,17786,1.78E+20,17237,1.74E+21,172537,17612264,,orange
6,Stroop screen,canvas.Screen,2_0_1_1,26-09-2024 10:47,,orange,TRUE,orange,7.78E+20,response,task,orange,keydown(o),1.84E+21,183905,1.78E+20,17786,17612264,182416,,orange
6,Inter-trial interval,canvas.Screen,2_0_1_2,26-09-2024 10:47,,orange,,,3.53E+20,timeout,task,,,1.88E+20,18763,182121,183915,182416,18594464,,orange
6,Trial,flow.Sequence,2_0_1,26-09-2024 10:47,,orange,,,1.51E+20,completion,task,,,1.88E+21,18763,17237,1.74E+21,172537,18594464,,orange
6,Fixation cross,canvas.Screen,2_0_2_0,26-09-2024 10:47,,green,,,3.11E+20,timeout,task,,,1.91E+21,19081,18763,187635,18594464,18905728,,green
6,Stroop screen,canvas.Screen,2_0_2_1,26-09-2024 10:47,,green,TRUE,green,1.22E+21,response,task,green,keydown(g),20132,20130,19081,1.91E+20,18905728,199835,,green
6,Inter-trial interval,canvas.Screen,2_0_2_2,26-09-2024 10:47,,green,,,3.06E+18,timeout,task,,,2.05E+20,2.05E+21,199646,2.01E+21,199835,202892,,green
6,Trial,flow.Sequence,2_0_2,26-09-2024 10:47,,green,,,1.87E+21,completion,task,,,20463,2.05E+21,18763,187635,18594464,202892,,green
6,Fixation cross,canvas.Screen,2_0_3_0,26-09-2024 10:47,,blue,,,3.54E+21,timeout,task,,,2.08E+21,2.08E+21,2.05E+21,2.05E+21,202892,20642864,,orange
6,Stroop screen,canvas.Screen,2_0_3_1,26-09-2024 10:47,,blue,TRUE,blue,1.50E+21,response,task,blue,keydown(b),2.21E+21,2.21E+21,2.08E+21,2.08E+21,20642864,219932,,orange
6,Inter-trial interval,canvas.Screen,2_0_3_2,26-09-2024 10:47,,blue,,,3.63E+20,timeout,task,,,2.25E+21,2.25E+21,219761,2.21E+20,219932,22355764,,orange
6,Trial,flow.Sequence,2_0_3,26-09-2024 10:47,,blue,,,2.24E+19,completion,task,,,2.25E+21,2.25E+21,2.05E+21,2.05E+21,202892,22355764,,orange
6,Fixation cross,canvas.Screen,2_0_4_0,26-09-2024 10:47,,green,,,3.11E+20,timeout,task,,,2.28E+20,22835,2.25E+21,2.25E+20,22355764,226667,,blue
6,Stroop screen,canvas.Screen,2_0_4_1,26-09-2024 10:47,,green,TRUE,green,1.45E+18,response,task,green,keydown(g),241205,2.41E+21,22835,228355,226667,23971,,blue
6,Inter-trial interval,canvas.Screen,2_0_4_2,26-09-2024 10:47,,green,,,3.56E+20,timeout,task,,,2.45E+21,2.45E+20,23950,2.41E+21,23971,24327364,,blue
6,Trial,flow.Sequence,2_0_4,26-09-2024 10:47,,green,,,2.14E+21,completion,task,,,2.45E+21,2.45E+20,2.25E+21,2.25E+20,22355764,24327364,,blue
6,Fixation cross,canvas.Screen,2_0_5_0,26-09-2024 10:47,,blue,,,3.63E+19,timeout,task,,,2.49E+21,2.49E+21,2.45E+20,2.45E+20,24327364,24689964,,blue
6,Stroop screen,canvas.Screen,2_0_5_1,26-09-2024 10:47,,blue,TRUE,blue,2.29E+20,response,task,blue,keydown(b),2.70E+21,2.70E+21,2.49E+21,2.49E+20,24689964,268321,,blue
6,Inter-trial interval,canvas.Screen,2_0_5_2,26-09-2024 10:47,,blue,,,3.61E+21,timeout,task,,,2.74E+21,2.74E+21,268014,269815,268321,27192764,,blue
6,Trial,flow.Sequence,2_0_5,26-09-2024 10:47,,blue,,,3.04E+21,completion,task,,,273685,2.74E+21,2.45E+20,2.45E+20,24327364,27192764,,blue
6,Fixation cross,canvas.Screen,2_0_6_0,26-09-2024 10:47,,orange,,,3.10E+20,timeout,task,,,2.77E+21,2.77E+20,2.74E+21,2.74E+21,27192764,27503028,,orange
6,Stroop screen,canvas.Screen,2_0_6_1,26-09-2024 10:47,,orange,TRUE,orange,8.53E+20,response,task,orange,keydown(o),2.84E+21,283565,2.77E+20,2.77E+21,27503028,282011,,orange
6,Inter-trial interval,canvas.Screen,2_0_6_2,26-09-2024 10:47,,orange,,,3.56E+20,timeout,task,,,2.87E+21,2.87E+21,281838,2.84E+21,282011,28557464,,orange
6,Trial,flow.Sequence,2_0_6,26-09-2024 10:47,,orange,,,1.54E+21,completion,task,,,2.87E+20,2.87E+21,2.74E+21,2.74E+21,27192764,28557464,,orange
6,Fixation cross,canvas.Screen,2_0_7_0,26-09-2024 10:47,,orange,,,3.13E+20,timeout,task,,,2.90E+21,29038,2.87E+21,2.87E+21,28557464,28870162,,red
6,Stroop screen,canvas.Screen,2_0_7_1,26-09-2024 10:47,,orange,TRUE,orange,1.05E+21,response,task,orange,keydown(o),2.99E+21,2.99E+21,29038,2.90E+21,28870162,297687,,red
6,Inter-trial interval,canvas.Screen,2_0_7_2,26-09-2024 10:47,,orange,,,3.52E+18,timeout,task,,,3.03E+21,3.03E+21,297402,2.99E+21,297687,30121,,red
6,Trial,flow.Sequence,2_0_7,26-09-2024 10:47,,orange,,,1.74E+21,completion,task,,,3.03E+21,3.03E+21,2.87E+21,2.87E+21,28557464,30121,,red
6,Fixation cross,canvas.Screen,2_0_8_0,26-09-2024 10:47,,blue,,,3.54E+20,timeout,task,,,30646,3.06E+21,3.03E+21,3.03E+21,30121,3047503,,red
6,Stroop screen,canvas.Screen,2_0_8_1,26-09-2024 10:47,,blue,TRUE,blue,1.19E+21,response,task,blue,keydown(b),31665,3.17E+21,3.06E+21,3.06E+20,3047503,315158,,red
6,Inter-trial interval,canvas.Screen,2_0_8_2,26-09-2024 10:47,,blue,,,3.70E+19,timeout,task,,,32052,320515,314838,3.17E+21,315158,318862,,red
6,Trial,flow.Sequence,2_0_8,26-09-2024 10:47,,blue,,,19305,completion,task,,,3.21E+20,320515,3.03E+21,303005,30121,318862,,red
6,Fixation cross,canvas.Screen,2_0_9_0,26-09-2024 10:47,,red,,,3.61E+20,timeout,task,,,32418,3.24E+21,320515,320525,318862,32246764,,blue
6,Stroop screen,canvas.Screen,2_0_9_1,26-09-2024 10:47,,red,TRUE,red,1.25E+21,response,task,red,keydown(r),33494,3.35E+20,3.24E+21,3.24E+21,32246764,333448,,blue
6,Inter-trial interval,canvas.Screen,2_0_9_2,26-09-2024 10:48,,red,,,3.53E+21,timeout,task,,,3.39E+20,3.39E+21,333264,3.35E+21,333448,33697964,,blue
6,Trial,flow.Sequence,2_0_9,26-09-2024 10:48,,red,,,1.98E+18,completion,task,,,33869,3.39E+21,320515,3.21E+21,318862,33697964,,blue
6,Fixation cross,canvas.Screen,2_0_10_0,26-09-2024 10:48,,blue,,,3.14E+20,timeout,task,,,3.42E+20,3.42E+20,3.39E+21,3.39E+20,33697964,340121,,green
6,Stroop screen,canvas.Screen,2_0_10_1,26-09-2024 10:48,,blue,TRUE,blue,1.59E+20,response,task,blue,keydown(b),3.56E+20,3.56E+21,3.42E+20,3.42E+20,340121,354543,,green
6,Inter-trial interval,canvas.Screen,2_0_10_2,26-09-2024 10:48,,blue,,,3.62E+21,timeout,task,,,3.60E+21,3.60E+20,354228,3.56E+20,354543,35816264,,green
6,Trial,flow.Sequence,2_0_10,26-09-2024 10:48,,blue,,,2.30E+20,completion,task,,,35995,3.60E+20,3.39E+21,3.39E+20,33697964,35816264,,green
6,Fixation cross,canvas.Screen,2_0_11_0,26-09-2024 10:48,,red,,,3.00E+20,timeout,task,,,3.63E+20,3.63E+21,3.60E+20,3.60E+20,35816264,36116162,,red
6,Stroop screen,canvas.Screen,2_0_11_1,26-09-2024 10:48,,red,TRUE,red,1.22E+21,response,task,red,keydown(r),3.73E+20,373385,3.63E+21,3.63E+20,36116162,371923,,red
6,Inter-trial interval,canvas.Screen,2_0_11_2,26-09-2024 10:48,,red,,,3.03E+18,timeout,task,,,3.77E+20,3.77E+20,371637,3.73E+20,371923,374952,,red
6,Trial,flow.Sequence,2_0_11,26-09-2024 10:48,,red,,,1.85E+20,completion,task,,,3.77E+20,3.77E+20,3.60E+20,3.60E+20,35816264,374952,,red
6,Fixation cross,canvas.Screen,2_0_12_0,26-09-2024 10:48,,green,,,3465,timeout,task,,,3.80E+20,3.80E+20,3.77E+20,3.77E+20,374952,378417,,red
6,Stroop screen,canvas.Screen,2_0_12_1,26-09-2024 10:48,,green,TRUE,green,1.96E+20,response,task,green,keydown(g),3.98E+21,3.98E+20,3.80E+20,3.80E+20,378417,396764,,red
6,Inter-trial interval,canvas.Screen,2_0_12_2,26-09-2024 10:48,,green,,,3.82E+19,timeout,task,,,4.02E+20,4.02E+20,396571,3.98E+20,396764,400583,,red
6,Trial,flow.Sequence,2_0_12,26-09-2024 10:48,,green,,,2.71E+20,completion,task,,,4.02E+20,4.02E+20,3.77E+20,3.77E+20,374952,400583,,red
6,Fixation cross,canvas.Screen,2_0_13_0,26-09-2024 10:48,,green,,,367,timeout,task,,,4.06E+20,40592,4.02E+20,4.02E+20,400583,404253,,green
6,Stroop screen,canvas.Screen,2_0_13_1,26-09-2024 10:48,,green,TRUE,green,1.14E+20,response,task,green,keydown(g),4.16E+21,4.16E+21,40592,4.06E+20,404253,414227,,green
6,Inter-trial interval,canvas.Screen,2_0_13_2,26-09-2024 10:48,,green,,,494,timeout,task,,,4.21E+20,419007,413921,4.16E+20,414227,419167,,green
6,Trial,flow.Sequence,2_0_13,26-09-2024 10:48,,green,,,1.84E+20,completion,task,,,4.21E+20,419007,4.02E+20,4.02E+20,400583,419167,,green
6,Fixation cross,canvas.Screen,2_0_14_0,26-09-2024 10:48,,red,,,507,timeout,task,,,4.26E+20,424075,419007,4.21E+20,419167,424237,,red
6,Stroop screen,canvas.Screen,2_0_14_1,26-09-2024 10:48,,red,TRUE,red,9.99E+18,response,task,red,keydown(r),4.34E+20,4.34E+20,424075,425755,424237,432755,,red
6,Inter-trial interval,canvas.Screen,2_0_14_2,26-09-2024 10:48,,red,,,505,timeout,task,,,4.39E+21,437638,432571,4.34E+20,432755,437805,,red
6,Trial,flow.Sequence,2_0_14,26-09-2024 10:48,,red,,,1.85E+20,completion,task,,,4.39E+20,437638,419007,4.21E+20,419167,437805,,red
6,Fixation cross,canvas.Screen,2_0_15_0,26-09-2024 10:48,,red,,,5.04E+19,timeout,task,,,44436,442677,437638,4.39E+21,437805,442841,,red
6,Stroop screen,canvas.Screen,2_0_15_1,26-09-2024 10:48,,red,TRUE,red,6.40E+18,response,task,red,keydown(r),4.49E+21,4.49E+20,442677,4.44E+20,442841,447774,,red
6,Inter-trial interval,canvas.Screen,2_0_15_2,26-09-2024 10:48,,red,,,3.65E+20,timeout,task,,,4.53E+21,4.53E+20,44751,4.49E+20,447774,45142664,,red
6,Trial,flow.Sequence,2_0_15,26-09-2024 10:48,,red,,,1.53E+19,completion,task,,,45316,4.53E+20,437638,4.39E+20,437805,45142664,,red
6,Fixation cross,canvas.Screen,2_0_16_0,26-09-2024 10:48,,orange,,,5.01E+20,timeout,task,,,4.58E+20,456275,4.53E+20,45316,45142664,456438,,blue
6,Stroop screen,canvas.Screen,2_0_16_1,26-09-2024 10:48,,orange,TRUE,orange,9.01E+18,response,task,orange,keydown(o),46547,4.65E+21,456275,457955,456438,463979,,blue
6,Inter-trial interval,canvas.Screen,2_0_16_2,26-09-2024 10:48,,orange,,,5.06E+19,timeout,task,,,4.71E+20,468876,463777,4.65E+21,463979,469043,,blue
6,Trial,flow.Sequence,2_0_16,26-09-2024 10:48,,orange,,,1.74E+21,completion,task,,,47056,468876,4.53E+20,45316,45142664,469043,,blue
6,Fixation cross,canvas.Screen,2_0_17_0,26-09-2024 10:48,,blue,,,4.94E+18,timeout,task,,,47556,473818,468876,4.71E+20,469043,473985,,blue
6,Stroop screen,canvas.Screen,2_0_17_1,26-09-2024 10:48,,blue,TRUE,blue,1.51E+20,response,task,blue,keydown(b),4.89E+20,4.89E+21,473818,4.76E+21,473985,487628,,blue
6,Inter-trial interval,canvas.Screen,2_0_17_2,26-09-2024 10:48,,blue,,,3.60E+20,timeout,task,,,492945,4.93E+20,487318,4.89E+20,487628,49122664,,blue
6,Trial,flow.Sequence,2_0_17,26-09-2024 10:48,,blue,,,2.39E+19,completion,task,,,4.93E+21,4.93E+20,468876,4.71E+20,469043,49122664,,blue
6,Fixation cross,canvas.Screen,2_0_18_0,26-09-2024 10:48,,green,,,3.56E+18,timeout,task,,,496455,4.96E+20,4.93E+20,49295,49122664,49478464,,green
6,Stroop screen,canvas.Screen,2_0_18_1,26-09-2024 10:48,,green,TRUE,green,1417036,response,task,green,keydown(g),5.09E+20,508955,4.96E+20,4.96E+20,49478464,507478,,green
6,Inter-trial interval,canvas.Screen,2_0_18_2,26-09-2024 10:48,,green,,,3.55E+19,timeout,task,,,5.13E+20,5.13E+20,507208,508975,507478,511024,,green
6,Trial,flow.Sequence,2_0_18,26-09-2024 10:48,,green,,,2.15E+20,completion,task,,,5.13E+21,5.13E+20,4.93E+20,4.93E+20,49122664,511024,,green
6,Fixation cross,canvas.Screen,2_0_19_0,26-09-2024 10:48,,red,,,3.54E+21,timeout,task,,,516275,5.16E+21,5.13E+20,5.13E+20,511024,51456064,,green
6,Stroop screen,canvas.Screen,2_0_19_1,26-09-2024 10:48,,red,TRUE,red,1.04E+21,response,task,red,keydown(r),5.25E+20,52501,5.16E+21,5.16E+20,51456064,523531,,green
6,Inter-trial interval,canvas.Screen,2_0_19_2,26-09-2024 10:48,,red,,,3505,timeout,task,,,52877,5.29E+21,52322,5.25E+20,523531,527036,,green
6,Trial,flow.Sequence,2_0_19,26-09-2024 10:48,,red,,,1.77E+20,completion,task,,,5.29E+20,5.29E+21,5.13E+20,5.13E+20,511024,527036,,green
6,Fixation cross,canvas.Screen,2_0_20_0,26-09-2024 10:48,,orange,,,3.48E+18,timeout,task,,,5.32E+20,5.32E+20,5.29E+21,5.29E+20,527036,530519,,green
6,Stroop screen,canvas.Screen,2_0_20_1,26-09-2024 10:48,,orange,TRUE,orange,1.31E+20,response,task,orange,keydown(o),5.44E+20,5.44E+20,5.32E+20,5.32E+20,530519,542139,,green
6,Inter-trial interval,canvas.Screen,2_0_20_2,26-09-2024 10:48,,orange,,,3.65E+21,timeout,task,,,5.47E+21,5.47E+20,541852,543635,542139,54579064,,green
6,Trial,flow.Sequence,2_0_20,26-09-2024 10:48,,orange,,,2.04E+20,completion,task,,,5.47E+20,5.47E+20,5.29E+21,5.29E+20,527036,54579064,,green
6,Fixation cross,canvas.Screen,2_0_21_0,26-09-2024 10:48,,red,,,3.43E+19,timeout,task,,,5.51E+20,55102,5.47E+20,5.47E+20,54579064,54921798,,orange
6,Stroop screen,canvas.Screen,2_0_21_1,26-09-2024 10:48,,red,TRUE,red,1.04E+20,response,task,red,keydown(r),5.60E+21,5.60E+20,55102,5.51E+20,54921798,558192,,orange
6,Inter-trial interval,canvas.Screen,2_0_21_2,26-09-2024 10:48,,red,,,498,timeout,task,,,5.65E+21,563005,557884,5.60E+20,558192,563172,,orange
6,Trial,flow.Sequence,2_0_21,26-09-2024 10:48,,red,,,1.72E+21,completion,task,,,5.65E+20,563005,5.47E+20,547475,54579064,563172,,orange
6,Fixation cross,canvas.Screen,2_0_22_0,26-09-2024 10:48,,green,,,3.65E+20,timeout,task,,,5.68E+20,5.68E+21,563005,5.65E+20,563172,56682364,,orange
6,Stroop screen,canvas.Screen,2_0_22_1,26-09-2024 10:48,,green,TRUE,green,1.47E+21,response,task,green,keydown(g),5.82E+20,5.82E+20,5.68E+21,5.68E+20,56682364,580096,,orange
6,Inter-trial interval,canvas.Screen,2_0_22_2,26-09-2024 10:48,,green,,,3.56E+19,timeout,task,,,5.85E+20,58539,579818,5.82E+20,580096,583655,,orange
6,Trial,flow.Sequence,2_0_22,26-09-2024 10:48,,green,,,2.22E+19,completion,task,,,585395,58539,563005,5.65E+20,563172,583655,,orange
6,Fixation cross,canvas.Screen,2_0_23_0,26-09-2024 10:48,,blue,,,3.60E+21,timeout,task,,,5.89E+21,5.89E+20,58539,5.85E+20,583655,58725664,,blue
6,Stroop screen,canvas.Screen,2_0_23_1,26-09-2024 10:48,,blue,TRUE,blue,6.95E+20,response,task,blue,keydown(b),5.94E+20,5.94E+20,5.89E+20,588925,58725664,592736,,blue
6,Inter-trial interval,canvas.Screen,2_0_23_2,26-09-2024 10:48,,blue,,,5.01E+18,timeout,task,,,59925,597577,592504,59423,592736,597749,,blue
6,Trial,flow.Sequence,2_0_23,26-09-2024 10:48,,blue,,,1.39E+19,completion,task,,,5.99E+21,597577,58539,5.85E+20,583655,597749,,blue
6,Stroop task,flow.Loop,2_0,26-09-2024 10:48,,,,,442001,completion,,,,5.99E+20,597577,155411,15710,155576,597749,,
6,Task frame,canvas.Frame,2,26-09-2024 10:48,,,,,4.44E+21,,,,,5.99E+20,5.99E+20,155411,1.57E+21,155576,597912,,
6,Thanks,html.Screen,3,26-09-2024 10:48,,,,,18,timeout,,,,6.00E+20,6.00E+20,597749,599255,597912,598092,,
6,root,flow.Sequence,,26-09-2024 10:48,,,,,5.94E+20,completion,,,,6.00E+20,6.00E+20,583682,748,583682,598092,,
7,sender,sender_type,sender_id,timestamp,meta,color,correct,correctResponse,duration,ended_on,phase,response,response_action,time_commit,time_end,time_render,time_run,time_show,time_switch,url,word
7,Instruction,html.Screen,0,2024-09-26T08:47:46.119Z,"{""labjs_version"":""20.2.4"",""labjs_build"":{""flavor"":""development"",""commit"":""f5b4a49f956347addd546a832a3327688c2c0fef""},""location"":""https://labjs.felixhenninger.com/api/labjs_preview/index.html"",""userAgent"":""Mozilla/5.0 (Macintosh",,,,,,,,,,,,,,,,
7,Fixation cross,canvas.Screen,1_0_0_0,2024-09-26T08:47:46.625Z,,blue,,,50.110.000.000.000.000,timeout,practice,,,1.558.810.000.000.140,15587,15.086.802,1.508.770.000.000.290,15101.6,15602.7,,blue
7,Stroop screen,canvas.Screen,1_0_0_1,2024-09-26T08:47:47.916Z,,blue,TRUE,blue,12.699.000.000.014.800,response,practice,blue,keydown(b),16.879.400.000.002.200,1.687.260.000.000.140,15587,15.588.400.000.002.200,15602.7,16889.6,,blue
7,Inter-trial interval,canvas.Screen,1_0_0_2,2024-09-26T08:47:48.413Z,,blue,,,5.016.000.000.000.020,timeout,practice,,,17.375.800.000.000.700,17375.1,16872.9,1.687.970.000.000.290,16889.6,17391.2,,blue
7,Trial,flow.Sequence,1_0_0,2024-09-26T08:47:48.413Z,,blue,,,2.273.499.999.999.990,completion,practice,,,17.376.300.000.000.700,17375.1,15.086.802,1.508.770.000.000.290,15101.6,17391.2,,blue
7,Fixation cross,canvas.Screen,1_0_1_0,2024-09-26T08:47:48.914Z,,red,,,5.018.999.999.999.970,timeout,practice,,,1.787.720.000.000.290,17876.4,17375.1,17.376.400.000.002.200,17391.2,17893.1,,red
7,Stroop screen,canvas.Screen,1_0_1_1,2024-09-26T08:47:49.684Z,,red,TRUE,red,7.474.000.000.000.010,response,practice,red,keydown(r),1.864.710.000.000.140,18640.5,17876.4,17877.5,17893.1,18661.1,,red
7,Inter-trial interval,canvas.Screen,1_0_1_2,2024-09-26T08:47:50.184Z,,red,,,501,timeout,practice,,,1.914.720.000.000.290,19146.5,18645,18.647.300.000.000.700,18661.1,19162.1,,red
7,Trial,flow.Sequence,1_0_1,2024-09-26T08:47:50.184Z,,red,,,17.552.999.999.999.900,completion,practice,,,19147.5,19146.5,17375.1,17.376.400.000.002.200,17391.2,19162.1,,red
7,Fixation cross,canvas.Screen,1_0_2_0,2024-09-26T08:47:50.685Z,,orange,,,5.023.000.000.000.020,timeout,practice,,,19.647.900.000.002.200,19647,19146.5,19148,19162.1,19664.4,,orange
7,Stroop screen,canvas.Screen,1_0_2_1,2024-09-26T08:47:51.557Z,,orange,TRUE,orange,8.490.000.000.022.330,response,practice,orange,keydown(o),20.520.300.000.000.700,20.513.400.000.002.200,19647,19648,19664.4,20532.9,,orange
7,Inter-trial interval,canvas.Screen,1_0_2_2,2024-09-26T08:47:52.056Z,,orange,,,501.5,timeout,practice,,,2.101.910.000.000.140,21017.1,20516.7,20520.5,20532.9,21034.4,,orange
7,Trial,flow.Sequence,1_0_2,2024-09-26T08:47:52.057Z,,orange,,,1855,completion,practice,,,21019.5,21017.1,19146.5,19.147.900.000.002.200,19162.1,21034.4,,orange
7,Fixation cross,canvas.Screen,1_0_3_0,2024-09-26T08:47:52.557Z,,green,,,5.017.999.999.999.990,timeout,practice,,,21.520.400.000.002.200,21518.4,21017.1,2.101.960.000.000.140,21034.4,21536.2,,green
7,Stroop screen,canvas.Screen,1_0_3_1,2024-09-26T08:47:53.129Z,,green,TRUE,green,5.491.000.000.007.440,response,practice,green,keydown(g),22.092.300.000.000.700,22.085.300.000.000.700,21518.4,21520.5,21536.2,22104.2,,green
7,Inter-trial interval,canvas.Screen,1_0_3_2,2024-09-26T08:47:53.628Z,,green,,,500.5,timeout,practice,,,2.259.060.000.000.140,22588.5,22086.4,22092.5,22104.2,22604.7,,green
7,Trial,flow.Sequence,1_0_3,2024-09-26T08:47:53.628Z,,green,,,15.540.999.999.999.900,completion,practice,,,2.259.110.000.000.140,22588.5,21017.1,2.101.960.000.000.140,21034.4,22604.7,,green
7,Practice task,flow.Loop,1_0,2024-09-26T08:47:53.629Z,,,,,7486.9,completion,,,,22591.5,22588.5,15.086.802,1.508.760.000.000.140,15101.6,22604.7,,
7,Practice frame,canvas.Frame,1,2024-09-26T08:47:53.629Z,,,,,749.010.000.000.298,,,,,2.259.210.000.000.140,2.259.170.000.000.290,15.086.802,15082.5,15101.6,22622.2,,
7,Fixation cross,canvas.Screen,2_0_0_0,2024-09-26T08:47:54.145Z,,orange,,,50.159.999.999.999.800,timeout,task,,,2.310.760.000.000.140,23106.7,22604.7,2.259.410.000.000.140,22622.2,23123.8,,blue
7,Stroop screen,canvas.Screen,2_0_0_1,2024-09-26T08:47:55.305Z,,orange,TRUE,orange,1.137.400.000.002.980,response,task,orange,keydown(o),24.267.900.000.002.200,2.426.120.000.000.290,23106.7,23.107.800.000.000.700,23123.8,24293.3,,blue
7,Inter-trial interval,canvas.Screen,2_0_0_2,2024-09-26T08:47:55.816Z,,orange,,,5.016.000.000.000.020,timeout,task,,,24779,24778.2,24260.1,2.426.820.000.000.290,24293.3,24794.9,,blue
7,Trial,flow.Sequence,2_0_0,2024-09-26T08:47:55.816Z,,orange,,,2156,completion,task,,,2.477.920.000.000.290,24778.2,22604.7,2.259.410.000.000.140,22622.2,24794.9,,blue
7,Fixation cross,canvas.Screen,2_0_1_0,2024-09-26T08:47:56.317Z,,blue,,,5.002.999.999.999.990,timeout,task,,,2.528.020.000.000.290,25279.4,24778.2,24.779.400.000.002.200,24794.9,25295.2,,blue
7,Stroop screen,canvas.Screen,2_0_1_1,2024-09-26T08:47:57.173Z,,blue,TRUE,blue,8.327.999.999.999.990,response,task,blue,keydown(b),2.613.560.000.000.140,26128,25279.4,25.280.300.000.000.700,25295.2,26147.7,,blue
7,Inter-trial interval,canvas.Screen,2_0_1_2,2024-09-26T08:47:57.671Z,,blue,,,50.209.999.999.999.800,timeout,task,,,2.663.370.000.000.290,26633.1,26131.7,26.135.800.000.000.700,26147.7,26649.8,,blue
7,Trial,flow.Sequence,2_0_1,2024-09-26T08:47:57.671Z,,blue,,,1.838.199.999.999.990,completion,task,,,26.633.900.000.002.200,26633.1,24778.2,24.779.400.000.002.200,24794.9,26649.8,,blue
7,Fixation cross,canvas.Screen,2_0_2_0,2024-09-26T08:47:58.172Z,,blue,,,501,timeout,task,,,27.134.800.000.000.700,27134.3,26633.1,2.663.410.000.000.140,26649.8,27150.8,,orange
7,Stroop screen,canvas.Screen,2_0_2_1,2024-09-26T08:47:59.435Z,,blue,TRUE,blue,1.240.100.000.002.230,response,task,blue,keydown(b),2.839.770.000.000.290,28.390.900.000.002.200,27134.3,27.134.800.000.000.700,27150.8,28420.8,,orange
7,Inter-trial interval,canvas.Screen,2_0_2_2,2024-09-26T08:47:59.944Z,,blue,,,50.090.000.000.000.100,timeout,task,,,2.890.660.000.000.140,28905.8,28387.7,28398,28420.8,28921.7,,orange
7,Trial,flow.Sequence,2_0_2,2024-09-26T08:47:59.944Z,,blue,,,2256,completion,task,,,28.906.800.000.000.700,28905.8,26633.1,2.663.410.000.000.140,26649.8,28921.7,,orange
7,Fixation cross,canvas.Screen,2_0_3_0,2024-09-26T08:48:00.445Z,,orange,,,50.109.999.999.999.800,timeout,task,,,2.940.760.000.000.140,29407.1,28905.8,28907,28921.7,29422.8,,orange
7,Stroop screen,canvas.Screen,2_0_3_1,2024-09-26T08:48:01.209Z,,orange,TRUE,orange,7.420.000.000.007.450,response,task,orange,keydown(o),30.171.800.000.000.700,30.164.800.000.000.700,29407.1,29.407.800.000.000.700,29422.8,30191.6,,orange
7,Inter-trial interval,canvas.Screen,2_0_3_2,2024-09-26T08:48:01.715Z,,orange,,,501.5,timeout,task,,,30.677.900.000.002.200,30677.3,30172.77,30172,30191.6,30693.1,,orange
7,Trial,flow.Sequence,2_0_3,2024-09-26T08:48:01.715Z,,orange,,,17.555.999.999.999.900,completion,task,,,3.067.810.000.000.140,30677.3,28905.8,28907,28921.7,30693.1,,orange
7,Fixation cross,canvas.Screen,2_0_4_0,2024-09-26T08:48:02.217Z,,orange,,,5.022.000.000.000.000,timeout,task,,,31180,31177.9,30677.3,30.678.300.000.000.700,30693.1,31195.3,,red
7,Stroop screen,canvas.Screen,2_0_4_1,2024-09-26T08:48:03.051Z,,orange,TRUE,orange,811.400.000.002.981,response,task,orange,keydown(o),3.201.360.000.000.140,3.200.670.000.000.290,31177.9,31.180.300.000.000.700,31195.3,32029.7,,red
7,Inter-trial interval,canvas.Screen,2_0_4_2,2024-09-26T08:48:03.554Z,,orange,,,502.5,timeout,task,,,3.251.620.000.000.290,32515.5,32014.1,32.013.900.000.002.200,32029.7,32532.2,,red
7,Trial,flow.Sequence,2_0_4,2024-09-26T08:48:03.554Z,,orange,,,18.224.000.000.000.000,completion,task,,,32516.5,32515.5,30677.3,30.678.300.000.000.700,30693.1,32532.2,,red
7,Fixation cross,canvas.Screen,2_0_5_0,2024-09-26T08:48:04.055Z,,red,,,5.012.999.999.999.990,timeout,task,,,3.301.760.000.000.140,33016.9,32515.5,32.516.800.000.000.700,32532.2,33033.5,,red
7,Stroop screen,canvas.Screen,2_0_5_1,2024-09-26T08:48:04.831Z,,red,TRUE,red,7.541.000.000.014.900,response,task,red,keydown(r),33794,3.378.760.000.000.140,33016.9,3.301.770.000.000.290,33033.5,33818.1,,red
7,Inter-trial interval,canvas.Screen,2_0_5_2,2024-09-26T08:48:05.342Z,,red,,,50.220.000.000.000.400,timeout,task,,,3.430.420.000.000.290,34303.6,33785.5,33.794.300.000.000.700,33818.1,34320.3,,red
7,Trial,flow.Sequence,2_0_5,2024-09-26T08:48:05.342Z,,red,,,17.713.999.999.999.900,completion,task,,,34304.5,34303.6,32515.5,3.251.670.000.000.290,32532.2,34320.3,,red
7,Fixation cross,canvas.Screen,2_0_6_0,2024-09-26T08:48:05.843Z,,blue,,,5.013.999.999.999.940,timeout,task,,,3.480.560.000.000.140,34804.9,34303.6,3.430.470.000.000.290,34320.3,34821.7,,blue
7,Stroop screen,canvas.Screen,2_0_6_1,2024-09-26T08:48:06.631Z,,blue,TRUE,blue,7.658.000.000.000.020,response,task,blue,keydown(b),35594,35587.5,34804.9,34.805.900.000.002.200,34821.7,35607,,blue
7,Inter-trial interval,canvas.Screen,2_0_6_2,2024-09-26T08:48:07.130Z,,blue,,,50.040.000.000.000.100,timeout,task,,,36.092.400.000.002.200,36091.7,35590.4,3.559.410.000.000.140,35607,36107.4,,blue
7,Trial,flow.Sequence,2_0_6,2024-09-26T08:48:07.130Z,,blue,,,17.713.999.999.999.900,completion,task,,,3.609.260.000.000.140,36091.7,34303.6,3.430.470.000.000.290,34320.3,36107.4,,blue
7,Fixation cross,canvas.Screen,2_0_7_0,2024-09-26T08:48:07.631Z,,green,,,50.190.000.000.000.100,timeout,task,,,3.659.370.000.000.290,36593.1,36091.7,36.092.800.000.000.700,36107.4,36609.3,,green
7,Stroop screen,canvas.Screen,2_0_7_1,2024-09-26T08:48:08.433Z,,green,TRUE,green,7.791.000.000.022.320,response,task,green,keydown(g),3.739.560.000.000.140,37.388.400.000.002.200,36593.1,36.593.900.000.002.200,36609.3,37411,,green
7,Inter-trial interval,canvas.Screen,2_0_7_2,2024-09-26T08:48:08.935Z,,green,,,5.021.999.999.999.970,timeout,task,,,3.789.710.000.000.140,37896.5,37395.2,3.739.570.000.000.290,37411,37913.2,,green
7,Trial,flow.Sequence,2_0_7,2024-09-26T08:48:08.935Z,,green,,,17.890.999.999.999.900,completion,task,,,37.897.400.000.002.200,37896.5,36091.7,36.092.800.000.000.700,36107.4,37913.2,,green
7,Fixation cross,canvas.Screen,2_0_8_0,2024-09-26T08:48:09.436Z,,green,,,5.006.000.000.000.050,timeout,task,,,38398.5,38397.8,37896.5,3.789.760.000.000.140,37913.2,38413.8,,orange
7,Stroop screen,canvas.Screen,2_0_8_1,2024-09-26T08:48:10.518Z,,green,TRUE,green,10.605.000.000.007.400,response,task,green,keydown(g),39.480.900.000.002.200,39.474.300.000.000.700,38397.8,3.839.870.000.000.290,38413.8,39500,,orange
