acc,accuracy,avg_rt,block,browser_codename,browser_name,browser_version,category,correct,correct_response,count_reset_feedback,count_trial_sequence,count_word,date_startdate,date_startdateUTC,date_starttime,experiment_debug,experiment_parameters,experiment_pilot,experiment_taskname,experiment_taskversion,jatosStudyResultId,jatosVersion,number_letters,queryParams_batchId,queryParams_generalMultiple,response_keyboard_response,response_time,screen_availableHeight,screen_availableWidth,screen_colorDepth,screen_height,screen_pixelDepth,screen_screenX,screen_screenY,screen_width,subject_nr,subject_parity,system_os,target
100,100,1176,practice,Mozilla,Netscape,"5.0 (Macintosh; Intel Mac OS X 10_13_6) AppleWebKit/537.36 (KHTML, like Gecko) Chrome/105.0.0.0 Safari/537.36",NW,1,m,None,None,None,29-08-22,29-08-22,10:31:56,0,0,0,0,0,717,3.6.1,5,231,,None,1176,804,1440,24,900,24,0,23,1440,1,odd,MacIntel,ipple
100,100,947,practice,Mozilla,Netscape,"5.0 (Macintosh; Intel Mac OS X 10_13_6) AppleWebKit/537.36 (KHTML, like Gecko) Chrome/105.0.0.0 Safari/537.36",NW,1,m,None,None,None,29-08-22,29-08-22,10:31:56,0,0,0,0,0,717,3.6.1,5,231,,None,718,804,1440,24,900,24,0,23,1440,1,odd,MacIntel,mocag
100,100,818,practice,Mozilla,Netscape,"5.0 (Macintosh; Intel Mac OS X 10_13_6) AppleWebKit/537.36 (KHTML, like Gecko) Chrome/105.0.0.0 Safari/537.36",Word,1,z,None,None,None,29-08-22,29-08-22,10:31:56,0,0,0,0,0,717,3.6.1,6,231,,None,561,804,1440,24,900,24,0,23,1440,1,odd,MacIntel,turtle
100,100,770,practice,Mozilla,Netscape,"5.0 (Macintosh; Intel Mac OS X 10_13_6) AppleWebKit/537.36 (KHTML, like Gecko) Chrome/105.0.0.0 Safari/537.36",Word,1,z,None,None,None,29-08-22,29-08-22,10:31:56,0,0,0,0,0,717,3.6.1,5,231,,None,625,804,1440,24,900,24,0,23,1440,1,odd,MacIntel,apple
80,80,695,practice,Mozilla,Netscape,"5.0 (Macintosh; Intel Mac OS X 10_13_6) AppleWebKit/537.36 (KHTML, like Gecko) Chrome/105.0.0.0 Safari/537.36",Word,0,z,None,None,None,29-08-22,29-08-22,10:31:56,0,0,0,0,0,717,3.6.1,5,231,,None,397,804,1440,24,900,24,0,23,1440,1,odd,MacIntel,magic
83,83,708,practice,Mozilla,Netscape,"5.0 (Macintosh; Intel Mac OS X 10_13_6) AppleWebKit/537.36 (KHTML, like Gecko) Chrome/105.0.0.0 Safari/537.36",NW,1,m,None,None,None,29-08-22,29-08-22,10:31:56,0,0,0,0,0,717,3.6.1,6,231,,None,771,804,1440,24,900,24,0,23,1440,1,odd,MacIntel,ourtel
100,100,846,trial,Mozilla,Netscape,"5.0 (Macintosh; Intel Mac OS X 10_13_6) AppleWebKit/537.36 (KHTML, like Gecko) Chrome/105.0.0.0 Safari/537.36",NW,1,m,0,0,0,29-08-22,29-08-22,10:31:56,0,0,0,0,0,717,3.6.1,7,231,,m,846,804,1440,24,900,24,0,23,1440,1,odd,MacIntel,rhourth
100,100,862,trial,Mozilla,Netscape,"5.0 (Macintosh; Intel Mac OS X 10_13_6) AppleWebKit/537.36 (KHTML, like Gecko) Chrome/105.0.0.0 Safari/537.36",PH,1,m,0,1,1,29-08-22,29-08-22,10:31:56,0,0,0,0,0,717,3.6.1,6,231,,m,877,804,1440,24,900,24,0,23,1440,1,odd,MacIntel,whased
100,100,840,trial,Mozilla,Netscape,"5.0 (Macintosh; Intel Mac OS X 10_13_6) AppleWebKit/537.36 (KHTML, like Gecko) Chrome/105.0.0.0 Safari/537.36",NW,1,m,0,2,2,29-08-22,29-08-22,10:31:56,0,0,0,0,0,717,3.6.1,3,231,,m,797,804,1440,24,900,24,0,23,1440,1,odd,MacIntel,dod
100,100,828,trial,Mozilla,Netscape,"5.0 (Macintosh; Intel Mac OS X 10_13_6) AppleWebKit/537.36 (KHTML, like Gecko) Chrome/105.0.0.0 Safari/537.36",PH,1,m,0,3,3,29-08-22,29-08-22,10:31:56,0,0,0,0,0,717,3.6.1,6,231,,m,790,804,1440,24,900,24,0,23,1440,1,odd,MacIntel,fluick
100,100,772,trial,Mozilla,Netscape,"5.0 (Macintosh; Intel Mac OS X 10_13_6) AppleWebKit/537.36 (KHTML, like Gecko) Chrome/105.0.0.0 Safari/537.36",Word,1,z,0,4,4,29-08-22,29-08-22,10:31:56,0,0,0,0,0,717,3.6.1,3,231,,z,552,804,1440,24,900,24,0,23,1440,1,odd,MacIntel,leg
100,100,751,trial,Mozilla,Netscape,"5.0 (Macintosh; Intel Mac OS X 10_13_6) AppleWebKit/537.36 (KHTML, like Gecko) Chrome/105.0.0.0 Safari/537.36",PH,1,m,0,5,5,29-08-22,29-08-22,10:31:56,0,0,0,0,0,717,3.6.1,6,231,,m,642,804,1440,24,900,24,0,23,1440,1,odd,MacIntel,rhaque
86,86,769,trial,Mozilla,Netscape,"5.0 (Macintosh; Intel Mac OS X 10_13_6) AppleWebKit/537.36 (KHTML, like Gecko) Chrome/105.0.0.0 Safari/537.36",Word,0,z,0,6,6,29-08-22,29-08-22,10:31:56,0,0,0,0,0,717,3.6.1,4,231,,m,882,804,1440,24,900,24,0,23,1440,1,odd,MacIntel,beak
88,88,792,trial,Mozilla,Netscape,"5.0 (Macintosh; Intel Mac OS X 10_13_6) AppleWebKit/537.36 (KHTML, like Gecko) Chrome/105.0.0.0 Safari/537.36",PH,1,m,0,7,7,29-08-22,29-08-22,10:31:56,0,0,0,0,0,717,3.6.1,6,231,,m,946,804,1440,24,900,24,0,23,1440,1,odd,MacIntel,dropse
89,89,817,trial,Mozilla,Netscape,"5.0 (Macintosh; Intel Mac OS X 10_13_6) AppleWebKit/537.36 (KHTML, like Gecko) Chrome/105.0.0.0 Safari/537.36",Word,1,z,0,8,8,29-08-22,29-08-22,10:31:56,0,0,0,0,0,717,3.6.1,6,231,,z,1023,804,1440,24,900,24,0,23,1440,1,odd,MacIntel,ginger
90,90,829,trial,Mozilla,Netscape,"5.0 (Macintosh; Intel Mac OS X 10_13_6) AppleWebKit/537.36 (KHTML, like Gecko) Chrome/105.0.0.0 Safari/537.36",NW,1,m,0,9,9,29-08-22,29-08-22,10:31:56,0,0,0,0,0,717,3.6.1,5,231,,m,937,804,1440,24,900,24,0,23,1440,1,odd,MacIntel,bince
91,91,809,trial,Mozilla,Netscape,"5.0 (Macintosh; Intel Mac OS X 10_13_6) AppleWebKit/537.36 (KHTML, like Gecko) Chrome/105.0.0.0 Safari/537.36",Word,1,z,0,10,10,29-08-22,29-08-22,10:31:56,0,0,0,0,0,717,3.6.1,6,231,,z,609,804,1440,24,900,24,0,23,1440,1,odd,MacIntel,dollar
92,92,826,trial,Mozilla,Netscape,"5.0 (Macintosh; Intel Mac OS X 10_13_6) AppleWebKit/537.36 (KHTML, like Gecko) Chrome/105.0.0.0 Safari/537.36",NW,1,m,0,11,11,29-08-22,29-08-22,10:31:56,0,0,0,0,0,717,3.6.1,5,231,,m,1011,804,1440,24,900,24,0,23,1440,1,odd,MacIntel,tould
85,85,824,trial,Mozilla,Netscape,"5.0 (Macintosh; Intel Mac OS X 10_13_6) AppleWebKit/537.36 (KHTML, like Gecko) Chrome/105.0.0.0 Safari/537.36",Word,0,z,0,12,12,29-08-22,29-08-22,10:31:56,0,0,0,0,0,717,3.6.1,5,231,,m,800,804,1440,24,900,24,0,23,1440,1,odd,MacIntel,huzza
86,86,824,trial,Mozilla,Netscape,"5.0 (Macintosh; Intel Mac OS X 10_13_6) AppleWebKit/537.36 (KHTML, like Gecko) Chrome/105.0.0.0 Safari/537.36",Word,1,z,0,13,13,29-08-22,29-08-22,10:31:56,0,0,0,0,0,717,3.6.1,5,231,,z,826,804,1440,24,900,24,0,23,1440,1,odd,MacIntel,wharf
87,87,822,trial,Mozilla,Netscape,"5.0 (Macintosh; Intel Mac OS X 10_13_6) AppleWebKit/537.36 (KHTML, like Gecko) Chrome/105.0.0.0 Safari/537.36",NW,1,m,0,14,14,29-08-22,29-08-22,10:31:56,0,0,0,0,0,717,3.6.1,6,231,,m,789,804,1440,24,900,24,0,23,1440,1,odd,MacIntel,snafes
88,88,824,trial,Mozilla,Netscape,"5.0 (Macintosh; Intel Mac OS X 10_13_6) AppleWebKit/537.36 (KHTML, like Gecko) Chrome/105.0.0.0 Safari/537.36",Word,1,z,0,15,15,29-08-22,29-08-22,10:31:56,0,0,0,0,0,717,3.6.1,6,231,,z,851,804,1440,24,900,24,0,23,1440,1,odd,MacIntel,scroll
88,88,819,trial,Mozilla,Netscape,"5.0 (Macintosh; Intel Mac OS X 10_13_6) AppleWebKit/537.36 (KHTML, like Gecko) Chrome/105.0.0.0 Safari/537.36",PH,1,m,0,16,16,29-08-22,29-08-22,10:31:56,0,0,0,0,0,717,3.6.1,4,231,,m,741,804,1440,24,900,24,0,23,1440,1,odd,MacIntel,ryle
89,89,809,trial,Mozilla,Netscape,"5.0 (Macintosh; Intel Mac OS X 10_13_6) AppleWebKit/537.36 (KHTML, like Gecko) Chrome/105.0.0.0 Safari/537.36",Word,1,z,0,17,17,29-08-22,29-08-22,10:31:56,0,0,0,0,0,717,3.6.1,6,231,,z,642,804,1440,24,900,24,0,23,1440,1,odd,MacIntel,salary
84,84,790,trial,Mozilla,Netscape,"5.0 (Macintosh; Intel Mac OS X 10_13_6) AppleWebKit/537.36 (KHTML, like Gecko) Chrome/105.0.0.0 Safari/537.36",Word,0,z,0,18,18,29-08-22,29-08-22,10:31:56,0,0,0,0,0,717,3.6.1,7,231,,m,454,804,1440,24,900,24,0,23,1440,1,odd,MacIntel,tarnish
85,85,795,trial,Mozilla,Netscape,"5.0 (Macintosh; Intel Mac OS X 10_13_6) AppleWebKit/537.36 (KHTML, like Gecko) Chrome/105.0.0.0 Safari/537.36",NW,1,m,0,19,19,29-08-22,29-08-22,10:31:56,0,0,0,0,0,717,3.6.1,6,231,,m,880,804,1440,24,900,24,0,23,1440,1,odd,MacIntel,fradge
86,86,793,trial,Mozilla,Netscape,"5.0 (Macintosh; Intel Mac OS X 10_13_6) AppleWebKit/537.36 (KHTML, like Gecko) Chrome/105.0.0.0 Safari/537.36",Word,1,z,0,20,20,29-08-22,29-08-22,10:31:56,0,0,0,0,0,717,3.6.1,6,231,,z,764,804,1440,24,900,24,0,23,1440,1,odd,MacIntel,chapel
86,86,792,trial,Mozilla,Netscape,"5.0 (Macintosh; Intel Mac OS X 10_13_6) AppleWebKit/537.36 (KHTML, like Gecko) Chrome/105.0.0.0 Safari/537.36",NW,1,m,0,21,21,29-08-22,29-08-22,10:31:56,0,0,0,0,0,717,3.6.1,6,231,,m,761,804,1440,24,900,24,0,23,1440,1,odd,MacIntel,trynes
87,87,789,trial,Mozilla,Netscape,"5.0 (Macintosh; Intel Mac OS X 10_13_6) AppleWebKit/537.36 (KHTML, like Gecko) Chrome/105.0.0.0 Safari/537.36",Word,1,z,0,22,22,29-08-22,29-08-22,10:31:56,0,0,0,0,0,717,3.6.1,5,231,,z,716,804,1440,24,900,24,0,23,1440,1,odd,MacIntel,chute
88,88,788,trial,Mozilla,Netscape,"5.0 (Macintosh; Intel Mac OS X 10_13_6) AppleWebKit/537.36 (KHTML, like Gecko) Chrome/105.0.0.0 Safari/537.36",Word,1,z,0,23,23,29-08-22,29-08-22,10:31:56,0,0,0,0,0,717,3.6.1,6,231,,z,779,804,1440,24,900,24,0,23,1440,1,odd,MacIntel,amount
88,88,787,trial,Mozilla,Netscape,"5.0 (Macintosh; Intel Mac OS X 10_13_6) AppleWebKit/537.36 (KHTML, like Gecko) Chrome/105.0.0.0 Safari/537.36",NW,1,m,0,24,24,29-08-22,29-08-22,10:31:56,0,0,0,0,0,717,3.6.1,6,231,,m,752,804,1440,24,900,24,0,23,1440,1,odd,MacIntel,nonzed
88,88,782,trial,Mozilla,Netscape,"5.0 (Macintosh; Intel Mac OS X 10_13_6) AppleWebKit/537.36 (KHTML, like Gecko) Chrome/105.0.0.0 Safari/537.36",Word,1,z,0,25,25,29-08-22,29-08-22,10:31:56,0,0,0,0,0,717,3.6.1,6,231,,z,652,804,1440,24,900,24,0,23,1440,1,odd,MacIntel,punish
89,89,786,trial,Mozilla,Netscape,"5.0 (Macintosh; Intel Mac OS X 10_13_6) AppleWebKit/537.36 (KHTML, like Gecko) Chrome/105.0.0.0 Safari/537.36",Word,1,z,0,26,26,29-08-22,29-08-22,10:31:56,0,0,0,0,0,717,3.6.1,4,231,,z,916,804,1440,24,900,24,0,23,1440,1,odd,MacIntel,mean
89,89,787,trial,Mozilla,Netscape,"5.0 (Macintosh; Intel Mac OS X 10_13_6) AppleWebKit/537.36 (KHTML, like Gecko) Chrome/105.0.0.0 Safari/537.36",PH,1,m,0,27,27,29-08-22,29-08-22,10:31:56,0,0,0,0,0,717,3.6.1,4,231,,m,807,804,1440,24,900,24,0,23,1440,1,odd,MacIntel,fite
90,90,778,trial,Mozilla,Netscape,"5.0 (Macintosh; Intel Mac OS X 10_13_6) AppleWebKit/537.36 (KHTML, like Gecko) Chrome/105.0.0.0 Safari/537.36",Word,1,z,0,28,28,29-08-22,29-08-22,10:31:56,0,0,0,0,0,717,3.6.1,6,231,,z,516,804,1440,24,900,24,0,23,1440,1,odd,MacIntel,victim
90,90,775,trial,Mozilla,Netscape,"5.0 (Macintosh; Intel Mac OS X 10_13_6) AppleWebKit/537.36 (KHTML, like Gecko) Chrome/105.0.0.0 Safari/537.36",PH,1,m,0,29,29,29-08-22,29-08-22,10:31:56,0,0,0,0,0,717,3.6.1,6,231,,m,681,804,1440,24,900,24,0,23,1440,1,odd,MacIntel,phlize
90,90,773,trial,Mozilla,Netscape,"5.0 (Macintosh; Intel Mac OS X 10_13_6) AppleWebKit/537.36 (KHTML, like Gecko) Chrome/105.0.0.0 Safari/537.36",Word,1,z,0,30,30,29-08-22,29-08-22,10:31:56,0,0,0,0,0,717,3.6.1,6,231,,z,738,804,1440,24,900,24,0,23,1440,1,odd,MacIntel,racket
91,91,782,trial,Mozilla,Netscape,"5.0 (Macintosh; Intel Mac OS X 10_13_6) AppleWebKit/537.36 (KHTML, like Gecko) Chrome/105.0.0.0 Safari/537.36",NW,1,m,0,31,31,29-08-22,29-08-22,10:31:56,0,0,0,0,0,717,3.6.1,7,231,,m,1032,804,1440,24,900,24,0,23,1440,1,odd,MacIntel,whurfed
91,91,780,trial,Mozilla,Netscape,"5.0 (Macintosh; Intel Mac OS X 10_13_6) AppleWebKit/537.36 (KHTML, like Gecko) Chrome/105.0.0.0 Safari/537.36",Word,1,z,0,32,32,29-08-22,29-08-22,10:31:56,0,0,0,0,0,717,3.6.1,5,231,,z,736,804,1440,24,900,24,0,23,1440,1,odd,MacIntel,quart
91,91,779,trial,Mozilla,Netscape,"5.0 (Macintosh; Intel Mac OS X 10_13_6) AppleWebKit/537.36 (KHTML, like Gecko) Chrome/105.0.0.0 Safari/537.36",NW,1,m,0,33,33,29-08-22,29-08-22,10:31:56,0,0,0,0,0,717,3.6.1,5,231,,m,743,804,1440,24,900,24,0,23,1440,1,odd,MacIntel,chowl
91,91,778,trial,Mozilla,Netscape,"5.0 (Macintosh; Intel Mac OS X 10_13_6) AppleWebKit/537.36 (KHTML, like Gecko) Chrome/105.0.0.0 Safari/537.36",PH,1,m,0,34,34,29-08-22,29-08-22,10:31:56,0,0,0,0,0,717,3.6.1,4,231,,m,741,804,1440,24,900,24,0,23,1440,1,odd,MacIntel,spue
92,92,775,trial,Mozilla,Netscape,"5.0 (Macintosh; Intel Mac OS X 10_13_6) AppleWebKit/537.36 (KHTML, like Gecko) Chrome/105.0.0.0 Safari/537.36",Word,1,z,0,35,35,29-08-22,29-08-22,10:31:56,0,0,0,0,0,717,3.6.1,6,231,,z,688,804,1440,24,900,24,0,23,1440,1,odd,MacIntel,enigma
92,92,771,trial,Mozilla,Netscape,"5.0 (Macintosh; Intel Mac OS X 10_13_6) AppleWebKit/537.36 (KHTML, like Gecko) Chrome/105.0.0.0 Safari/537.36",NW,1,m,0,36,36,29-08-22,29-08-22,10:31:56,0,0,0,0,0,717,3.6.1,6,231,,m,596,804,1440,24,900,24,0,23,1440,1,odd,MacIntel,thwams
89,89,768,trial,Mozilla,Netscape,"5.0 (Macintosh; Intel Mac OS X 10_13_6) AppleWebKit/537.36 (KHTML, like Gecko) Chrome/105.0.0.0 Safari/537.36",NW,0,m,0,37,37,29-08-22,29-08-22,10:31:56,0,0,0,0,0,717,3.6.1,6,231,,z,656,804,1440,24,900,24,0,23,1440,1,odd,MacIntel,sturds
90,90,782,trial,Mozilla,Netscape,"5.0 (Macintosh; Intel Mac OS X 10_13_6) AppleWebKit/537.36 (KHTML, like Gecko) Chrome/105.0.0.0 Safari/537.36",PH,1,m,0,38,38,29-08-22,29-08-22,10:31:56,0,0,0,0,0,717,3.6.1,6,231,,m,1317,804,1440,24,900,24,0,23,1440,1,odd,MacIntel,graits
88,88,784,trial,Mozilla,Netscape,"5.0 (Macintosh; Intel Mac OS X 10_13_6) AppleWebKit/537.36 (KHTML, like Gecko) Chrome/105.0.0.0 Safari/537.36",Word,0,z,0,39,39,29-08-22,29-08-22,10:31:56,0,0,0,0,0,717,3.6.1,6,231,,m,870,804,1440,24,900,24,0,23,1440,1,odd,MacIntel,cuttle
88,88,803,trial,Mozilla,Netscape,"5.0 (Macintosh; Intel Mac OS X 10_13_6) AppleWebKit/537.36 (KHTML, like Gecko) Chrome/105.0.0.0 Safari/537.36",NW,1,m,0,40,40,29-08-22,29-08-22,10:31:56,0,0,0,0,0,717,3.6.1,3,231,,m,1557,804,1440,24,900,24,0,23,1440,1,odd,MacIntel,cem
88,88,799,trial,Mozilla,Netscape,"5.0 (Macintosh; Intel Mac OS X 10_13_6) AppleWebKit/537.36 (KHTML, like Gecko) Chrome/105.0.0.0 Safari/537.36",Word,1,z,0,41,41,29-08-22,29-08-22,10:31:56,0,0,0,0,0,717,3.6.1,7,231,,z,626,804,1440,24,900,24,0,23,1440,1,odd,MacIntel,chuckle
88,88,797,trial,Mozilla,Netscape,"5.0 (Macintosh; Intel Mac OS X 10_13_6) AppleWebKit/537.36 (KHTML, like Gecko) Chrome/105.0.0.0 Safari/537.36",Word,1,z,0,42,42,29-08-22,29-08-22,10:31:56,0,0,0,0,0,717,3.6.1,7,231,,z,747,804,1440,24,900,24,0,23,1440,1,odd,MacIntel,ceiling
89,89,796,trial,Mozilla,Netscape,"5.0 (Macintosh; Intel Mac OS X 10_13_6) AppleWebKit/537.36 (KHTML, like Gecko) Chrome/105.0.0.0 Safari/537.36",NW,1,m,0,43,43,29-08-22,29-08-22,10:31:56,0,0,0,0,0,717,3.6.1,4,231,,m,729,804,1440,24,900,24,0,23,1440,1,odd,MacIntel,kirm
89,89,790,trial,Mozilla,Netscape,"5.0 (Macintosh; Intel Mac OS X 10_13_6) AppleWebKit/537.36 (KHTML, like Gecko) Chrome/105.0.0.0 Safari/537.36",Word,1,z,0,44,44,29-08-22,29-08-22,10:31:56,0,0,0,0,0,717,3.6.1,6,231,,z,525,804,1440,24,900,24,0,23,1440,1,odd,MacIntel,square
89,89,787,trial,Mozilla,Netscape,"5.0 (Macintosh; Intel Mac OS X 10_13_6) AppleWebKit/537.36 (KHTML, like Gecko) Chrome/105.0.0.0 Safari/537.36",PH,1,m,0,45,45,29-08-22,29-08-22,10:31:56,0,0,0,0,0,717,3.6.1,7,231,,m,664,804,1440,24,900,24,0,23,1440,1,odd,MacIntel,ghoards
89,89,783,trial,Mozilla,Netscape,"5.0 (Macintosh; Intel Mac OS X 10_13_6) AppleWebKit/537.36 (KHTML, like Gecko) Chrome/105.0.0.0 Safari/537.36",Word,1,z,0,46,46,29-08-22,29-08-22,10:31:56,0,0,0,0,0,717,3.6.1,7,231,,z,601,804,1440,24,900,24,0,23,1440,1,odd,MacIntel,embrace
90,90,785,trial,Mozilla,Netscape,"5.0 (Macintosh; Intel Mac OS X 10_13_6) AppleWebKit/537.36 (KHTML, like Gecko) Chrome/105.0.0.0 Safari/537.36",PH,1,m,0,47,47,29-08-22,29-08-22,10:31:56,0,0,0,0,0,717,3.6.1,6,231,,m,864,804,1440,24,900,24,0,23,1440,1,odd,MacIntel,grambs
90,90,785,trial,Mozilla,Netscape,"5.0 (Macintosh; Intel Mac OS X 10_13_6) AppleWebKit/537.36 (KHTML, like Gecko) Chrome/105.0.0.0 Safari/537.36",PH,1,m,0,48,48,29-08-22,29-08-22,10:31:56,0,0,0,0,0,717,3.6.1,4,231,,m,816,804,1440,24,900,24,0,23,1440,1,odd,MacIntel,wure
90,90,786,trial,Mozilla,Netscape,"5.0 (Macintosh; Intel Mac OS X 10_13_6) AppleWebKit/537.36 (KHTML, like Gecko) Chrome/105.0.0.0 Safari/537.36",Word,1,z,0,49,49,29-08-22,29-08-22,10:31:56,0,0,0,0,0,717,3.6.1,5,231,,z,808,804,1440,24,900,24,0,23,1440,1,odd,MacIntel,allow
88,88,784,trial,Mozilla,Netscape,"5.0 (Macintosh; Intel Mac OS X 10_13_6) AppleWebKit/537.36 (KHTML, like Gecko) Chrome/105.0.0.0 Safari/537.36",Word,0,z,0,50,50,29-08-22,29-08-22,10:31:56,0,0,0,0,0,717,3.6.1,3,231,,m,715,804,1440,24,900,24,0,23,1440,1,odd,MacIntel,ram
88,88,788,trial,Mozilla,Netscape,"5.0 (Macintosh; Intel Mac OS X 10_13_6) AppleWebKit/537.36 (KHTML, like Gecko) Chrome/105.0.0.0 Safari/537.36",Word,1,z,0,51,51,29-08-22,29-08-22,10:31:56,0,0,0,0,0,717,3.6.1,5,231,,z,942,804,1440,24,900,24,0,23,1440,1,odd,MacIntel,brake
89,89,788,trial,Mozilla,Netscape,"5.0 (Macintosh; Intel Mac OS X 10_13_6) AppleWebKit/537.36 (KHTML, like Gecko) Chrome/105.0.0.0 Safari/537.36",PH,1,m,0,52,52,29-08-22,29-08-22,10:31:56,0,0,0,0,0,717,3.6.1,6,231,,m,795,804,1440,24,900,24,0,23,1440,1,odd,MacIntel,chured
89,89,788,trial,Mozilla,Netscape,"5.0 (Macintosh; Intel Mac OS X 10_13_6) AppleWebKit/537.36 (KHTML, like Gecko) Chrome/105.0.0.0 Safari/537.36",PH,1,m,0,53,53,29-08-22,29-08-22,10:31:56,0,0,0,0,0,717,3.6.1,5,231,,m,805,804,1440,24,900,24,0,23,1440,1,odd,MacIntel,medes
89,89,782,trial,Mozilla,Netscape,"5.0 (Macintosh; Intel Mac OS X 10_13_6) AppleWebKit/537.36 (KHTML, like Gecko) Chrome/105.0.0.0 Safari/537.36",Word,1,z,0,54,54,29-08-22,29-08-22,10:31:56,0,0,0,0,0,717,3.6.1,6,231,,z,436,804,1440,24,900,24,0,23,1440,1,odd,MacIntel,salute
89,89,774,trial,Mozilla,Netscape,"5.0 (Macintosh; Intel Mac OS X 10_13_6) AppleWebKit/537.36 (KHTML, like Gecko) Chrome/105.0.0.0 Safari/537.36",PH,1,m,0,55,55,29-08-22,29-08-22,10:31:56,0,0,0,0,0,717,3.6.1,6,231,,m,333,804,1440,24,900,24,0,23,1440,1,odd,MacIntel,proods
89,89,765,trial,Mozilla,Netscape,"5.0 (Macintosh; Intel Mac OS X 10_13_6) AppleWebKit/537.36 (KHTML, like Gecko) Chrome/105.0.0.0 Safari/537.36",Word,1,z,0,56,56,29-08-22,29-08-22,10:31:56,0,0,0,0,0,717,3.6.1,7,231,,z,311,804,1440,24,900,24,0,23,1440,1,odd,MacIntel,blunder
90,90,769,trial,Mozilla,Netscape,"5.0 (Macintosh; Intel Mac OS X 10_13_6) AppleWebKit/537.36 (KHTML, like Gecko) Chrome/105.0.0.0 Safari/537.36",Word,1,z,0,57,57,29-08-22,29-08-22,10:31:56,0,0,0,0,0,717,3.6.1,6,231,,z,957,804,1440,24,900,24,0,23,1440,1,odd,MacIntel,misuse
90,90,771,trial,Mozilla,Netscape,"5.0 (Macintosh; Intel Mac OS X 10_13_6) AppleWebKit/537.36 (KHTML, like Gecko) Chrome/105.0.0.0 Safari/537.36",Word,1,z,0,58,58,29-08-22,29-08-22,10:31:56,0,0,0,0,0,717,3.6.1,6,231,,z,913,804,1440,24,900,24,0,23,1440,1,odd,MacIntel,sleigh
90,90,771,trial,Mozilla,Netscape,"5.0 (Macintosh; Intel Mac OS X 10_13_6) AppleWebKit/537.36 (KHTML, like Gecko) Chrome/105.0.0.0 Safari/537.36",Word,1,z,0,59,59,29-08-22,29-08-22,10:31:56,0,0,0,0,0,717,3.6.1,5,231,,z,768,804,1440,24,900,24,0,23,1440,1,odd,MacIntel,table
90,90,771,trial,Mozilla,Netscape,"5.0 (Macintosh; Intel Mac OS X 10_13_6) AppleWebKit/537.36 (KHTML, like Gecko) Chrome/105.0.0.0 Safari/537.36",PH,1,m,0,60,60,29-08-22,29-08-22,10:31:56,0,0,0,0,0,717,3.6.1,4,231,,m,753,804,1440,24,900,24,0,23,1440,1,odd,MacIntel,haks
89,89,768,trial,Mozilla,Netscape,"5.0 (Macintosh; Intel Mac OS X 10_13_6) AppleWebKit/537.36 (KHTML, like Gecko) Chrome/105.0.0.0 Safari/537.36",PH,0,m,0,61,61,29-08-22,29-08-22,10:31:56,0,0,0,0,0,717,3.6.1,5,231,,z,607,804,1440,24,900,24,0,23,1440,1,odd,MacIntel,stais
89,89,766,trial,Mozilla,Netscape,"5.0 (Macintosh; Intel Mac OS X 10_13_6) AppleWebKit/537.36 (KHTML, like Gecko) Chrome/105.0.0.0 Safari/537.36",Word,1,z,0,62,62,29-08-22,29-08-22,10:31:56,0,0,0,0,0,717,3.6.1,5,231,,z,621,804,1440,24,900,24,0,23,1440,1,odd,MacIntel,break
88,88,765,trial,Mozilla,Netscape,"5.0 (Macintosh; Intel Mac OS X 10_13_6) AppleWebKit/537.36 (KHTML, like Gecko) Chrome/105.0.0.0 Safari/537.36",Word,0,z,0,63,63,29-08-22,29-08-22,10:31:56,0,0,0,0,0,717,3.6.1,3,231,,m,732,804,1440,24,900,24,0,23,1440,1,odd,MacIntel,bib
88,88,765,trial,Mozilla,Netscape,"5.0 (Macintosh; Intel Mac OS X 10_13_6) AppleWebKit/537.36 (KHTML, like Gecko) Chrome/105.0.0.0 Safari/537.36",Word,1,z,0,64,64,29-08-22,29-08-22,10:31:56,0,0,0,0,0,717,3.6.1,5,231,,z,725,804,1440,24,900,24,0,23,1440,1,odd,MacIntel,baron
88,88,770,trial,Mozilla,Netscape,"5.0 (Macintosh; Intel Mac OS X 10_13_6) AppleWebKit/537.36 (KHTML, like Gecko) Chrome/105.0.0.0 Safari/537.36",PH,1,m,0,65,65,29-08-22,29-08-22,10:31:56,0,0,0,0,0,717,3.6.1,3,231,,m,1086,804,1440,24,900,24,0,23,1440,1,odd,MacIntel,rey
88,88,775,trial,Mozilla,Netscape,"5.0 (Macintosh; Intel Mac OS X 10_13_6) AppleWebKit/537.36 (KHTML, like Gecko) Chrome/105.0.0.0 Safari/537.36",NW,1,m,0,66,66,29-08-22,29-08-22,10:31:56,0,0,0,0,0,717,3.6.1,4,231,,m,1161,804,1440,24,900,24,0,23,1440,1,odd,MacIntel,brud
88,88,774,trial,Mozilla,Netscape,"5.0 (Macintosh; Intel Mac OS X 10_13_6) AppleWebKit/537.36 (KHTML, like Gecko) Chrome/105.0.0.0 Safari/537.36",Word,1,z,0,67,67,29-08-22,29-08-22,10:31:56,0,0,0,0,0,717,3.6.1,4,231,,z,648,804,1440,24,900,24,0,23,1440,1,odd,MacIntel,turn
88,88,773,trial,Mozilla,Netscape,"5.0 (Macintosh; Intel Mac OS X 10_13_6) AppleWebKit/537.36 (KHTML, like Gecko) Chrome/105.0.0.0 Safari/537.36",NW,1,m,0,68,68,29-08-22,29-08-22,10:31:56,0,0,0,0,0,717,3.6.1,7,231,,m,725,804,1440,24,900,24,0,23,1440,1,odd,MacIntel,thwilms
89,89,774,trial,Mozilla,Netscape,"5.0 (Macintosh; Intel Mac OS X 10_13_6) AppleWebKit/537.36 (KHTML, like Gecko) Chrome/105.0.0.0 Safari/537.36",NW,1,m,0,69,69,29-08-22,29-08-22,10:31:56,0,0,0,0,0,717,3.6.1,4,231,,m,821,804,1440,24,900,24,0,23,1440,1,odd,MacIntel,twom
89,89,773,trial,Mozilla,Netscape,"5.0 (Macintosh; Intel Mac OS X 10_13_6) AppleWebKit/537.36 (KHTML, like Gecko) Chrome/105.0.0.0 Safari/537.36",Word,1,z,0,70,70,29-08-22,29-08-22,10:31:56,0,0,0,0,0,717,3.6.1,4,231,,z,739,804,1440,24,900,24,0,23,1440,1,odd,MacIntel,miss
89,89,772,trial,Mozilla,Netscape,"5.0 (Macintosh; Intel Mac OS X 10_13_6) AppleWebKit/537.36 (KHTML, like Gecko) Chrome/105.0.0.0 Safari/537.36",PH,1,m,0,71,71,29-08-22,29-08-22,10:31:56,0,0,0,0,0,717,3.6.1,5,231,,m,667,804,1440,24,900,24,0,23,1440,1,odd,MacIntel,phley
89,89,773,trial,Mozilla,Netscape,"5.0 (Macintosh; Intel Mac OS X 10_13_6) AppleWebKit/537.36 (KHTML, like Gecko) Chrome/105.0.0.0 Safari/537.36",NW,1,m,0,72,72,29-08-22,29-08-22,10:31:56,0,0,0,0,0,717,3.6.1,5,231,,m,906,804,1440,24,900,24,0,23,1440,1,odd,MacIntel,cound
89,89,773,trial,Mozilla,Netscape,"5.0 (Macintosh; Intel Mac OS X 10_13_6) AppleWebKit/537.36 (KHTML, like Gecko) Chrome/105.0.0.0 Safari/537.36",PH,1,m,0,73,73,29-08-22,29-08-22,10:31:56,0,0,0,0,0,717,3.6.1,5,231,,m,741,804,1440,24,900,24,0,23,1440,1,odd,MacIntel,phete
89,89,771,trial,Mozilla,Netscape,"5.0 (Macintosh; Intel Mac OS X 10_13_6) AppleWebKit/537.36 (KHTML, like Gecko) Chrome/105.0.0.0 Safari/537.36",NW,1,m,0,74,74,29-08-22,29-08-22,10:31:56,0,0,0,0,0,717,3.6.1,5,231,,m,621,804,1440,24,900,24,0,23,1440,1,odd,MacIntel,fumps
89,89,773,trial,Mozilla,Netscape,"5.0 (Macintosh; Intel Mac OS X 10_13_6) AppleWebKit/537.36 (KHTML, like Gecko) Chrome/105.0.0.0 Safari/537.36",Word,1,z,0,75,75,29-08-22,29-08-22,10:31:56,0,0,0,0,0,717,3.6.1,5,231,,z,892,804,1440,24,900,24,0,23,1440,1,odd,MacIntel,globe
90,90,773,trial,Mozilla,Netscape,"5.0 (Macintosh; Intel Mac OS X 10_13_6) AppleWebKit/537.36 (KHTML, like Gecko) Chrome/105.0.0.0 Safari/537.36",Word,1,z,0,76,76,29-08-22,29-08-22,10:31:56,0,0,0,0,0,717,3.6.1,6,231,,z,836,804,1440,24,900,24,0,23,1440,1,odd,MacIntel,camera
90,90,773,trial,Mozilla,Netscape,"5.0 (Macintosh; Intel Mac OS X 10_13_6) AppleWebKit/537.36 (KHTML, like Gecko) Chrome/105.0.0.0 Safari/537.36",PH,1,m,0,77,77,29-08-22,29-08-22,10:31:56,0,0,0,0,0,717,3.6.1,7,231,,m,761,804,1440,24,900,24,0,23,1440,1,odd,MacIntel,scoules
90,90,773,trial,Mozilla,Netscape,"5.0 (Macintosh; Intel Mac OS X 10_13_6) AppleWebKit/537.36 (KHTML, like Gecko) Chrome/105.0.0.0 Safari/537.36",NW,1,m,0,78,78,29-08-22,29-08-22,10:31:56,0,0,0,0,0,717,3.6.1,5,231,,m,780,804,1440,24,900,24,0,23,1440,1,odd,MacIntel,wrurb
90,90,775,trial,Mozilla,Netscape,"5.0 (Macintosh; Intel Mac OS X 10_13_6) AppleWebKit/537.36 (KHTML, like Gecko) Chrome/105.0.0.0 Safari/537.36",NW,1,m,0,79,79,29-08-22,29-08-22,10:31:56,0,0,0,0,0,717,3.6.1,6,231,,m,883,804,1440,24,900,24,0,23,1440,1,odd,MacIntel,sleens
90,90,773,trial,Mozilla,Netscape,"5.0 (Macintosh; Intel Mac OS X 10_13_6) AppleWebKit/537.36 (KHTML, like Gecko) Chrome/105.0.0.0 Safari/537.36",PH,1,m,0,80,80,29-08-22,29-08-22,10:31:56,0,0,0,0,0,717,3.6.1,5,231,,m,671,804,1440,24,900,24,0,23,1440,1,odd,MacIntel,wurds
90,90,771,trial,Mozilla,Netscape,"5.0 (Macintosh; Intel Mac OS X 10_13_6) AppleWebKit/537.36 (KHTML, like Gecko) Chrome/105.0.0.0 Safari/537.36",Word,1,z,0,81,81,29-08-22,29-08-22,10:31:56,0,0,0,0,0,717,3.6.1,6,231,,z,549,804,1440,24,900,24,0,23,1440,1,odd,MacIntel,thrill
90,90,770,trial,Mozilla,Netscape,"5.0 (Macintosh; Intel Mac OS X 10_13_6) AppleWebKit/537.36 (KHTML, like Gecko) Chrome/105.0.0.0 Safari/537.36",Word,1,z,0,82,82,29-08-22,29-08-22,10:31:56,0,0,0,0,0,717,3.6.1,3,231,,z,704,804,1440,24,900,24,0,23,1440,1,odd,MacIntel,dog
90,90,769,trial,Mozilla,Netscape,"5.0 (Macintosh; Intel Mac OS X 10_13_6) AppleWebKit/537.36 (KHTML, like Gecko) Chrome/105.0.0.0 Safari/537.36",Word,1,z,0,83,83,29-08-22,29-08-22,10:31:56,0,0,0,0,0,717,3.6.1,6,231,,z,682,804,1440,24,900,24,0,23,1440,1,odd,MacIntel,throat
91,91,767,trial,Mozilla,Netscape,"5.0 (Macintosh; Intel Mac OS X 10_13_6) AppleWebKit/537.36 (KHTML, like Gecko) Chrome/105.0.0.0 Safari/537.36",Word,1,z,0,84,84,29-08-22,29-08-22,10:31:56,0,0,0,0,0,717,3.6.1,5,231,,z,613,804,1440,24,900,24,0,23,1440,1,odd,MacIntel,ghost
91,91,769,trial,Mozilla,Netscape,"5.0 (Macintosh; Intel Mac OS X 10_13_6) AppleWebKit/537.36 (KHTML, like Gecko) Chrome/105.0.0.0 Safari/537.36",NW,1,m,0,85,85,29-08-22,29-08-22,10:31:56,0,0,0,0,0,717,3.6.1,6,231,,m,976,804,1440,24,900,24,0,23,1440,1,odd,MacIntel,scrait
91,91,769,trial,Mozilla,Netscape,"5.0 (Macintosh; Intel Mac OS X 10_13_6) AppleWebKit/537.36 (KHTML, like Gecko) Chrome/105.0.0.0 Safari/537.36",NW,1,m,0,86,86,29-08-22,29-08-22,10:31:56,0,0,0,0,0,717,3.6.1,6,231,,m,708,804,1440,24,900,24,0,23,1440,1,odd,MacIntel,gladge
91,91,765,trial,Mozilla,Netscape,"5.0 (Macintosh; Intel Mac OS X 10_13_6) AppleWebKit/537.36 (KHTML, like Gecko) Chrome/105.0.0.0 Safari/537.36",Word,1,z,0,87,87,29-08-22,29-08-22,10:31:56,0,0,0,0,0,717,3.6.1,6,231,,z,436,804,1440,24,900,24,0,23,1440,1,odd,MacIntel,supper
91,91,763,trial,Mozilla,Netscape,"5.0 (Macintosh; Intel Mac OS X 10_13_6) AppleWebKit/537.36 (KHTML, like Gecko) Chrome/105.0.0.0 Safari/537.36",Word,1,z,0,88,88,29-08-22,29-08-22,10:31:56,0,0,0,0,0,717,3.6.1,4,231,,z,569,804,1440,24,900,24,0,23,1440,1,odd,MacIntel,yelp
90,90,764,trial,Mozilla,Netscape,"5.0 (Macintosh; Intel Mac OS X 10_13_6) AppleWebKit/537.36 (KHTML, like Gecko) Chrome/105.0.0.0 Safari/537.36",PH,0,m,0,89,89,29-08-22,29-08-22,10:31:56,0,0,0,0,0,717,3.6.1,5,231,,z,871,804,1440,24,900,24,0,23,1440,1,odd,MacIntel,maise
90,90,763,trial,Mozilla,Netscape,"5.0 (Macintosh; Intel Mac OS X 10_13_6) AppleWebKit/537.36 (KHTML, like Gecko) Chrome/105.0.0.0 Safari/537.36",Word,1,z,0,90,90,29-08-22,29-08-22,10:31:56,0,0,0,0,0,717,3.6.1,5,231,,z,717,804,1440,24,900,24,0,23,1440,1,odd,MacIntel,blush
90,90,763,trial,Mozilla,Netscape,"5.0 (Macintosh; Intel Mac OS X 10_13_6) AppleWebKit/537.36 (KHTML, like Gecko) Chrome/105.0.0.0 Safari/537.36",Word,1,z,0,91,91,29-08-22,29-08-22,10:31:56,0,0,0,0,0,717,3.6.1,4,231,,z,714,804,1440,24,900,24,0,23,1440,1,odd,MacIntel,flow
90,90,762,trial,Mozilla,Netscape,"5.0 (Macintosh; Intel Mac OS X 10_13_6) AppleWebKit/537.36 (KHTML, like Gecko) Chrome/105.0.0.0 Safari/537.36",Word,1,z,0,92,92,29-08-22,29-08-22,10:31:56,0,0,0,0,0,717,3.6.1,4,231,,z,689,804,1440,24,900,24,0,23,1440,1,odd,MacIntel,star
90,90,761,trial,Mozilla,Netscape,"5.0 (Macintosh; Intel Mac OS X 10_13_6) AppleWebKit/537.36 (KHTML, like Gecko) Chrome/105.0.0.0 Safari/537.36",Word,1,z,0,93,93,29-08-22,29-08-22,10:31:56,0,0,0,0,0,717,3.6.1,6,231,,z,628,804,1440,24,900,24,0,23,1440,1,odd,MacIntel,spirit
91,91,761,trial,Mozilla,Netscape,"5.0 (Macintosh; Intel Mac OS X 10_13_6) AppleWebKit/537.36 (KHTML, like Gecko) Chrome/105.0.0.0 Safari/537.36",Word,1,z,0,94,94,29-08-22,29-08-22,10:31:56,0,0,0,0,0,717,3.6.1,7,231,,z,766,804,1440,24,900,24,0,23,1440,1,odd,MacIntel,platter
91,91,760,trial,Mozilla,Netscape,"5.0 (Macintosh; Intel Mac OS X 10_13_6) AppleWebKit/537.36 (KHTML, like Gecko) Chrome/105.0.0.0 Safari/537.36",NW,1,m,0,95,95,29-08-22,29-08-22,10:31:56,0,0,0,0,0,717,3.6.1,5,231,,m,715,804,1440,24,900,24,0,23,1440,1,odd,MacIntel,psime
91,91,760,trial,Mozilla,Netscape,"5.0 (Macintosh; Intel Mac OS X 10_13_6) AppleWebKit/537.36 (KHTML, like Gecko) Chrome/105.0.0.0 Safari/537.36",Word,1,z,0,96,96,29-08-22,29-08-22,10:31:56,0,0,0,0,0,717,3.6.1,7,231,,z,752,804,1440,24,900,24,0,23,1440,1,odd,MacIntel,dungeon
91,91,759,trial,Mozilla,Netscape,"5.0 (Macintosh; Intel Mac OS X 10_13_6) AppleWebKit/537.36 (KHTML, like Gecko) Chrome/105.0.0.0 Safari/537.36",Word,1,z,0,97,97,29-08-22,29-08-22,10:31:56,0,0,0,0,0,717,3.6.1,6,231,,z,647,804,1440,24,900,24,0,23,1440,1,odd,MacIntel,banana
91,91,759,trial,Mozilla,Netscape,"5.0 (Macintosh; Intel Mac OS X 10_13_6) AppleWebKit/537.36 (KHTML, like Gecko) Chrome/105.0.0.0 Safari/537.36",PH,1,m,0,98,98,29-08-22,29-08-22,10:31:56,0,0,0,0,0,717,3.6.1,6,231,,m,789,804,1440,24,900,24,0,23,1440,1,odd,MacIntel,skamps
91,91,760,trial,Mozilla,Netscape,"5.0 (Macintosh; Intel Mac OS X 10_13_6) AppleWebKit/537.36 (KHTML, like Gecko) Chrome/105.0.0.0 Safari/537.36",PH,1,m,0,99,99,29-08-22,29-08-22,10:31:56,0,0,0,0,0,717,3.6.1,6,231,,m,815,804,1440,24,900,24,0,23,1440,1,odd,MacIntel,pleets
100,100,933,trial,Mozilla,Netscape,"5.0 (Macintosh; Intel Mac OS X 10_13_6) AppleWebKit/537.36 (KHTML, like Gecko) Chrome/105.0.0.0 Safari/537.36",PH,1,m,0,99,99,29-08-22,29-08-22,10:31:56,0,0,0,0,0,717,3.6.1,4,231,,m,933,804,1440,24,900,24,0,23,1440,1,odd,MacIntel,hepe
50,50,1198,trial,Mozilla,Netscape,"5.0 (Macintosh; Intel Mac OS X 10_13_6) AppleWebKit/537.36 (KHTML, like Gecko) Chrome/105.0.0.0 Safari/537.36",Word,0,z,0,99,99,29-08-22,29-08-22,10:31:56,0,0,0,0,0,717,3.6.1,7,231,,m,1463,804,1440,24,900,24,0,23,1440,1,odd,MacIntel,arbiter
67,67,1013,trial,Mozilla,Netscape,"5.0 (Macintosh; Intel Mac OS X 10_13_6) AppleWebKit/537.36 (KHTML, like Gecko) Chrome/105.0.0.0 Safari/537.36",Word,1,z,0,99,99,29-08-22,29-08-22,10:31:56,0,0,0,0,0,717,3.6.1,5,231,,m,642,804,1440,24,900,24,0,23,1440,1,odd,MacIntel,grove
75,75,954,trial,Mozilla,Netscape,"5.0 (Macintosh; Intel Mac OS X 10_13_6) AppleWebKit/537.36 (KHTML, like Gecko) Chrome/105.0.0.0 Safari/537.36",PH,1,m,0,99,99,29-08-22,29-08-22,10:31:56,0,0,0,0,0,717,3.6.1,5,231,,m,777,804,1440,24,900,24,0,23,1440,1,odd,MacIntel,cemed
80,80,888,trial,Mozilla,Netscape,"5.0 (Macintosh; Intel Mac OS X 10_13_6) AppleWebKit/537.36 (KHTML, like Gecko) Chrome/105.0.0.0 Safari/537.36",Word,1,z,0,99,99,29-08-22,29-08-22,10:31:56,0,0,0,0,0,717,3.6.1,4,231,,m,624,804,1440,24,900,24,0,23,1440,1,odd,MacIntel,camp
83,83,878,trial,Mozilla,Netscape,"5.0 (Macintosh; Intel Mac OS X 10_13_6) AppleWebKit/537.36 (KHTML, like Gecko) Chrome/105.0.0.0 Safari/537.36",NW,1,m,0,99,99,29-08-22,29-08-22,10:31:56,0,0,0,0,0,717,3.6.1,4,231,,m,829,804,1440,24,900,24,0,23,1440,1,odd,MacIntel,cupe
86,86,850,trial,Mozilla,Netscape,"5.0 (Macintosh; Intel Mac OS X 10_13_6) AppleWebKit/537.36 (KHTML, like Gecko) Chrome/105.0.0.0 Safari/537.36",NW,1,m,0,99,99,29-08-22,29-08-22,10:31:56,0,0,0,0,0,717,3.6.1,6,231,,m,680,804,1440,24,900,24,0,23,1440,1,odd,MacIntel,gromes
88,88,847,trial,Mozilla,Netscape,"5.0 (Macintosh; Intel Mac OS X 10_13_6) AppleWebKit/537.36 (KHTML, like Gecko) Chrome/105.0.0.0 Safari/537.36",Word,1,z,0,99,99,29-08-22,29-08-22,10:31:56,0,0,0,0,0,717,3.6.1,6,231,,m,825,804,1440,24,900,24,0,23,1440,1,odd,MacIntel,mutton
89,89,868,trial,Mozilla,Netscape,"5.0 (Macintosh; Intel Mac OS X 10_13_6) AppleWebKit/537.36 (KHTML, like Gecko) Chrome/105.0.0.0 Safari/537.36",PH,1,m,0,99,99,29-08-22,29-08-22,10:31:56,0,0,0,0,0,717,3.6.1,4,231,,m,1037,804,1440,24,900,24,0,23,1440,1,odd,MacIntel,berd
80,80,859,trial,Mozilla,Netscape,"5.0 (Macintosh; Intel Mac OS X 10_13_6) AppleWebKit/537.36 (KHTML, like Gecko) Chrome/105.0.0.0 Safari/537.36",Word,0,z,0,99,99,29-08-22,29-08-22,10:31:56,0,0,0,0,0,717,3.6.1,3,231,,m,778,804,1440,24,900,24,0,23,1440,1,odd,MacIntel,lax
73,73,845,trial,Mozilla,Netscape,"5.0 (Macintosh; Intel Mac OS X 10_13_6) AppleWebKit/537.36 (KHTML, like Gecko) Chrome/105.0.0.0 Safari/537.36",NW,0,m,0,99,99,29-08-22,29-08-22,10:31:56,0,0,0,0,0,717,3.6.1,5,231,,m,711,804,1440,24,900,24,0,23,1440,1,odd,MacIntel,stoil
75,75,829,trial,Mozilla,Netscape,"5.0 (Macintosh; Intel Mac OS X 10_13_6) AppleWebKit/537.36 (KHTML, like Gecko) Chrome/105.0.0.0 Safari/537.36",PH,1,m,0,99,99,29-08-22,29-08-22,10:31:56,0,0,0,0,0,717,3.6.1,5,231,,m,652,804,1440,24,900,24,0,23,1440,1,odd,MacIntel,wurnt
69,69,828,trial,Mozilla,Netscape,"5.0 (Macintosh; Intel Mac OS X 10_13_6) AppleWebKit/537.36 (KHTML, like Gecko) Chrome/105.0.0.0 Safari/537.36",Word,0,z,0,99,99,29-08-22,29-08-22,10:31:56,0,0,0,0,0,717,3.6.1,6,231,,m,809,804,1440,24,900,24,0,23,1440,1,odd,MacIntel,belfry
71,71,828,trial,Mozilla,Netscape,"5.0 (Macintosh; Intel Mac OS X 10_13_6) AppleWebKit/537.36 (KHTML, like Gecko) Chrome/105.0.0.0 Safari/537.36",Word,1,z,0,99,99,29-08-22,29-08-22,10:31:56,0,0,0,0,0,717,3.6.1,6,231,,m,827,804,1440,24,900,24,0,23,1440,1,odd,MacIntel,starch
73,73,829,trial,Mozilla,Netscape,"5.0 (Macintosh; Intel Mac OS X 10_13_6) AppleWebKit/537.36 (KHTML, like Gecko) Chrome/105.0.0.0 Safari/537.36",Word,1,z,0,99,99,29-08-22,29-08-22,10:31:56,0,0,0,0,0,717,3.6.1,3,231,,m,850,804,1440,24,900,24,0,23,1440,1,odd,MacIntel,rib
75,75,822,trial,Mozilla,Netscape,"5.0 (Macintosh; Intel Mac OS X 10_13_6) AppleWebKit/537.36 (KHTML, like Gecko) Chrome/105.0.0.0 Safari/537.36",Word,1,z,0,99,99,29-08-22,29-08-22,10:31:56,0,0,0,0,0,717,3.6.1,4,231,,m,722,804,1440,24,900,24,0,23,1440,1,odd,MacIntel,vain
76,76,827,trial,Mozilla,Netscape,"5.0 (Macintosh; Intel Mac OS X 10_13_6) AppleWebKit/537.36 (KHTML, like Gecko) Chrome/105.0.0.0 Safari/537.36",Word,1,z,0,99,99,29-08-22,29-08-22,10:31:56,0,0,0,0,0,717,3.6.1,5,231,,m,905,804,1440,24,900,24,0,23,1440,1,odd,MacIntel,stale
78,78,822,trial,Mozilla,Netscape,"5.0 (Macintosh; Intel Mac OS X 10_13_6) AppleWebKit/537.36 (KHTML, like Gecko) Chrome/105.0.0.0 Safari/537.36",Word,1,z,0,99,99,29-08-22,29-08-22,10:31:56,0,0,0,0,0,717,3.6.1,5,231,,m,737,804,1440,24,900,24,0,23,1440,1,odd,MacIntel,crock
79,79,818,trial,Mozilla,Netscape,"5.0 (Macintosh; Intel Mac OS X 10_13_6) AppleWebKit/537.36 (KHTML, like Gecko) Chrome/105.0.0.0 Safari/537.36",NW,1,m,0,99,99,29-08-22,29-08-22,10:31:56,0,0,0,0,0,717,3.6.1,4,231,,m,737,804,1440,24,900,24,0,23,1440,1,odd,MacIntel,parn
80,80,819,trial,Mozilla,Netscape,"5.0 (Macintosh; Intel Mac OS X 10_13_6) AppleWebKit/537.36 (KHTML, like Gecko) Chrome/105.0.0.0 Safari/537.36",PH,1,m,0,99,99,29-08-22,29-08-22,10:31:56,0,0,0,0,0,717,3.6.1,7,231,,m,848,804,1440,24,900,24,0,23,1440,1,odd,MacIntel,spaised
76,76,846,trial,Mozilla,Netscape,"5.0 (Macintosh; Intel Mac OS X 10_13_6) AppleWebKit/537.36 (KHTML, like Gecko) Chrome/105.0.0.0 Safari/537.36",Word,0,z,0,99,99,29-08-22,29-08-22,10:31:56,0,0,0,0,0,717,3.6.1,4,231,,m,1379,804,1440,24,900,24,0,23,1440,1,odd,MacIntel,sine
77,77,838,trial,Mozilla,Netscape,"5.0 (Macintosh; Intel Mac OS X 10_13_6) AppleWebKit/537.36 (KHTML, like Gecko) Chrome/105.0.0.0 Safari/537.36",Word,1,z,0,99,99,29-08-22,29-08-22,10:31:56,0,0,0,0,0,717,3.6.1,4,231,,m,674,804,1440,24,900,24,0,23,1440,1,odd,MacIntel,step
78,78,832,trial,Mozilla,Netscape,"5.0 (Macintosh; Intel Mac OS X 10_13_6) AppleWebKit/537.36 (KHTML, like Gecko) Chrome/105.0.0.0 Safari/537.36",NW,1,m,0,99,99,29-08-22,29-08-22,10:31:56,0,0,0,0,0,717,3.6.1,4,231,,m,699,804,1440,24,900,24,0,23,1440,1,odd,MacIntel,dwut
79,79,824,trial,Mozilla,Netscape,"5.0 (Macintosh; Intel Mac OS X 10_13_6) AppleWebKit/537.36 (KHTML, like Gecko) Chrome/105.0.0.0 Safari/537.36",Word,1,z,0,99,99,29-08-22,29-08-22,10:31:56,0,0,0,0,0,717,3.6.1,5,231,,m,640,804,1440,24,900,24,0,23,1440,1,odd,MacIntel,order
80,80,821,trial,Mozilla,Netscape,"5.0 (Macintosh; Intel Mac OS X 10_13_6) AppleWebKit/537.36 (KHTML, like Gecko) Chrome/105.0.0.0 Safari/537.36",NW,1,m,0,99,99,29-08-22,29-08-22,10:31:56,0,0,0,0,0,717,3.6.1,6,231,,m,757,804,1440,24,900,24,0,23,1440,1,odd,MacIntel,plolks
81,81,820,trial,Mozilla,Netscape,"5.0 (Macintosh; Intel Mac OS X 10_13_6) AppleWebKit/537.36 (KHTML, like Gecko) Chrome/105.0.0.0 Safari/537.36",NW,1,m,0,99,99,29-08-22,29-08-22,10:31:56,0,0,0,0,0,717,3.6.1,6,231,,m,785,804,1440,24,900,24,0,23,1440,1,odd,MacIntel,wralph
81,81,817,trial,Mozilla,Netscape,"5.0 (Macintosh; Intel Mac OS X 10_13_6) AppleWebKit/537.36 (KHTML, like Gecko) Chrome/105.0.0.0 Safari/537.36",Word,1,z,0,99,99,29-08-22,29-08-22,10:31:56,0,0,0,0,0,717,3.6.1,6,231,,m,730,804,1440,24,900,24,0,23,1440,1,odd,MacIntel,jargon
82,82,820,trial,Mozilla,Netscape,"5.0 (Macintosh; Intel Mac OS X 10_13_6) AppleWebKit/537.36 (KHTML, like Gecko) Chrome/105.0.0.0 Safari/537.36",NW,1,m,0,99,99,29-08-22,29-08-22,10:31:56,0,0,0,0,0,717,3.6.1,4,231,,m,896,804,1440,24,900,24,0,23,1440,1,odd,MacIntel,rurk
83,83,816,trial,Mozilla,Netscape,"5.0 (Macintosh; Intel Mac OS X 10_13_6) AppleWebKit/537.36 (KHTML, like Gecko) Chrome/105.0.0.0 Safari/537.36",NW,1,m,0,99,99,29-08-22,29-08-22,10:31:56,0,0,0,0,0,717,3.6.1,3,231,,m,727,804,1440,24,900,24,0,23,1440,1,odd,MacIntel,erb
83,83,807,trial,Mozilla,Netscape,"5.0 (Macintosh; Intel Mac OS X 10_13_6) AppleWebKit/537.36 (KHTML, like Gecko) Chrome/105.0.0.0 Safari/537.36",Word,1,z,0,99,99,29-08-22,29-08-22,10:31:56,0,0,0,0,0,717,3.6.1,4,231,,m,543,804,1440,24,900,24,0,23,1440,1,odd,MacIntel,soft
84,84,804,trial,Mozilla,Netscape,"5.0 (Macintosh; Intel Mac OS X 10_13_6) AppleWebKit/537.36 (KHTML, like Gecko) Chrome/105.0.0.0 Safari/537.36",Word,1,z,0,99,99,29-08-22,29-08-22,10:31:56,0,0,0,0,0,717,3.6.1,7,231,,m,703,804,1440,24,900,24,0,23,1440,1,odd,MacIntel,newborn
84,84,801,trial,Mozilla,Netscape,"5.0 (Macintosh; Intel Mac OS X 10_13_6) AppleWebKit/537.36 (KHTML, like Gecko) Chrome/105.0.0.0 Safari/537.36",PH,1,m,0,99,99,29-08-22,29-08-22,10:31:56,0,0,0,0,0,717,3.6.1,6,231,,m,719,804,1440,24,900,24,0,23,1440,1,odd,MacIntel,wroons
85,85,796,trial,Mozilla,Netscape,"5.0 (Macintosh; Intel Mac OS X 10_13_6) AppleWebKit/537.36 (KHTML, like Gecko) Chrome/105.0.0.0 Safari/537.36",Word,1,z,0,99,99,29-08-22,29-08-22,10:31:56,0,0,0,0,0,717,3.6.1,4,231,,m,633,804,1440,24,900,24,0,23,1440,1,odd,MacIntel,zone
85,85,794,trial,Mozilla,Netscape,"5.0 (Macintosh; Intel Mac OS X 10_13_6) AppleWebKit/537.36 (KHTML, like Gecko) Chrome/105.0.0.0 Safari/537.36",NW,1,m,0,99,99,29-08-22,29-08-22,10:31:56,0,0,0,0,0,717,3.6.1,6,231,,m,741,804,1440,24,900,24,0,23,1440,1,odd,MacIntel,threbs
86,86,792,trial,Mozilla,Netscape,"5.0 (Macintosh; Intel Mac OS X 10_13_6) AppleWebKit/537.36 (KHTML, like Gecko) Chrome/105.0.0.0 Safari/537.36",Word,1,z,0,99,99,29-08-22,29-08-22,10:31:56,0,0,0,0,0,717,3.6.1,6,231,,m,711,804,1440,24,900,24,0,23,1440,1,odd,MacIntel,planet
86,86,790,trial,Mozilla,Netscape,"5.0 (Macintosh; Intel Mac OS X 10_13_6) AppleWebKit/537.36 (KHTML, like Gecko) Chrome/105.0.0.0 Safari/537.36",PH,1,m,0,99,99,29-08-22,29-08-22,10:31:56,0,0,0,0,0,717,3.6.1,6,231,,m,723,804,1440,24,900,24,0,23,1440,1,odd,MacIntel,ghulfs
86,86,792,trial,Mozilla,Netscape,"5.0 (Macintosh; Intel Mac OS X 10_13_6) AppleWebKit/537.36 (KHTML, like Gecko) Chrome/105.0.0.0 Safari/537.36",PH,1,m,0,99,99,29-08-22,29-08-22,10:31:56,0,0,0,0,0,717,3.6.1,4,231,,m,871,804,1440,24,900,24,0,23,1440,1,odd,MacIntel,wran
87,87,788,trial,Mozilla,Netscape,"5.0 (Macintosh; Intel Mac OS X 10_13_6) AppleWebKit/537.36 (KHTML, like Gecko) Chrome/105.0.0.0 Safari/537.36",Word,1,z,0,99,99,29-08-22,29-08-22,10:31:56,0,0,0,0,0,717,3.6.1,4,231,,m,608,804,1440,24,900,24,0,23,1440,1,odd,MacIntel,blow
85,85,792,trial,Mozilla,Netscape,"5.0 (Macintosh; Intel Mac OS X 10_13_6) AppleWebKit/537.36 (KHTML, like Gecko) Chrome/105.0.0.0 Safari/537.36",Word,0,z,0,99,99,29-08-22,29-08-22,10:31:56,0,0,0,0,0,717,3.6.1,7,231,,m,980,804,1440,24,900,24,0,23,1440,1,odd,MacIntel,charter
85,85,788,trial,Mozilla,Netscape,"5.0 (Macintosh; Intel Mac OS X 10_13_6) AppleWebKit/537.36 (KHTML, like Gecko) Chrome/105.0.0.0 Safari/537.36",Word,1,z,0,99,99,29-08-22,29-08-22,10:31:56,0,0,0,0,0,717,3.6.1,5,231,,m,611,804,1440,24,900,24,0,23,1440,1,odd,MacIntel,dusty
85,85,787,trial,Mozilla,Netscape,"5.0 (Macintosh; Intel Mac OS X 10_13_6) AppleWebKit/537.36 (KHTML, like Gecko) Chrome/105.0.0.0 Safari/537.36",NW,1,m,0,99,99,29-08-22,29-08-22,10:31:56,0,0,0,0,0,717,3.6.1,5,231,,m,743,804,1440,24,900,24,0,23,1440,1,odd,MacIntel,pilms
86,86,789,trial,Mozilla,Netscape,"5.0 (Macintosh; Intel Mac OS X 10_13_6) AppleWebKit/537.36 (KHTML, like Gecko) Chrome/105.0.0.0 Safari/537.36",Word,1,z,0,99,99,29-08-22,29-08-22,10:31:56,0,0,0,0,0,717,3.6.1,5,231,,m,870,804,1440,24,900,24,0,23,1440,1,odd,MacIntel,audit
86,86,788,trial,Mozilla,Netscape,"5.0 (Macintosh; Intel Mac OS X 10_13_6) AppleWebKit/537.36 (KHTML, like Gecko) Chrome/105.0.0.0 Safari/537.36",PH,1,m,0,99,99,29-08-22,29-08-22,10:31:56,0,0,0,0,0,717,3.6.1,4,231,,m,760,804,1440,24,900,24,0,23,1440,1,odd,MacIntel,dror
86,86,796,trial,Mozilla,Netscape,"5.0 (Macintosh; Intel Mac OS X 10_13_6) AppleWebKit/537.36 (KHTML, like Gecko) Chrome/105.0.0.0 Safari/537.36",PH,1,m,0,99,99,29-08-22,29-08-22,10:31:56,0,0,0,0,0,717,3.6.1,6,231,,m,1134,804,1440,24,900,24,0,23,1440,1,odd,MacIntel,whefts
87,87,792,trial,Mozilla,Netscape,"5.0 (Macintosh; Intel Mac OS X 10_13_6) AppleWebKit/537.36 (KHTML, like Gecko) Chrome/105.0.0.0 Safari/537.36",Word,1,z,0,99,99,29-08-22,29-08-22,10:31:56,0,0,0,0,0,717,3.6.1,5,231,,m,616,804,1440,24,900,24,0,23,1440,1,odd,MacIntel,patch
85,85,789,trial,Mozilla,Netscape,"5.0 (Macintosh; Intel Mac OS X 10_13_6) AppleWebKit/537.36 (KHTML, like Gecko) Chrome/105.0.0.0 Safari/537.36",PH,0,m,0,99,99,29-08-22,29-08-22,10:31:56,0,0,0,0,0,717,3.6.1,7,231,,m,650,804,1440,24,900,24,0,23,1440,1,odd,MacIntel,ghoasts
85,85,790,trial,Mozilla,Netscape,"5.0 (Macintosh; Intel Mac OS X 10_13_6) AppleWebKit/537.36 (KHTML, like Gecko) Chrome/105.0.0.0 Safari/537.36",NW,1,m,0,99,99,29-08-22,29-08-22,10:31:56,0,0,0,0,0,717,3.6.1,4,231,,m,825,804,1440,24,900,24,0,23,1440,1,odd,MacIntel,puct
85,85,789,trial,Mozilla,Netscape,"5.0 (Macintosh; Intel Mac OS X 10_13_6) AppleWebKit/537.36 (KHTML, like Gecko) Chrome/105.0.0.0 Safari/537.36",PH,1,m,0,99,99,29-08-22,29-08-22,10:31:56,0,0,0,0,0,717,3.6.1,3,231,,m,781,804,1440,24,900,24,0,23,1440,1,odd,MacIntel,orl
86,86,787,trial,Mozilla,Netscape,"5.0 (Macintosh; Intel Mac OS X 10_13_6) AppleWebKit/537.36 (KHTML, like Gecko) Chrome/105.0.0.0 Safari/537.36",Word,1,z,0,99,99,29-08-22,29-08-22,10:31:56,0,0,0,0,0,717,3.6.1,7,231,,m,680,804,1440,24,900,24,0,23,1440,1,odd,MacIntel,measure
86,86,788,trial,Mozilla,Netscape,"5.0 (Macintosh; Intel Mac OS X 10_13_6) AppleWebKit/537.36 (KHTML, like Gecko) Chrome/105.0.0.0 Safari/537.36",Word,1,z,0,99,99,29-08-22,29-08-22,10:31:56,0,0,0,0,0,717,3.6.1,5,231,,m,803,804,1440,24,900,24,0,23,1440,1,odd,MacIntel,tiger
84,84,790,trial,Mozilla,Netscape,"5.0 (Macintosh; Intel Mac OS X 10_13_6) AppleWebKit/537.36 (KHTML, like Gecko) Chrome/105.0.0.0 Safari/537.36",PH,0,m,0,99,99,29-08-22,29-08-22,10:31:56,0,0,0,0,0,717,3.6.1,6,231,,m,928,804,1440,24,900,24,0,23,1440,1,odd,MacIntel,beaves
85,85,793,trial,Mozilla,Netscape,"5.0 (Macintosh; Intel Mac OS X 10_13_6) AppleWebKit/537.36 (KHTML, like Gecko) Chrome/105.0.0.0 Safari/537.36",NW,1,m,0,99,99,29-08-22,29-08-22,10:31:56,0,0,0,0,0,717,3.6.1,5,231,,m,921,804,1440,24,900,24,0,23,1440,1,odd,MacIntel,dunds
85,85,793,trial,Mozilla,Netscape,"5.0 (Macintosh; Intel Mac OS X 10_13_6) AppleWebKit/537.36 (KHTML, like Gecko) Chrome/105.0.0.0 Safari/537.36",Word,1,z,0,99,99,29-08-22,29-08-22,10:31:56,0,0,0,0,0,717,3.6.1,4,231,,m,828,804,1440,24,900,24,0,23,1440,1,odd,MacIntel,haul
85,85,796,trial,Mozilla,Netscape,"5.0 (Macintosh; Intel Mac OS X 10_13_6) AppleWebKit/537.36 (KHTML, like Gecko) Chrome/105.0.0.0 Safari/537.36",NW,1,m,0,99,99,29-08-22,29-08-22,10:31:56,0,0,0,0,0,717,3.6.1,7,231,,m,903,804,1440,24,900,24,0,23,1440,1,odd,MacIntel,thraves
85,85,795,trial,Mozilla,Netscape,"5.0 (Macintosh; Intel Mac OS X 10_13_6) AppleWebKit/537.36 (KHTML, like Gecko) Chrome/105.0.0.0 Safari/537.36",NW,1,m,0,99,99,29-08-22,29-08-22,10:31:56,0,0,0,0,0,717,3.6.1,5,231,,m,773,804,1440,24,900,24,0,23,1440,1,odd,MacIntel,waffs
86,86,800,trial,Mozilla,Netscape,"5.0 (Macintosh; Intel Mac OS X 10_13_6) AppleWebKit/537.36 (KHTML, like Gecko) Chrome/105.0.0.0 Safari/537.36",Word,1,z,0,99,99,29-08-22,29-08-22,10:31:56,0,0,0,0,0,717,3.6.1,4,231,,m,1085,804,1440,24,900,24,0,23,1440,1,odd,MacIntel,worn
86,86,802,trial,Mozilla,Netscape,"5.0 (Macintosh; Intel Mac OS X 10_13_6) AppleWebKit/537.36 (KHTML, like Gecko) Chrome/105.0.0.0 Safari/537.36",Word,1,z,0,99,99,29-08-22,29-08-22,10:31:56,0,0,0,0,0,717,3.6.1,5,231,,m,879,804,1440,24,900,24,0,23,1440,1,odd,MacIntel,pupil
86,86,800,trial,Mozilla,Netscape,"5.0 (Macintosh; Intel Mac OS X 10_13_6) AppleWebKit/537.36 (KHTML, like Gecko) Chrome/105.0.0.0 Safari/537.36",NW,1,m,0,99,99,29-08-22,29-08-22,10:31:56,0,0,0,0,0,717,3.6.1,6,231,,m,700,804,1440,24,900,24,0,23,1440,1,odd,MacIntel,thwups
86,86,797,trial,Mozilla,Netscape,"5.0 (Macintosh; Intel Mac OS X 10_13_6) AppleWebKit/537.36 (KHTML, like Gecko) Chrome/105.0.0.0 Safari/537.36",Word,1,z,0,99,99,29-08-22,29-08-22,10:31:56,0,0,0,0,0,717,3.6.1,7,231,,m,649,804,1440,24,900,24,0,23,1440,1,odd,MacIntel,referee
87,87,797,trial,Mozilla,Netscape,"5.0 (Macintosh; Intel Mac OS X 10_13_6) AppleWebKit/537.36 (KHTML, like Gecko) Chrome/105.0.0.0 Safari/537.36",NW,1,m,0,99,99,29-08-22,29-08-22,10:31:56,0,0,0,0,0,717,3.6.1,7,231,,m,799,804,1440,24,900,24,0,23,1440,1,odd,MacIntel,spoints
87,87,798,trial,Mozilla,Netscape,"5.0 (Macintosh; Intel Mac OS X 10_13_6) AppleWebKit/537.36 (KHTML, like Gecko) Chrome/105.0.0.0 Safari/537.36",NW,1,m,0,99,99,29-08-22,29-08-22,10:31:56,0,0,0,0,0,717,3.6.1,5,231,,m,856,804,1440,24,900,24,0,23,1440,1,odd,MacIntel,tadds
87,87,798,trial,Mozilla,Netscape,"5.0 (Macintosh; Intel Mac OS X 10_13_6) AppleWebKit/537.36 (KHTML, like Gecko) Chrome/105.0.0.0 Safari/537.36",PH,1,m,0,99,99,29-08-22,29-08-22,10:31:56,0,0,0,0,0,717,3.6.1,7,231,,m,788,804,1440,24,900,24,0,23,1440,1,odd,MacIntel,ghaffed
87,87,799,trial,Mozilla,Netscape,"5.0 (Macintosh; Intel Mac OS X 10_13_6) AppleWebKit/537.36 (KHTML, like Gecko) Chrome/105.0.0.0 Safari/537.36",NW,1,m,0,99,99,29-08-22,29-08-22,10:31:56,0,0,0,0,0,717,3.6.1,6,231,,m,853,804,1440,24,900,24,0,23,1440,1,odd,MacIntel,knults
88,88,800,trial,Mozilla,Netscape,"5.0 (Macintosh; Intel Mac OS X 10_13_6) AppleWebKit/537.36 (KHTML, like Gecko) Chrome/105.0.0.0 Safari/537.36",Word,1,z,0,99,99,29-08-22,29-08-22,10:31:56,0,0,0,0,0,717,3.6.1,5,231,,m,841,804,1440,24,900,24,0,23,1440,1,odd,MacIntel,wrack
88,88,798,trial,Mozilla,Netscape,"5.0 (Macintosh; Intel Mac OS X 10_13_6) AppleWebKit/537.36 (KHTML, like Gecko) Chrome/105.0.0.0 Safari/537.36",NW,1,m,0,99,99,29-08-22,29-08-22,10:31:56,0,0,0,0,0,717,3.6.1,5,231,,m,688,804,1440,24,900,24,0,23,1440,1,odd,MacIntel,snive
88,88,798,trial,Mozilla,Netscape,"5.0 (Macintosh; Intel Mac OS X 10_13_6) AppleWebKit/537.36 (KHTML, like Gecko) Chrome/105.0.0.0 Safari/537.36",NW,1,m,0,99,99,29-08-22,29-08-22,10:31:56,0,0,0,0,0,717,3.6.1,6,231,,m,815,804,1440,24,900,24,0,23,1440,1,odd,MacIntel,whotes
88,88,798,trial,Mozilla,Netscape,"5.0 (Macintosh; Intel Mac OS X 10_13_6) AppleWebKit/537.36 (KHTML, like Gecko) Chrome/105.0.0.0 Safari/537.36",Word,1,z,0,99,99,29-08-22,29-08-22,10:31:56,0,0,0,0,0,717,3.6.1,5,231,,m,810,804,1440,24,900,24,0,23,1440,1,odd,MacIntel,scare
88,88,798,trial,Mozilla,Netscape,"5.0 (Macintosh; Intel Mac OS X 10_13_6) AppleWebKit/537.36 (KHTML, like Gecko) Chrome/105.0.0.0 Safari/537.36",PH,1,m,0,99,99,29-08-22,29-08-22,10:31:56,0,0,0,0,0,717,3.6.1,5,231,,m,757,804,1440,24,900,24,0,23,1440,1,odd,MacIntel,gnone
87,87,796,trial,Mozilla,Netscape,"5.0 (Macintosh; Intel Mac OS X 10_13_6) AppleWebKit/537.36 (KHTML, like Gecko) Chrome/105.0.0.0 Safari/537.36",NW,0,m,0,99,99,29-08-22,29-08-22,10:31:56,0,0,0,0,0,717,3.6.1,6,231,,m,661,804,1440,24,900,24,0,23,1440,1,odd,MacIntel,sluped
87,87,804,trial,Mozilla,Netscape,"5.0 (Macintosh; Intel Mac OS X 10_13_6) AppleWebKit/537.36 (KHTML, like Gecko) Chrome/105.0.0.0 Safari/537.36",Word,1,z,0,99,99,29-08-22,29-08-22,10:31:56,0,0,0,0,0,717,3.6.1,6,231,,m,1353,804,1440,24,900,24,0,23,1440,1,odd,MacIntel,misery
87,87,802,trial,Mozilla,Netscape,"5.0 (Macintosh; Intel Mac OS X 10_13_6) AppleWebKit/537.36 (KHTML, like Gecko) Chrome/105.0.0.0 Safari/537.36",Word,1,z,0,99,99,29-08-22,29-08-22,10:31:56,0,0,0,0,0,717,3.6.1,6,231,,m,652,804,1440,24,900,24,0,23,1440,1,odd,MacIntel,breath
88,88,801,trial,Mozilla,Netscape,"5.0 (Macintosh; Intel Mac OS X 10_13_6) AppleWebKit/537.36 (KHTML, like Gecko) Chrome/105.0.0.0 Safari/537.36",PH,1,m,0,99,99,29-08-22,29-08-22,10:31:56,0,0,0,0,0,717,3.6.1,5,231,,m,721,804,1440,24,900,24,0,23,1440,1,odd,MacIntel,kubed
88,88,799,trial,Mozilla,Netscape,"5.0 (Macintosh; Intel Mac OS X 10_13_6) AppleWebKit/537.36 (KHTML, like Gecko) Chrome/105.0.0.0 Safari/537.36",Word,1,z,0,99,99,29-08-22,29-08-22,10:31:56,0,0,0,0,0,717,3.6.1,6,231,,m,720,804,1440,24,900,24,0,23,1440,1,odd,MacIntel,tomato
88,88,799,trial,Mozilla,Netscape,"5.0 (Macintosh; Intel Mac OS X 10_13_6) AppleWebKit/537.36 (KHTML, like Gecko) Chrome/105.0.0.0 Safari/537.36",PH,1,m,0,99,99,29-08-22,29-08-22,10:31:56,0,0,0,0,0,717,3.6.1,4,231,,m,745,804,1440,24,900,24,0,23,1440,1,odd,MacIntel,fize
88,88,800,trial,Mozilla,Netscape,"5.0 (Macintosh; Intel Mac OS X 10_13_6) AppleWebKit/537.36 (KHTML, like Gecko) Chrome/105.0.0.0 Safari/537.36",PH,1,m,0,99,99,29-08-22,29-08-22,10:31:56,0,0,0,0,0,717,3.6.1,6,231,,m,897,804,1440,24,900,24,0,23,1440,1,odd,MacIntel,chaist
88,88,798,trial,Mozilla,Netscape,"5.0 (Macintosh; Intel Mac OS X 10_13_6) AppleWebKit/537.36 (KHTML, like Gecko) Chrome/105.0.0.0 Safari/537.36",PH,1,m,0,99,99,29-08-22,29-08-22,10:31:56,0,0,0,0,0,717,3.6.1,3,231,,m,660,804,1440,24,900,24,0,23,1440,1,odd,MacIntel,oad
87,87,800,trial,Mozilla,Netscape,"5.0 (Macintosh; Intel Mac OS X 10_13_6) AppleWebKit/537.36 (KHTML, like Gecko) Chrome/105.0.0.0 Safari/537.36",Word,0,z,0,99,99,29-08-22,29-08-22,10:31:56,0,0,0,0,0,717,3.6.1,4,231,,m,945,804,1440,24,900,24,0,23,1440,1,odd,MacIntel,fane
87,87,800,trial,Mozilla,Netscape,"5.0 (Macintosh; Intel Mac OS X 10_13_6) AppleWebKit/537.36 (KHTML, like Gecko) Chrome/105.0.0.0 Safari/537.36",NW,1,m,0,99,99,29-08-22,29-08-22,10:31:56,0,0,0,0,0,717,3.6.1,4,231,,m,786,804,1440,24,900,24,0,23,1440,1,odd,MacIntel,zowl
87,87,800,trial,Mozilla,Netscape,"5.0 (Macintosh; Intel Mac OS X 10_13_6) AppleWebKit/537.36 (KHTML, like Gecko) Chrome/105.0.0.0 Safari/537.36",Word,1,z,0,99,99,29-08-22,29-08-22,10:31:56,0,0,0,0,0,717,3.6.1,6,231,,m,782,804,1440,24,900,24,0,23,1440,1,odd,MacIntel,neuter
88,88,798,trial,Mozilla,Netscape,"5.0 (Macintosh; Intel Mac OS X 10_13_6) AppleWebKit/537.36 (KHTML, like Gecko) Chrome/105.0.0.0 Safari/537.36",Word,1,z,0,99,99,29-08-22,29-08-22,10:31:56,0,0,0,0,0,717,3.6.1,6,231,,m,705,804,1440,24,900,24,0,23,1440,1,odd,MacIntel,beauty
88,88,797,trial,Mozilla,Netscape,"5.0 (Macintosh; Intel Mac OS X 10_13_6) AppleWebKit/537.36 (KHTML, like Gecko) Chrome/105.0.0.0 Safari/537.36",PH,1,m,0,99,99,29-08-22,29-08-22,10:31:56,0,0,0,0,0,717,3.6.1,5,231,,m,668,804,1440,24,900,24,0,23,1440,1,odd,MacIntel,cuild
88,88,798,trial,Mozilla,Netscape,"5.0 (Macintosh; Intel Mac OS X 10_13_6) AppleWebKit/537.36 (KHTML, like Gecko) Chrome/105.0.0.0 Safari/537.36",PH,1,m,0,99,99,29-08-22,29-08-22,10:31:56,0,0,0,0,0,717,3.6.1,5,231,,m,875,804,1440,24,900,24,0,23,1440,1,odd,MacIntel,wrync
88,88,797,trial,Mozilla,Netscape,"5.0 (Macintosh; Intel Mac OS X 10_13_6) AppleWebKit/537.36 (KHTML, like Gecko) Chrome/105.0.0.0 Safari/537.36",PH,1,m,0,99,99,29-08-22,29-08-22,10:31:56,0,0,0,0,0,717,3.6.1,7,231,,m,753,804,1440,24,900,24,0,23,1440,1,odd,MacIntel,phlukes
88,88,796,trial,Mozilla,Netscape,"5.0 (Macintosh; Intel Mac OS X 10_13_6) AppleWebKit/537.36 (KHTML, like Gecko) Chrome/105.0.0.0 Safari/537.36",Word,1,z,0,99,99,29-08-22,29-08-22,10:31:56,0,0,0,0,0,717,3.6.1,4,231,,m,714,804,1440,24,900,24,0,23,1440,1,odd,MacIntel,wary
88,88,796,trial,Mozilla,Netscape,"5.0 (Macintosh; Intel Mac OS X 10_13_6) AppleWebKit/537.36 (KHTML, like Gecko) Chrome/105.0.0.0 Safari/537.36",PH,1,m,0,99,99,29-08-22,29-08-22,10:31:56,0,0,0,0,0,717,3.6.1,6,231,,m,799,804,1440,24,900,24,0,23,1440,1,odd,MacIntel,scadds
88,88,801,trial,Mozilla,Netscape,"5.0 (Macintosh; Intel Mac OS X 10_13_6) AppleWebKit/537.36 (KHTML, like Gecko) Chrome/105.0.0.0 Safari/537.36",NW,1,m,0,99,99,29-08-22,29-08-22,10:31:56,0,0,0,0,0,717,3.6.1,7,231,,m,1162,804,1440,24,900,24,0,23,1440,1,odd,MacIntel,spreals
89,89,799,trial,Mozilla,Netscape,"5.0 (Macintosh; Intel Mac OS X 10_13_6) AppleWebKit/537.36 (KHTML, like Gecko) Chrome/105.0.0.0 Safari/537.36",NW,1,m,0,99,99,29-08-22,29-08-22,10:31:56,0,0,0,0,0,717,3.6.1,4,231,,m,635,804,1440,24,900,24,0,23,1440,1,odd,MacIntel,yows
89,89,798,trial,Mozilla,Netscape,"5.0 (Macintosh; Intel Mac OS X 10_13_6) AppleWebKit/537.36 (KHTML, like Gecko) Chrome/105.0.0.0 Safari/537.36",Word,1,z,0,99,99,29-08-22,29-08-22,10:31:56,0,0,0,0,0,717,3.6.1,5,231,,m,721,804,1440,24,900,24,0,23,1440,1,odd,MacIntel,coach
89,89,797,trial,Mozilla,Netscape,"5.0 (Macintosh; Intel Mac OS X 10_13_6) AppleWebKit/537.36 (KHTML, like Gecko) Chrome/105.0.0.0 Safari/537.36",Word,1,z,0,99,99,29-08-22,29-08-22,10:31:56,0,0,0,0,0,717,3.6.1,5,231,,m,707,804,1440,24,900,24,0,23,1440,1,odd,MacIntel,cloak
89,89,795,trial,Mozilla,Netscape,"5.0 (Macintosh; Intel Mac OS X 10_13_6) AppleWebKit/537.36 (KHTML, like Gecko) Chrome/105.0.0.0 Safari/537.36",Word,1,z,0,99,99,29-08-22,29-08-22,10:31:56,0,0,0,0,0,717,3.6.1,6,231,,m,679,804,1440,24,900,24,0,23,1440,1,odd,MacIntel,puddle
89,89,795,trial,Mozilla,Netscape,"5.0 (Macintosh; Intel Mac OS X 10_13_6) AppleWebKit/537.36 (KHTML, like Gecko) Chrome/105.0.0.0 Safari/537.36",Word,1,z,0,99,99,29-08-22,29-08-22,10:31:56,0,0,0,0,0,717,3.6.1,4,231,,m,723,804,1440,24,900,24,0,23,1440,1,odd,MacIntel,them
88,88,794,trial,Mozilla,Netscape,"5.0 (Macintosh; Intel Mac OS X 10_13_6) AppleWebKit/537.36 (KHTML, like Gecko) Chrome/105.0.0.0 Safari/537.36",Word,0,z,0,99,99,29-08-22,29-08-22,10:31:56,0,0,0,0,0,717,3.6.1,4,231,,m,725,804,1440,24,900,24,0,23,1440,1,odd,MacIntel,welt
88,88,799,trial,Mozilla,Netscape,"5.0 (Macintosh; Intel Mac OS X 10_13_6) AppleWebKit/537.36 (KHTML, like Gecko) Chrome/105.0.0.0 Safari/537.36",PH,1,m,0,99,99,29-08-22,29-08-22,10:31:56,0,0,0,0,0,717,3.6.1,5,231,,m,1232,804,1440,24,900,24,0,23,1440,1,odd,MacIntel,rheed
88,88,797,trial,Mozilla,Netscape,"5.0 (Macintosh; Intel Mac OS X 10_13_6) AppleWebKit/537.36 (KHTML, like Gecko) Chrome/105.0.0.0 Safari/537.36",Word,1,z,0,99,99,29-08-22,29-08-22,10:31:56,0,0,0,0,0,717,3.6.1,6,231,,m,668,804,1440,24,900,24,0,23,1440,1,odd,MacIntel,orange
88,88,796,trial,Mozilla,Netscape,"5.0 (Macintosh; Intel Mac OS X 10_13_6) AppleWebKit/537.36 (KHTML, like Gecko) Chrome/105.0.0.0 Safari/537.36",Word,1,z,0,99,99,29-08-22,29-08-22,10:31:56,0,0,0,0,0,717,3.6.1,6,231,,m,683,804,1440,24,900,24,0,23,1440,1,odd,MacIntel,frenzy
89,89,795,trial,Mozilla,Netscape,"5.0 (Macintosh; Intel Mac OS X 10_13_6) AppleWebKit/537.36 (KHTML, like Gecko) Chrome/105.0.0.0 Safari/537.36",Word,1,z,0,99,99,29-08-22,29-08-22,10:31:56,0,0,0,0,0,717,3.6.1,5,231,,m,687,804,1440,24,900,24,0,23,1440,1,odd,MacIntel,linen
100,100,1364,practice,Mozilla,Netscape,"5.0 (Macintosh; Intel Mac OS X 10_15_7) AppleWebKit/605.1.15 (KHTML, like Gecko) Version/14.1.2 Safari/605.1.15",Word,1,z,None,None,None,29-08-22,29-08-22,10:31:37,0,0,0,0,0,716,3.6.1,6,231,,None,1364,814,1440,24,900,24,29,25,1440,0,odd,MacIntel,turtle
100,100,1016,practice,Mozilla,Netscape,"5.0 (Macintosh; Intel Mac OS X 10_15_7) AppleWebKit/605.1.15 (KHTML, like Gecko) Version/14.1.2 Safari/605.1.15",NW,1,m,None,None,None,29-08-22,29-08-22,10:31:37,0,0,0,0,0,716,3.6.1,6,231,,None,668,814,1440,24,900,24,29,25,1440,0,odd,MacIntel,ourtel
100,100,870,practice,Mozilla,Netscape,"5.0 (Macintosh; Intel Mac OS X 10_15_7) AppleWebKit/605.1.15 (KHTML, like Gecko) Version/14.1.2 Safari/605.1.15",Word,1,z,None,None,None,29-08-22,29-08-22,10:31:37,0,0,0,0,0,716,3.6.1,5,231,,None,578,814,1440,24,900,24,29,25,1440,0,odd,MacIntel,apple
100,100,837,practice,Mozilla,Netscape,"5.0 (Macintosh; Intel Mac OS X 10_15_7) AppleWebKit/605.1.15 (KHTML, like Gecko) Version/14.1.2 Safari/605.1.15",NW,1,m,None,None,None,29-08-22,29-08-22,10:31:37,0,0,0,0,0,716,3.6.1,5,231,,None,739,814,1440,24,900,24,29,25,1440,0,odd,MacIntel,ipple
100,100,817,practice,Mozilla,Netscape,"5.0 (Macintosh; Intel Mac OS X 10_15_7) AppleWebKit/605.1.15 (KHTML, like Gecko) Version/14.1.2 Safari/605.1.15",NW,1,m,None,None,None,29-08-22,29-08-22,10:31:37,0,0,0,0,0,716,3.6.1,5,231,,None,736,814,1440,24,900,24,29,25,1440,0,odd,MacIntel,mocag
100,100,793,practice,Mozilla,Netscape,"5.0 (Macintosh; Intel Mac OS X 10_15_7) AppleWebKit/605.1.15 (KHTML, like Gecko) Version/14.1.2 Safari/605.1.15",Word,1,z,None,None,None,29-08-22,29-08-22,10:31:37,0,0,0,0,0,716,3.6.1,5,231,,None,673,814,1440,24,900,24,29,25,1440,0,odd,MacIntel,magic
0,0,987,trial,Mozilla,Netscape,"5.0 (Macintosh; Intel Mac OS X 10_15_7) AppleWebKit/605.1.15 (KHTML, like Gecko) Version/14.1.2 Safari/605.1.15",PH,0,m,0,0,0,29-08-22,29-08-22,10:31:37,0,0,0,0,0,716,3.6.1,4,231,,z,987,814,1440,24,900,24,29,25,1440,0,odd,MacIntel,ryle
50,50,851,trial,Mozilla,Netscape,"5.0 (Macintosh; Intel Mac OS X 10_15_7) AppleWebKit/605.1.15 (KHTML, like Gecko) Version/14.1.2 Safari/605.1.15",Word,1,z,0,1,1,29-08-22,29-08-22,10:31:37,0,0,0,0,0,716,3.6.1,6,231,,z,715,814,1440,24,900,24,29,25,1440,0,odd,MacIntel,spirit
67,67,822,trial,Mozilla,Netscape,"5.0 (Macintosh; Intel Mac OS X 10_15_7) AppleWebKit/605.1.15 (KHTML, like Gecko) Version/14.1.2 Safari/605.1.15",Word,1,z,0,2,2,29-08-22,29-08-22,10:31:37,0,0,0,0,0,716,3.6.1,7,231,,z,764,814,1440,24,900,24,29,25,1440,0,odd,MacIntel,chuckle
75,75,830,trial,Mozilla,Netscape,"5.0 (Macintosh; Intel Mac OS X 10_15_7) AppleWebKit/605.1.15 (KHTML, like Gecko) Version/14.1.2 Safari/605.1.15",PH,1,m,0,3,3,29-08-22,29-08-22,10:31:37,0,0,0,0,0,716,3.6.1,4,231,,m,852,814,1440,24,900,24,29,25,1440,0,odd,MacIntel,spue
80,80,838,trial,Mozilla,Netscape,"5.0 (Macintosh; Intel Mac OS X 10_15_7) AppleWebKit/605.1.15 (KHTML, like Gecko) Version/14.1.2 Safari/605.1.15",Word,1,z,0,4,4,29-08-22,29-08-22,10:31:37,0,0,0,0,0,716,3.6.1,6,231,,z,872,814,1440,24,900,24,29,25,1440,0,odd,MacIntel,ginger
83,83,865,trial,Mozilla,Netscape,"5.0 (Macintosh; Intel Mac OS X 10_15_7) AppleWebKit/605.1.15 (KHTML, like Gecko) Version/14.1.2 Safari/605.1.15",NW,1,m,0,5,5,29-08-22,29-08-22,10:31:37,0,0,0,0,0,716,3.6.1,6,231,,m,999,814,1440,24,900,24,29,25,1440,0,odd,MacIntel,fradge
86,86,836,trial,Mozilla,Netscape,"5.0 (Macintosh; Intel Mac OS X 10_15_7) AppleWebKit/605.1.15 (KHTML, like Gecko) Version/14.1.2 Safari/605.1.15",Word,1,z,0,6,6,29-08-22,29-08-22,10:31:37,0,0,0,0,0,716,3.6.1,5,231,,z,663,814,1440,24,900,24,29,25,1440,0,odd,MacIntel,blush
88,88,848,trial,Mozilla,Netscape,"5.0 (Macintosh; Intel Mac OS X 10_15_7) AppleWebKit/605.1.15 (KHTML, like Gecko) Version/14.1.2 Safari/605.1.15",NW,1,m,0,7,7,29-08-22,29-08-22,10:31:37,0,0,0,0,0,716,3.6.1,5,231,,m,929,814,1440,24,900,24,29,25,1440,0,odd,MacIntel,tould
89,89,844,trial,Mozilla,Netscape,"5.0 (Macintosh; Intel Mac OS X 10_15_7) AppleWebKit/605.1.15 (KHTML, like Gecko) Version/14.1.2 Safari/605.1.15",NW,1,m,0,8,8,29-08-22,29-08-22,10:31:37,0,0,0,0,0,716,3.6.1,6,231,,m,814,814,1440,24,900,24,29,25,1440,0,odd,MacIntel,nonzed
90,90,816,trial,Mozilla,Netscape,"5.0 (Macintosh; Intel Mac OS X 10_15_7) AppleWebKit/605.1.15 (KHTML, like Gecko) Version/14.1.2 Safari/605.1.15",Word,1,z,0,9,9,29-08-22,29-08-22,10:31:37,0,0,0,0,0,716,3.6.1,5,231,,z,569,814,1440,24,900,24,29,25,1440,0,odd,MacIntel,allow
91,91,816,trial,Mozilla,Netscape,"5.0 (Macintosh; Intel Mac OS X 10_15_7) AppleWebKit/605.1.15 (KHTML, like Gecko) Version/14.1.2 Safari/605.1.15",PH,1,m,0,10,10,29-08-22,29-08-22,10:31:37,0,0,0,0,0,716,3.6.1,6,231,,m,814,814,1440,24,900,24,29,25,1440,0,odd,MacIntel,graits
92,92,817,trial,Mozilla,Netscape,"5.0 (Macintosh; Intel Mac OS X 10_15_7) AppleWebKit/605.1.15 (KHTML, like Gecko) Version/14.1.2 Safari/605.1.15",NW,1,m,0,11,11,29-08-22,29-08-22,10:31:37,0,0,0,0,0,716,3.6.1,5,231,,m,827,814,1440,24,900,24,29,25,1440,0,odd,MacIntel,bince
92,92,800,trial,Mozilla,Netscape,"5.0 (Macintosh; Intel Mac OS X 10_15_7) AppleWebKit/605.1.15 (KHTML, like Gecko) Version/14.1.2 Safari/605.1.15",Word,1,z,0,12,12,29-08-22,29-08-22,10:31:37,0,0,0,0,0,716,3.6.1,6,231,,z,600,814,1440,24,900,24,29,25,1440,0,odd,MacIntel,square
93,93,783,trial,Mozilla,Netscape,"5.0 (Macintosh; Intel Mac OS X 10_15_7) AppleWebKit/605.1.15 (KHTML, like Gecko) Version/14.1.2 Safari/605.1.15",Word,1,z,0,13,13,29-08-22,29-08-22,10:31:37,0,0,0,0,0,716,3.6.1,4,231,,z,555,814,1440,24,900,24,29,25,1440,0,odd,MacIntel,miss
93,93,781,trial,Mozilla,Netscape,"5.0 (Macintosh; Intel Mac OS X 10_15_7) AppleWebKit/605.1.15 (KHTML, like Gecko) Version/14.1.2 Safari/605.1.15",PH,1,m,0,14,14,29-08-22,29-08-22,10:31:37,0,0,0,0,0,716,3.6.1,3,231,,m,749,814,1440,24,900,24,29,25,1440,0,odd,MacIntel,rey
94,94,788,trial,Mozilla,Netscape,"5.0 (Macintosh; Intel Mac OS X 10_15_7) AppleWebKit/605.1.15 (KHTML, like Gecko) Version/14.1.2 Safari/605.1.15",Word,1,z,0,15,15,29-08-22,29-08-22,10:31:37,0,0,0,0,0,716,3.6.1,6,231,,z,900,814,1440,24,900,24,29,25,1440,0,odd,MacIntel,amount
94,94,775,trial,Mozilla,Netscape,"5.0 (Macintosh; Intel Mac OS X 10_15_7) AppleWebKit/605.1.15 (KHTML, like Gecko) Version/14.1.2 Safari/605.1.15",Word,1,z,0,16,16,29-08-22,29-08-22,10:31:37,0,0,0,0,0,716,3.6.1,4,231,,z,561,814,1440,24,900,24,29,25,1440,0,odd,MacIntel,flow
94,94,760,trial,Mozilla,Netscape,"5.0 (Macintosh; Intel Mac OS X 10_15_7) AppleWebKit/605.1.15 (KHTML, like Gecko) Version/14.1.2 Safari/605.1.15",Word,1,z,0,17,17,29-08-22,29-08-22,10:31:37,0,0,0,0,0,716,3.6.1,4,231,,z,515,814,1440,24,900,24,29,25,1440,0,odd,MacIntel,star
95,95,748,trial,Mozilla,Netscape,"5.0 (Macintosh; Intel Mac OS X 10_15_7) AppleWebKit/605.1.15 (KHTML, like Gecko) Version/14.1.2 Safari/605.1.15",Word,1,z,0,18,18,29-08-22,29-08-22,10:31:37,0,0,0,0,0,716,3.6.1,5,231,,z,526,814,1440,24,900,24,29,25,1440,0,odd,MacIntel,ghost
95,95,738,trial,Mozilla,Netscape,"5.0 (Macintosh; Intel Mac OS X 10_15_7) AppleWebKit/605.1.15 (KHTML, like Gecko) Version/14.1.2 Safari/605.1.15",Word,1,z,0,19,19,29-08-22,29-08-22,10:31:37,0,0,0,0,0,716,3.6.1,6,231,,z,551,814,1440,24,900,24,29,25,1440,0,odd,MacIntel,banana
95,95,740,trial,Mozilla,Netscape,"5.0 (Macintosh; Intel Mac OS X 10_15_7) AppleWebKit/605.1.15 (KHTML, like Gecko) Version/14.1.2 Safari/605.1.15",PH,1,m,0,20,20,29-08-22,29-08-22,10:31:37,0,0,0,0,0,716,3.6.1,6,231,,m,787,814,1440,24,900,24,29,25,1440,0,odd,MacIntel,grambs
95,95,769,trial,Mozilla,Netscape,"5.0 (Macintosh; Intel Mac OS X 10_15_7) AppleWebKit/605.1.15 (KHTML, like Gecko) Version/14.1.2 Safari/605.1.15",Word,1,z,0,21,21,29-08-22,29-08-22,10:31:37,0,0,0,0,0,716,3.6.1,6,231,,z,1361,814,1440,24,900,24,29,25,1440,0,odd,MacIntel,misuse
96,96,772,trial,Mozilla,Netscape,"5.0 (Macintosh; Intel Mac OS X 10_15_7) AppleWebKit/605.1.15 (KHTML, like Gecko) Version/14.1.2 Safari/605.1.15",PH,1,m,0,22,22,29-08-22,29-08-22,10:31:37,0,0,0,0,0,716,3.6.1,6,231,,m,839,814,1440,24,900,24,29,25,1440,0,odd,MacIntel,proods
96,96,767,trial,Mozilla,Netscape,"5.0 (Macintosh; Intel Mac OS X 10_15_7) AppleWebKit/605.1.15 (KHTML, like Gecko) Version/14.1.2 Safari/605.1.15",Word,1,z,0,23,23,29-08-22,29-08-22,10:31:37,0,0,0,0,0,716,3.6.1,4,231,,z,653,814,1440,24,900,24,29,25,1440,0,odd,MacIntel,beak
92,92,771,trial,Mozilla,Netscape,"5.0 (Macintosh; Intel Mac OS X 10_15_7) AppleWebKit/605.1.15 (KHTML, like Gecko) Version/14.1.2 Safari/605.1.15",Word,0,z,0,24,24,29-08-22,29-08-22,10:31:37,0,0,0,0,0,716,3.6.1,7,231,,m,880,814,1440,24,900,24,29,25,1440,0,odd,MacIntel,blunder
92,92,775,trial,Mozilla,Netscape,"5.0 (Macintosh; Intel Mac OS X 10_15_7) AppleWebKit/605.1.15 (KHTML, like Gecko) Version/14.1.2 Safari/605.1.15",PH,1,m,0,25,25,29-08-22,29-08-22,10:31:37,0,0,0,0,0,716,3.6.1,6,231,,m,874,814,1440,24,900,24,29,25,1440,0,odd,MacIntel,phlize
93,93,776,trial,Mozilla,Netscape,"5.0 (Macintosh; Intel Mac OS X 10_15_7) AppleWebKit/605.1.15 (KHTML, like Gecko) Version/14.1.2 Safari/605.1.15",NW,1,m,0,26,26,29-08-22,29-08-22,10:31:37,0,0,0,0,0,716,3.6.1,6,231,,m,794,814,1440,24,900,24,29,25,1440,0,odd,MacIntel,scrait
93,93,777,trial,Mozilla,Netscape,"5.0 (Macintosh; Intel Mac OS X 10_15_7) AppleWebKit/605.1.15 (KHTML, like Gecko) Version/14.1.2 Safari/605.1.15",Word,1,z,0,27,27,29-08-22,29-08-22,10:31:37,0,0,0,0,0,716,3.6.1,6,231,,z,792,814,1440,24,900,24,29,25,1440,0,odd,MacIntel,enigma
93,93,771,trial,Mozilla,Netscape,"5.0 (Macintosh; Intel Mac OS X 10_15_7) AppleWebKit/605.1.15 (KHTML, like Gecko) Version/14.1.2 Safari/605.1.15",Word,1,z,0,28,28,29-08-22,29-08-22,10:31:37,0,0,0,0,0,716,3.6.1,5,231,,z,605,814,1440,24,900,24,29,25,1440,0,odd,MacIntel,globe
93,93,769,trial,Mozilla,Netscape,"5.0 (Macintosh; Intel Mac OS X 10_15_7) AppleWebKit/605.1.15 (KHTML, like Gecko) Version/14.1.2 Safari/605.1.15",NW,1,m,0,29,29,29-08-22,29-08-22,10:31:37,0,0,0,0,0,716,3.6.1,4,231,,m,721,814,1440,24,900,24,29,25,1440,0,odd,MacIntel,twom
94,94,779,trial,Mozilla,Netscape,"5.0 (Macintosh; Intel Mac OS X 10_15_7) AppleWebKit/605.1.15 (KHTML, like Gecko) Version/14.1.2 Safari/605.1.15",Word,1,z,0,30,30,29-08-22,29-08-22,10:31:37,0,0,0,0,0,716,3.6.1,6,231,,z,1090,814,1440,24,900,24,29,25,1440,0,odd,MacIntel,thrill
94,94,782,trial,Mozilla,Netscape,"5.0 (Macintosh; Intel Mac OS X 10_15_7) AppleWebKit/605.1.15 (KHTML, like Gecko) Version/14.1.2 Safari/605.1.15",Word,1,z,0,31,31,29-08-22,29-08-22,10:31:37,0,0,0,0,0,716,3.6.1,6,231,,z,879,814,1440,24,900,24,29,25,1440,0,odd,MacIntel,chapel
94,94,775,trial,Mozilla,Netscape,"5.0 (Macintosh; Intel Mac OS X 10_15_7) AppleWebKit/605.1.15 (KHTML, like Gecko) Version/14.1.2 Safari/605.1.15",Word,1,z,0,32,32,29-08-22,29-08-22,10:31:37,0,0,0,0,0,716,3.6.1,5,231,,z,544,814,1440,24,900,24,29,25,1440,0,odd,MacIntel,brake
94,94,770,trial,Mozilla,Netscape,"5.0 (Macintosh; Intel Mac OS X 10_15_7) AppleWebKit/605.1.15 (KHTML, like Gecko) Version/14.1.2 Safari/605.1.15",Word,1,z,0,33,33,29-08-22,29-08-22,10:31:37,0,0,0,0,0,716,3.6.1,6,231,,z,601,814,1440,24,900,24,29,25,1440,0,odd,MacIntel,throat
94,94,767,trial,Mozilla,Netscape,"5.0 (Macintosh; Intel Mac OS X 10_15_7) AppleWebKit/605.1.15 (KHTML, like Gecko) Version/14.1.2 Safari/605.1.15",Word,1,z,0,34,34,29-08-22,29-08-22,10:31:37,0,0,0,0,0,716,3.6.1,6,231,,z,657,814,1440,24,900,24,29,25,1440,0,odd,MacIntel,salute
94,94,761,trial,Mozilla,Netscape,"5.0 (Macintosh; Intel Mac OS X 10_15_7) AppleWebKit/605.1.15 (KHTML, like Gecko) Version/14.1.2 Safari/605.1.15",Word,1,z,0,35,35,29-08-22,29-08-22,10:31:37,0,0,0,0,0,716,3.6.1,5,231,,z,566,814,1440,24,900,24,29,25,1440,0,odd,MacIntel,table
95,95,761,trial,Mozilla,Netscape,"5.0 (Macintosh; Intel Mac OS X 10_15_7) AppleWebKit/605.1.15 (KHTML, like Gecko) Version/14.1.2 Safari/605.1.15",Word,1,z,0,36,36,29-08-22,29-08-22,10:31:37,0,0,0,0,0,716,3.6.1,7,231,,z,767,814,1440,24,900,24,29,25,1440,0,odd,MacIntel,tarnish
95,95,766,trial,Mozilla,Netscape,"5.0 (Macintosh; Intel Mac OS X 10_15_7) AppleWebKit/605.1.15 (KHTML, like Gecko) Version/14.1.2 Safari/605.1.15",PH,1,m,0,37,37,29-08-22,29-08-22,10:31:37,0,0,0,0,0,716,3.6.1,6,231,,m,923,814,1440,24,900,24,29,25,1440,0,odd,MacIntel,skamps
95,95,776,trial,Mozilla,Netscape,"5.0 (Macintosh; Intel Mac OS X 10_15_7) AppleWebKit/605.1.15 (KHTML, like Gecko) Version/14.1.2 Safari/605.1.15",NW,1,m,0,38,38,29-08-22,29-08-22,10:31:37,0,0,0,0,0,716,3.6.1,5,231,,m,1154,814,1440,24,900,24,29,25,1440,0,odd,MacIntel,cound
95,95,774,trial,Mozilla,Netscape,"5.0 (Macintosh; Intel Mac OS X 10_15_7) AppleWebKit/605.1.15 (KHTML, like Gecko) Version/14.1.2 Safari/605.1.15",NW,1,m,0,39,39,29-08-22,29-08-22,10:31:37,0,0,0,0,0,716,3.6.1,6,231,,m,708,814,1440,24,900,24,29,25,1440,0,odd,MacIntel,sturds
95,95,774,trial,Mozilla,Netscape,"5.0 (Macintosh; Intel Mac OS X 10_15_7) AppleWebKit/605.1.15 (KHTML, like Gecko) Version/14.1.2 Safari/605.1.15",NW,1,m,0,40,40,29-08-22,29-08-22,10:31:37,0,0,0,0,0,716,3.6.1,7,231,,m,770,814,1440,24,900,24,29,25,1440,0,odd,MacIntel,rhourth
95,95,780,trial,Mozilla,Netscape,"5.0 (Macintosh; Intel Mac OS X 10_15_7) AppleWebKit/605.1.15 (KHTML, like Gecko) Version/14.1.2 Safari/605.1.15",Word,1,z,0,41,41,29-08-22,29-08-22,10:31:37,0,0,0,0,0,716,3.6.1,6,231,,z,1017,814,1440,24,900,24,29,25,1440,0,odd,MacIntel,sleigh
95,95,780,trial,Mozilla,Netscape,"5.0 (Macintosh; Intel Mac OS X 10_15_7) AppleWebKit/605.1.15 (KHTML, like Gecko) Version/14.1.2 Safari/605.1.15",NW,1,m,0,42,42,29-08-22,29-08-22,10:31:37,0,0,0,0,0,716,3.6.1,5,231,,m,791,814,1440,24,900,24,29,25,1440,0,odd,MacIntel,fumps
95,95,777,trial,Mozilla,Netscape,"5.0 (Macintosh; Intel Mac OS X 10_15_7) AppleWebKit/605.1.15 (KHTML, like Gecko) Version/14.1.2 Safari/605.1.15",Word,1,z,0,43,43,29-08-22,29-08-22,10:31:37,0,0,0,0,0,716,3.6.1,6,231,,z,644,814,1440,24,900,24,29,25,1440,0,odd,MacIntel,scroll
96,96,774,trial,Mozilla,Netscape,"5.0 (Macintosh; Intel Mac OS X 10_15_7) AppleWebKit/605.1.15 (KHTML, like Gecko) Version/14.1.2 Safari/605.1.15",Word,1,z,0,44,44,29-08-22,29-08-22,10:31:37,0,0,0,0,0,716,3.6.1,6,231,,z,636,814,1440,24,900,24,29,25,1440,0,odd,MacIntel,salary
96,96,774,trial,Mozilla,Netscape,"5.0 (Macintosh; Intel Mac OS X 10_15_7) AppleWebKit/605.1.15 (KHTML, like Gecko) Version/14.1.2 Safari/605.1.15",PH,1,m,0,45,45,29-08-22,29-08-22,10:31:37,0,0,0,0,0,716,3.6.1,5,231,,m,766,814,1440,24,900,24,29,25,1440,0,odd,MacIntel,stais
96,96,772,trial,Mozilla,Netscape,"5.0 (Macintosh; Intel Mac OS X 10_15_7) AppleWebKit/605.1.15 (KHTML, like Gecko) Version/14.1.2 Safari/605.1.15",PH,1,m,0,46,46,29-08-22,29-08-22,10:31:37,0,0,0,0,0,716,3.6.1,6,231,,m,689,814,1440,24,900,24,29,25,1440,0,odd,MacIntel,dropse
96,96,771,trial,Mozilla,Netscape,"5.0 (Macintosh; Intel Mac OS X 10_15_7) AppleWebKit/605.1.15 (KHTML, like Gecko) Version/14.1.2 Safari/605.1.15",Word,1,z,0,47,47,29-08-22,29-08-22,10:31:37,0,0,0,0,0,716,3.6.1,4,231,,z,752,814,1440,24,900,24,29,25,1440,0,odd,MacIntel,yelp
96,96,774,trial,Mozilla,Netscape,"5.0 (Macintosh; Intel Mac OS X 10_15_7) AppleWebKit/605.1.15 (KHTML, like Gecko) Version/14.1.2 Safari/605.1.15",Word,1,z,0,48,48,29-08-22,29-08-22,10:31:37,0,0,0,0,0,716,3.6.1,3,231,,z,914,814,1440,24,900,24,29,25,1440,0,odd,MacIntel,bib
96,96,774,trial,Mozilla,Netscape,"5.0 (Macintosh; Intel Mac OS X 10_15_7) AppleWebKit/605.1.15 (KHTML, like Gecko) Version/14.1.2 Safari/605.1.15",PH,1,m,0,49,49,29-08-22,29-08-22,10:31:37,0,0,0,0,0,716,3.6.1,6,231,,m,769,814,1440,24,900,24,29,25,1440,0,odd,MacIntel,rhaque
96,96,774,trial,Mozilla,Netscape,"5.0 (Macintosh; Intel Mac OS X 10_15_7) AppleWebKit/605.1.15 (KHTML, like Gecko) Version/14.1.2 Safari/605.1.15",NW,1,m,0,50,50,29-08-22,29-08-22,10:31:37,0,0,0,0,0,716,3.6.1,5,231,,m,779,814,1440,24,900,24,29,25,1440,0,odd,MacIntel,chowl
96,96,777,trial,Mozilla,Netscape,"5.0 (Macintosh; Intel Mac OS X 10_15_7) AppleWebKit/605.1.15 (KHTML, like Gecko) Version/14.1.2 Safari/605.1.15",NW,1,m,0,51,51,29-08-22,29-08-22,10:31:37,0,0,0,0,0,716,3.6.1,4,231,,m,928,814,1440,24,900,24,29,25,1440,0,odd,MacIntel,kirm
96,96,781,trial,Mozilla,Netscape,"5.0 (Macintosh; Intel Mac OS X 10_15_7) AppleWebKit/605.1.15 (KHTML, like Gecko) Version/14.1.2 Safari/605.1.15",NW,1,m,0,52,52,29-08-22,29-08-22,10:31:37,0,0,0,0,0,716,3.6.1,6,231,,m,966,814,1440,24,900,24,29,25,1440,0,odd,MacIntel,trynes
96,96,776,trial,Mozilla,Netscape,"5.0 (Macintosh; Intel Mac OS X 10_15_7) AppleWebKit/605.1.15 (KHTML, like Gecko) Version/14.1.2 Safari/605.1.15",Word,1,z,0,53,53,29-08-22,29-08-22,10:31:37,0,0,0,0,0,716,3.6.1,3,231,,z,523,814,1440,24,900,24,29,25,1440,0,odd,MacIntel,dog
96,96,773,trial,Mozilla,Netscape,"5.0 (Macintosh; Intel Mac OS X 10_15_7) AppleWebKit/605.1.15 (KHTML, like Gecko) Version/14.1.2 Safari/605.1.15",Word,1,z,0,54,54,29-08-22,29-08-22,10:31:37,0,0,0,0,0,716,3.6.1,6,231,,z,606,814,1440,24,900,24,29,25,1440,0,odd,MacIntel,supper
96,96,770,trial,Mozilla,Netscape,"5.0 (Macintosh; Intel Mac OS X 10_15_7) AppleWebKit/605.1.15 (KHTML, like Gecko) Version/14.1.2 Safari/605.1.15",Word,1,z,0,55,55,29-08-22,29-08-22,10:31:37,0,0,0,0,0,716,3.6.1,7,231,,z,625,814,1440,24,900,24,29,25,1440,0,odd,MacIntel,platter
96,96,770,trial,Mozilla,Netscape,"5.0 (Macintosh; Intel Mac OS X 10_15_7) AppleWebKit/605.1.15 (KHTML, like Gecko) Version/14.1.2 Safari/605.1.15",PH,1,m,0,56,56,29-08-22,29-08-22,10:31:37,0,0,0,0,0,716,3.6.1,4,231,,m,747,814,1440,24,900,24,29,25,1440,0,odd,MacIntel,fite
97,97,768,trial,Mozilla,Netscape,"5.0 (Macintosh; Intel Mac OS X 10_15_7) AppleWebKit/605.1.15 (KHTML, like Gecko) Version/14.1.2 Safari/605.1.15",NW,1,m,0,57,57,29-08-22,29-08-22,10:31:37,0,0,0,0,0,716,3.6.1,3,231,,m,676,814,1440,24,900,24,29,25,1440,0,odd,MacIntel,cem
97,97,768,trial,Mozilla,Netscape,"5.0 (Macintosh; Intel Mac OS X 10_15_7) AppleWebKit/605.1.15 (KHTML, like Gecko) Version/14.1.2 Safari/605.1.15",NW,1,m,0,58,58,29-08-22,29-08-22,10:31:37,0,0,0,0,0,716,3.6.1,4,231,,m,786,814,1440,24,900,24,29,25,1440,0,odd,MacIntel,brud
97,97,766,trial,Mozilla,Netscape,"5.0 (Macintosh; Intel Mac OS X 10_15_7) AppleWebKit/605.1.15 (KHTML, like Gecko) Version/14.1.2 Safari/605.1.15",Word,1,z,0,59,59,29-08-22,29-08-22,10:31:37,0,0,0,0,0,716,3.6.1,7,231,,z,636,814,1440,24,900,24,29,25,1440,0,odd,MacIntel,ceiling
97,97,766,trial,Mozilla,Netscape,"5.0 (Macintosh; Intel Mac OS X 10_15_7) AppleWebKit/605.1.15 (KHTML, like Gecko) Version/14.1.2 Safari/605.1.15",Word,1,z,0,60,60,29-08-22,29-08-22,10:31:37,0,0,0,0,0,716,3.6.1,7,231,,z,726,814,1440,24,900,24,29,25,1440,0,odd,MacIntel,dungeon
97,97,767,trial,Mozilla,Netscape,"5.0 (Macintosh; Intel Mac OS X 10_15_7) AppleWebKit/605.1.15 (KHTML, like Gecko) Version/14.1.2 Safari/605.1.15",NW,1,m,0,61,61,29-08-22,29-08-22,10:31:37,0,0,0,0,0,716,3.6.1,7,231,,m,866,814,1440,24,900,24,29,25,1440,0,odd,MacIntel,thwilms
97,97,768,trial,Mozilla,Netscape,"5.0 (Macintosh; Intel Mac OS X 10_15_7) AppleWebKit/605.1.15 (KHTML, like Gecko) Version/14.1.2 Safari/605.1.15",PH,1,m,0,62,62,29-08-22,29-08-22,10:31:37,0,0,0,0,0,716,3.6.1,5,231,,m,832,814,1440,24,900,24,29,25,1440,0,odd,MacIntel,medes
95,95,769,trial,Mozilla,Netscape,"5.0 (Macintosh; Intel Mac OS X 10_15_7) AppleWebKit/605.1.15 (KHTML, like Gecko) Version/14.1.2 Safari/605.1.15",Word,0,z,0,63,63,29-08-22,29-08-22,10:31:37,0,0,0,0,0,716,3.6.1,5,231,,m,808,814,1440,24,900,24,29,25,1440,0,odd,MacIntel,huzza
95,95,773,trial,Mozilla,Netscape,"5.0 (Macintosh; Intel Mac OS X 10_15_7) AppleWebKit/605.1.15 (KHTML, like Gecko) Version/14.1.2 Safari/605.1.15",PH,1,m,0,64,64,29-08-22,29-08-22,10:31:37,0,0,0,0,0,716,3.6.1,4,231,,m,1023,814,1440,24,900,24,29,25,1440,0,odd,MacIntel,wure
95,95,773,trial,Mozilla,Netscape,"5.0 (Macintosh; Intel Mac OS X 10_15_7) AppleWebKit/605.1.15 (KHTML, like Gecko) Version/14.1.2 Safari/605.1.15",Word,1,z,0,65,65,29-08-22,29-08-22,10:31:37,0,0,0,0,0,716,3.6.1,5,231,,z,765,814,1440,24,900,24,29,25,1440,0,odd,MacIntel,wharf
96,96,769,trial,Mozilla,Netscape,"5.0 (Macintosh; Intel Mac OS X 10_15_7) AppleWebKit/605.1.15 (KHTML, like Gecko) Version/14.1.2 Safari/605.1.15",Word,1,z,0,66,66,29-08-22,29-08-22,10:31:37,0,0,0,0,0,716,3.6.1,4,231,,z,559,814,1440,24,900,24,29,25,1440,0,odd,MacIntel,turn
96,96,770,trial,Mozilla,Netscape,"5.0 (Macintosh; Intel Mac OS X 10_15_7) AppleWebKit/605.1.15 (KHTML, like Gecko) Version/14.1.2 Safari/605.1.15",NW,1,m,0,67,67,29-08-22,29-08-22,10:31:37,0,0,0,0,0,716,3.6.1,6,231,,m,822,814,1440,24,900,24,29,25,1440,0,odd,MacIntel,sleens
96,96,772,trial,Mozilla,Netscape,"5.0 (Macintosh; Intel Mac OS X 10_15_7) AppleWebKit/605.1.15 (KHTML, like Gecko) Version/14.1.2 Safari/605.1.15",PH,1,m,0,68,68,29-08-22,29-08-22,10:31:37,0,0,0,0,0,716,3.6.1,5,231,,m,920,814,1440,24,900,24,29,25,1440,0,odd,MacIntel,phley
96,96,784,trial,Mozilla,Netscape,"5.0 (Macintosh; Intel Mac OS X 10_15_7) AppleWebKit/605.1.15 (KHTML, like Gecko) Version/14.1.2 Safari/605.1.15",NW,1,m,0,69,69,29-08-22,29-08-22,10:31:37,0,0,0,0,0,716,3.6.1,7,231,,m,1554,814,1440,24,900,24,29,25,1440,0,odd,MacIntel,whurfed
96,96,786,trial,Mozilla,Netscape,"5.0 (Macintosh; Intel Mac OS X 10_15_7) AppleWebKit/605.1.15 (KHTML, like Gecko) Version/14.1.2 Safari/605.1.15",PH,1,m,0,70,70,29-08-22,29-08-22,10:31:37,0,0,0,0,0,716,3.6.1,6,231,,m,986,814,1440,24,900,24,29,25,1440,0,odd,MacIntel,whased
96,96,789,trial,Mozilla,Netscape,"5.0 (Macintosh; Intel Mac OS X 10_15_7) AppleWebKit/605.1.15 (KHTML, like Gecko) Version/14.1.2 Safari/605.1.15",PH,1,m,0,71,71,29-08-22,29-08-22,10:31:37,0,0,0,0,0,716,3.6.1,5,231,,m,952,814,1440,24,900,24,29,25,1440,0,odd,MacIntel,phete
96,96,787,trial,Mozilla,Netscape,"5.0 (Macintosh; Intel Mac OS X 10_15_7) AppleWebKit/605.1.15 (KHTML, like Gecko) Version/14.1.2 Safari/605.1.15",Word,1,z,0,72,72,29-08-22,29-08-22,10:31:37,0,0,0,0,0,716,3.6.1,4,231,,z,635,814,1440,24,900,24,29,25,1440,0,odd,MacIntel,mean
96,96,783,trial,Mozilla,Netscape,"5.0 (Macintosh; Intel Mac OS X 10_15_7) AppleWebKit/605.1.15 (KHTML, like Gecko) Version/14.1.2 Safari/605.1.15",Word,1,z,0,73,73,29-08-22,29-08-22,10:31:37,0,0,0,0,0,716,3.6.1,3,231,,z,484,814,1440,24,900,24,29,25,1440,0,odd,MacIntel,leg
96,96,780,trial,Mozilla,Netscape,"5.0 (Macintosh; Intel Mac OS X 10_15_7) AppleWebKit/605.1.15 (KHTML, like Gecko) Version/14.1.2 Safari/605.1.15",Word,1,z,0,74,74,29-08-22,29-08-22,10:31:37,0,0,0,0,0,716,3.6.1,7,231,,z,596,814,1440,24,900,24,29,25,1440,0,odd,MacIntel,embrace
96,96,777,trial,Mozilla,Netscape,"5.0 (Macintosh; Intel Mac OS X 10_15_7) AppleWebKit/605.1.15 (KHTML, like Gecko) Version/14.1.2 Safari/605.1.15",Word,1,z,0,75,75,29-08-22,29-08-22,10:31:37,0,0,0,0,0,716,3.6.1,6,231,,z,572,814,1440,24,900,24,29,25,1440,0,odd,MacIntel,victim
96,96,781,trial,Mozilla,Netscape,"5.0 (Macintosh; Intel Mac OS X 10_15_7) AppleWebKit/605.1.15 (KHTML, like Gecko) Version/14.1.2 Safari/605.1.15",NW,1,m,0,76,76,29-08-22,29-08-22,10:31:37,0,0,0,0,0,716,3.6.1,6,231,,m,1093,814,1440,24,900,24,29,25,1440,0,odd,MacIntel,gladge
96,96,783,trial,Mozilla,Netscape,"5.0 (Macintosh; Intel Mac OS X 10_15_7) AppleWebKit/605.1.15 (KHTML, like Gecko) Version/14.1.2 Safari/605.1.15",PH,1,m,0,77,77,29-08-22,29-08-22,10:31:37,0,0,0,0,0,716,3.6.1,5,231,,m,923,814,1440,24,900,24,29,25,1440,0,odd,MacIntel,wurds
96,96,781,trial,Mozilla,Netscape,"5.0 (Macintosh; Intel Mac OS X 10_15_7) AppleWebKit/605.1.15 (KHTML, like Gecko) Version/14.1.2 Safari/605.1.15",Word,1,z,0,78,78,29-08-22,29-08-22,10:31:37,0,0,0,0,0,716,3.6.1,5,231,,z,595,814,1440,24,900,24,29,25,1440,0,odd,MacIntel,break
96,96,780,trial,Mozilla,Netscape,"5.0 (Macintosh; Intel Mac OS X 10_15_7) AppleWebKit/605.1.15 (KHTML, like Gecko) Version/14.1.2 Safari/605.1.15",PH,1,m,0,79,79,29-08-22,29-08-22,10:31:37,0,0,0,0,0,716,3.6.1,7,231,,m,682,814,1440,24,900,24,29,25,1440,0,odd,MacIntel,ghoards
96,96,779,trial,Mozilla,Netscape,"5.0 (Macintosh; Intel Mac OS X 10_15_7) AppleWebKit/605.1.15 (KHTML, like Gecko) Version/14.1.2 Safari/605.1.15",NW,1,m,0,80,80,29-08-22,29-08-22,10:31:37,0,0,0,0,0,716,3.6.1,6,231,,m,689,814,1440,24,900,24,29,25,1440,0,odd,MacIntel,thwams
96,96,777,trial,Mozilla,Netscape,"5.0 (Macintosh; Intel Mac OS X 10_15_7) AppleWebKit/605.1.15 (KHTML, like Gecko) Version/14.1.2 Safari/605.1.15",PH,1,m,0,81,81,29-08-22,29-08-22,10:31:37,0,0,0,0,0,716,3.6.1,6,231,,m,647,814,1440,24,900,24,29,25,1440,0,odd,MacIntel,fluick
96,96,775,trial,Mozilla,Netscape,"5.0 (Macintosh; Intel Mac OS X 10_15_7) AppleWebKit/605.1.15 (KHTML, like Gecko) Version/14.1.2 Safari/605.1.15",Word,1,z,0,82,82,29-08-22,29-08-22,10:31:37,0,0,0,0,0,716,3.6.1,6,231,,z,606,814,1440,24,900,24,29,25,1440,0,odd,MacIntel,camera
96,96,773,trial,Mozilla,Netscape,"5.0 (Macintosh; Intel Mac OS X 10_15_7) AppleWebKit/605.1.15 (KHTML, like Gecko) Version/14.1.2 Safari/605.1.15",PH,1,m,0,83,83,29-08-22,29-08-22,10:31:37,0,0,0,0,0,716,3.6.1,7,231,,m,635,814,1440,24,900,24,29,25,1440,0,odd,MacIntel,scoules
96,96,778,trial,Mozilla,Netscape,"5.0 (Macintosh; Intel Mac OS X 10_15_7) AppleWebKit/605.1.15 (KHTML, like Gecko) Version/14.1.2 Safari/605.1.15",PH,1,m,0,84,84,29-08-22,29-08-22,10:31:37,0,0,0,0,0,716,3.6.1,6,231,,m,1144,814,1440,24,900,24,29,25,1440,0,odd,MacIntel,chured
97,97,776,trial,Mozilla,Netscape,"5.0 (Macintosh; Intel Mac OS X 10_15_7) AppleWebKit/605.1.15 (KHTML, like Gecko) Version/14.1.2 Safari/605.1.15",NW,1,m,0,85,85,29-08-22,29-08-22,10:31:37,0,0,0,0,0,716,3.6.1,5,231,,m,615,814,1440,24,900,24,29,25,1440,0,odd,MacIntel,wrurb
97,97,775,trial,Mozilla,Netscape,"5.0 (Macintosh; Intel Mac OS X 10_15_7) AppleWebKit/605.1.15 (KHTML, like Gecko) Version/14.1.2 Safari/605.1.15",Word,1,z,0,86,86,29-08-22,29-08-22,10:31:37,0,0,0,0,0,716,3.6.1,6,231,,z,695,814,1440,24,900,24,29,25,1440,0,odd,MacIntel,racket
95,95,773,trial,Mozilla,Netscape,"5.0 (Macintosh; Intel Mac OS X 10_15_7) AppleWebKit/605.1.15 (KHTML, like Gecko) Version/14.1.2 Safari/605.1.15",Word,0,z,0,87,87,29-08-22,29-08-22,10:31:37,0,0,0,0,0,716,3.6.1,3,231,,m,598,814,1440,24,900,24,29,25,1440,0,odd,MacIntel,ram
94,94,779,trial,Mozilla,Netscape,"5.0 (Macintosh; Intel Mac OS X 10_15_7) AppleWebKit/605.1.15 (KHTML, like Gecko) Version/14.1.2 Safari/605.1.15",NW,0,m,0,88,88,29-08-22,29-08-22,10:31:37,0,0,0,0,0,716,3.6.1,3,231,,z,1308,814,1440,24,900,24,29,25,1440,0,odd,MacIntel,dod
94,94,779,trial,Mozilla,Netscape,"5.0 (Macintosh; Intel Mac OS X 10_15_7) AppleWebKit/605.1.15 (KHTML, like Gecko) Version/14.1.2 Safari/605.1.15",Word,1,z,0,89,89,29-08-22,29-08-22,10:31:37,0,0,0,0,0,716,3.6.1,6,231,,z,775,814,1440,24,900,24,29,25,1440,0,odd,MacIntel,punish
93,93,778,trial,Mozilla,Netscape,"5.0 (Macintosh; Intel Mac OS X 10_15_7) AppleWebKit/605.1.15 (KHTML, like Gecko) Version/14.1.2 Safari/605.1.15",Word,0,z,0,90,90,29-08-22,29-08-22,10:31:37,0,0,0,0,0,716,3.6.1,5,231,,m,687,814,1440,24,900,24,29,25,1440,0,odd,MacIntel,quart
93,93,777,trial,Mozilla,Netscape,"5.0 (Macintosh; Intel Mac OS X 10_15_7) AppleWebKit/605.1.15 (KHTML, like Gecko) Version/14.1.2 Safari/605.1.15",NW,1,m,0,91,91,29-08-22,29-08-22,10:31:37,0,0,0,0,0,716,3.6.1,5,231,,m,704,814,1440,24,900,24,29,25,1440,0,odd,MacIntel,psime
94,94,777,trial,Mozilla,Netscape,"5.0 (Macintosh; Intel Mac OS X 10_15_7) AppleWebKit/605.1.15 (KHTML, like Gecko) Version/14.1.2 Safari/605.1.15",PH,1,m,0,92,92,29-08-22,29-08-22,10:31:37,0,0,0,0,0,716,3.6.1,4,231,,m,787,814,1440,24,900,24,29,25,1440,0,odd,MacIntel,haks
94,94,779,trial,Mozilla,Netscape,"5.0 (Macintosh; Intel Mac OS X 10_15_7) AppleWebKit/605.1.15 (KHTML, like Gecko) Version/14.1.2 Safari/605.1.15",Word,1,z,0,93,93,29-08-22,29-08-22,10:31:37,0,0,0,0,0,716,3.6.1,5,231,,z,1012,814,1440,24,900,24,29,25,1440,0,odd,MacIntel,baron
94,94,780,trial,Mozilla,Netscape,"5.0 (Macintosh; Intel Mac OS X 10_15_7) AppleWebKit/605.1.15 (KHTML, like Gecko) Version/14.1.2 Safari/605.1.15",NW,1,m,0,94,94,29-08-22,29-08-22,10:31:37,0,0,0,0,0,716,3.6.1,6,231,,m,833,814,1440,24,900,24,29,25,1440,0,odd,MacIntel,snafes
94,94,783,trial,Mozilla,Netscape,"5.0 (Macintosh; Intel Mac OS X 10_15_7) AppleWebKit/605.1.15 (KHTML, like Gecko) Version/14.1.2 Safari/605.1.15",PH,1,m,0,95,95,29-08-22,29-08-22,10:31:37,0,0,0,0,0,716,3.6.1,5,231,,m,1082,814,1440,24,900,24,29,25,1440,0,odd,MacIntel,maise
94,94,782,trial,Mozilla,Netscape,"5.0 (Macintosh; Intel Mac OS X 10_15_7) AppleWebKit/605.1.15 (KHTML, like Gecko) Version/14.1.2 Safari/605.1.15",Word,1,z,0,96,96,29-08-22,29-08-22,10:31:37,0,0,0,0,0,716,3.6.1,6,231,,z,648,814,1440,24,900,24,29,25,1440,0,odd,MacIntel,dollar
94,94,782,trial,Mozilla,Netscape,"5.0 (Macintosh; Intel Mac OS X 10_15_7) AppleWebKit/605.1.15 (KHTML, like Gecko) Version/14.1.2 Safari/605.1.15",Word,1,z,0,97,97,29-08-22,29-08-22,10:31:37,0,0,0,0,0,716,3.6.1,5,231,,z,825,814,1440,24,900,24,29,25,1440,0,odd,MacIntel,chute
94,94,782,trial,Mozilla,Netscape,"5.0 (Macintosh; Intel Mac OS X 10_15_7) AppleWebKit/605.1.15 (KHTML, like Gecko) Version/14.1.2 Safari/605.1.15",Word,1,z,0,98,98,29-08-22,29-08-22,10:31:37,0,0,0,0,0,716,3.6.1,6,231,,z,718,814,1440,24,900,24,29,25,1440,0,odd,MacIntel,cuttle
94,94,786,trial,Mozilla,Netscape,"5.0 (Macintosh; Intel Mac OS X 10_15_7) AppleWebKit/605.1.15 (KHTML, like Gecko) Version/14.1.2 Safari/605.1.15",PH,1,m,0,99,99,29-08-22,29-08-22,10:31:37,0,0,0,0,0,716,3.6.1,6,231,,m,1261,814,1440,24,900,24,29,25,1440,0,odd,MacIntel,pleets
100,100,598,trial,Mozilla,Netscape,"5.0 (Macintosh; Intel Mac OS X 10_15_7) AppleWebKit/605.1.15 (KHTML, like Gecko) Version/14.1.2 Safari/605.1.15",NW,1,m,0,99,99,29-08-22,29-08-22,10:31:37,0,0,0,0,0,716,3.6.1,4,231,,m,598,814,1440,24,900,24,29,25,1440,0,odd,MacIntel,dwut
100,100,667,trial,Mozilla,Netscape,"5.0 (Macintosh; Intel Mac OS X 10_15_7) AppleWebKit/605.1.15 (KHTML, like Gecko) Version/14.1.2 Safari/605.1.15",NW,1,m,0,99,99,29-08-22,29-08-22,10:31:37,0,0,0,0,0,716,3.6.1,4,231,,m,735,814,1440,24,900,24,29,25,1440,0,odd,MacIntel,rurk
100,100,634,trial,Mozilla,Netscape,"5.0 (Macintosh; Intel Mac OS X 10_15_7) AppleWebKit/605.1.15 (KHTML, like Gecko) Version/14.1.2 Safari/605.1.15",Word,1,z,0,99,99,29-08-22,29-08-22,10:31:37,0,0,0,0,0,716,3.6.1,7,231,,m,570,814,1440,24,900,24,29,25,1440,0,odd,MacIntel,measure
100,100,618,trial,Mozilla,Netscape,"5.0 (Macintosh; Intel Mac OS X 10_15_7) AppleWebKit/605.1.15 (KHTML, like Gecko) Version/14.1.2 Safari/605.1.15",Word,1,z,0,99,99,29-08-22,29-08-22,10:31:37,0,0,0,0,0,716,3.6.1,6,231,,m,568,814,1440,24,900,24,29,25,1440,0,odd,MacIntel,orange
100,100,662,trial,Mozilla,Netscape,"5.0 (Macintosh; Intel Mac OS X 10_15_7) AppleWebKit/605.1.15 (KHTML, like Gecko) Version/14.1.2 Safari/605.1.15",PH,1,m,0,99,99,29-08-22,29-08-22,10:31:37,0,0,0,0,0,716,3.6.1,4,231,,m,839,814,1440,24,900,24,29,25,1440,0,odd,MacIntel,berd
100,100,663,trial,Mozilla,Netscape,"5.0 (Macintosh; Intel Mac OS X 10_15_7) AppleWebKit/605.1.15 (KHTML, like Gecko) Version/14.1.2 Safari/605.1.15",Word,1,z,0,99,99,29-08-22,29-08-22,10:31:37,0,0,0,0,0,716,3.6.1,6,231,,m,669,814,1440,24,900,24,29,25,1440,0,odd,MacIntel,mutton
100,100,650,trial,Mozilla,Netscape,"5.0 (Macintosh; Intel Mac OS X 10_15_7) AppleWebKit/605.1.15 (KHTML, like Gecko) Version/14.1.2 Safari/605.1.15",Word,1,z,0,99,99,29-08-22,29-08-22,10:31:37,0,0,0,0,0,716,3.6.1,4,231,,m,570,814,1440,24,900,24,29,25,1440,0,odd,MacIntel,zone
100,100,666,trial,Mozilla,Netscape,"5.0 (Macintosh; Intel Mac OS X 10_15_7) AppleWebKit/605.1.15 (KHTML, like Gecko) Version/14.1.2 Safari/605.1.15",NW,1,m,0,99,99,29-08-22,29-08-22,10:31:37,0,0,0,0,0,716,3.6.1,6,231,,m,777,814,1440,24,900,24,29,25,1440,0,odd,MacIntel,sluped
100,100,666,trial,Mozilla,Netscape,"5.0 (Macintosh; Intel Mac OS X 10_15_7) AppleWebKit/605.1.15 (KHTML, like Gecko) Version/14.1.2 Safari/605.1.15",NW,1,m,0,99,99,29-08-22,29-08-22,10:31:37,0,0,0,0,0,716,3.6.1,6,231,,m,670,814,1440,24,900,24,29,25,1440,0,odd,MacIntel,wralph
100,100,664,trial,Mozilla,Netscape,"5.0 (Macintosh; Intel Mac OS X 10_15_7) AppleWebKit/605.1.15 (KHTML, like Gecko) Version/14.1.2 Safari/605.1.15",PH,1,m,0,99,99,29-08-22,29-08-22,10:31:37,0,0,0,0,0,716,3.6.1,4,231,,m,644,814,1440,24,900,24,29,25,1440,0,odd,MacIntel,fize
100,100,670,trial,Mozilla,Netscape,"5.0 (Macintosh; Intel Mac OS X 10_15_7) AppleWebKit/605.1.15 (KHTML, like Gecko) Version/14.1.2 Safari/605.1.15",Word,1,z,0,99,99,29-08-22,29-08-22,10:31:37,0,0,0,0,0,716,3.6.1,5,231,,m,735,814,1440,24,900,24,29,25,1440,0,odd,MacIntel,grove
100,100,659,trial,Mozilla,Netscape,"5.0 (Macintosh; Intel Mac OS X 10_15_7) AppleWebKit/605.1.15 (KHTML, like Gecko) Version/14.1.2 Safari/605.1.15",Word,1,z,0,99,99,29-08-22,29-08-22,10:31:37,0,0,0,0,0,716,3.6.1,4,231,,m,529,814,1440,24,900,24,29,25,1440,0,odd,MacIntel,blow
100,100,648,trial,Mozilla,Netscape,"5.0 (Macintosh; Intel Mac OS X 10_15_7) AppleWebKit/605.1.15 (KHTML, like Gecko) Version/14.1.2 Safari/605.1.15",Word,1,z,0,99,99,29-08-22,29-08-22,10:31:37,0,0,0,0,0,716,3.6.1,6,231,,m,521,814,1440,24,900,24,29,25,1440,0,odd,MacIntel,planet
100,100,646,trial,Mozilla,Netscape,"5.0 (Macintosh; Intel Mac OS X 10_15_7) AppleWebKit/605.1.15 (KHTML, like Gecko) Version/14.1.2 Safari/605.1.15",PH,1,m,0,99,99,29-08-22,29-08-22,10:31:37,0,0,0,0,0,716,3.6.1,6,231,,m,625,814,1440,24,900,24,29,25,1440,0,odd,MacIntel,wroons
100,100,644,trial,Mozilla,Netscape,"5.0 (Macintosh; Intel Mac OS X 10_15_7) AppleWebKit/605.1.15 (KHTML, like Gecko) Version/14.1.2 Safari/605.1.15",Word,1,z,0,99,99,29-08-22,29-08-22,10:31:37,0,0,0,0,0,716,3.6.1,6,231,,m,616,814,1440,24,900,24,29,25,1440,0,odd,MacIntel,jargon
100,100,644,trial,Mozilla,Netscape,"5.0 (Macintosh; Intel Mac OS X 10_15_7) AppleWebKit/605.1.15 (KHTML, like Gecko) Version/14.1.2 Safari/605.1.15",NW,1,m,0,99,99,29-08-22,29-08-22,10:31:37,0,0,0,0,0,716,3.6.1,6,231,,m,632,814,1440,24,900,24,29,25,1440,0,odd,MacIntel,whotes
100,100,640,trial,Mozilla,Netscape,"5.0 (Macintosh; Intel Mac OS X 10_15_7) AppleWebKit/605.1.15 (KHTML, like Gecko) Version/14.1.2 Safari/605.1.15",Word,1,z,0,99,99,29-08-22,29-08-22,10:31:37,0,0,0,0,0,716,3.6.1,4,231,,m,584,814,1440,24,900,24,29,25,1440,0,odd,MacIntel,camp
100,100,642,trial,Mozilla,Netscape,"5.0 (Macintosh; Intel Mac OS X 10_15_7) AppleWebKit/605.1.15 (KHTML, like Gecko) Version/14.1.2 Safari/605.1.15",PH,1,m,0,99,99,29-08-22,29-08-22,10:31:37,0,0,0,0,0,716,3.6.1,6,231,,m,672,814,1440,24,900,24,29,25,1440,0,odd,MacIntel,ghulfs
95,95,674,trial,Mozilla,Netscape,"5.0 (Macintosh; Intel Mac OS X 10_15_7) AppleWebKit/605.1.15 (KHTML, like Gecko) Version/14.1.2 Safari/605.1.15",NW,0,m,0,99,99,29-08-22,29-08-22,10:31:37,0,0,0,0,0,716,3.6.1,6,231,,m,1259,814,1440,24,900,24,29,25,1440,0,odd,MacIntel,gromes
95,95,680,trial,Mozilla,Netscape,"5.0 (Macintosh; Intel Mac OS X 10_15_7) AppleWebKit/605.1.15 (KHTML, like Gecko) Version/14.1.2 Safari/605.1.15",Word,1,z,0,99,99,29-08-22,29-08-22,10:31:37,0,0,0,0,0,716,3.6.1,5,231,,m,778,814,1440,24,900,24,29,25,1440,0,odd,MacIntel,audit
95,95,683,trial,Mozilla,Netscape,"5.0 (Macintosh; Intel Mac OS X 10_15_7) AppleWebKit/605.1.15 (KHTML, like Gecko) Version/14.1.2 Safari/605.1.15",PH,1,m,0,99,99,29-08-22,29-08-22,10:31:37,0,0,0,0,0,716,3.6.1,3,231,,m,743,814,1440,24,900,24,29,25,1440,0,odd,MacIntel,oad
95,95,707,trial,Mozilla,Netscape,"5.0 (Macintosh; Intel Mac OS X 10_15_7) AppleWebKit/605.1.15 (KHTML, like Gecko) Version/14.1.2 Safari/605.1.15",NW,1,m,0,99,99,29-08-22,29-08-22,10:31:37,0,0,0,0,0,716,3.6.1,7,231,,m,1226,814,1440,24,900,24,29,25,1440,0,odd,MacIntel,spoints
91,91,712,trial,Mozilla,Netscape,"5.0 (Macintosh; Intel Mac OS X 10_15_7) AppleWebKit/605.1.15 (KHTML, like Gecko) Version/14.1.2 Safari/605.1.15",Word,0,z,0,99,99,29-08-22,29-08-22,10:31:37,0,0,0,0,0,716,3.6.1,4,231,,m,805,814,1440,24,900,24,29,25,1440,0,odd,MacIntel,welt
92,92,712,trial,Mozilla,Netscape,"5.0 (Macintosh; Intel Mac OS X 10_15_7) AppleWebKit/605.1.15 (KHTML, like Gecko) Version/14.1.2 Safari/605.1.15",PH,1,m,0,99,99,29-08-22,29-08-22,10:31:37,0,0,0,0,0,716,3.6.1,4,231,,m,721,814,1440,24,900,24,29,25,1440,0,odd,MacIntel,dror
92,92,714,trial,Mozilla,Netscape,"5.0 (Macintosh; Intel Mac OS X 10_15_7) AppleWebKit/605.1.15 (KHTML, like Gecko) Version/14.1.2 Safari/605.1.15",Word,1,z,0,99,99,29-08-22,29-08-22,10:31:37,0,0,0,0,0,716,3.6.1,4,231,,m,765,814,1440,24,900,24,29,25,1440,0,odd,MacIntel,worn
92,92,760,trial,Mozilla,Netscape,"5.0 (Macintosh; Intel Mac OS X 10_15_7) AppleWebKit/605.1.15 (KHTML, like Gecko) Version/14.1.2 Safari/605.1.15",PH,1,m,0,99,99,29-08-22,29-08-22,10:31:37,0,0,0,0,0,716,3.6.1,5,231,,m,1912,814,1440,24,900,24,29,25,1440,0,odd,MacIntel,cuild
93,93,755,trial,Mozilla,Netscape,"5.0 (Macintosh; Intel Mac OS X 10_15_7) AppleWebKit/605.1.15 (KHTML, like Gecko) Version/14.1.2 Safari/605.1.15",NW,1,m,0,99,99,29-08-22,29-08-22,10:31:37,0,0,0,0,0,716,3.6.1,6,231,,m,610,814,1440,24,900,24,29,25,1440,0,odd,MacIntel,thwups
89,89,759,trial,Mozilla,Netscape,"5.0 (Macintosh; Intel Mac OS X 10_15_7) AppleWebKit/605.1.15 (KHTML, like Gecko) Version/14.1.2 Safari/605.1.15",Word,0,z,0,99,99,29-08-22,29-08-22,10:31:37,0,0,0,0,0,716,3.6.1,7,231,,m,880,814,1440,24,900,24,29,25,1440,0,odd,MacIntel,arbiter
90,90,755,trial,Mozilla,Netscape,"5.0 (Macintosh; Intel Mac OS X 10_15_7) AppleWebKit/605.1.15 (KHTML, like Gecko) Version/14.1.2 Safari/605.1.15",PH,1,m,0,99,99,29-08-22,29-08-22,10:31:37,0,0,0,0,0,716,3.6.1,5,231,,m,646,814,1440,24,900,24,29,25,1440,0,odd,MacIntel,kubed
90,90,751,trial,Mozilla,Netscape,"5.0 (Macintosh; Intel Mac OS X 10_15_7) AppleWebKit/605.1.15 (KHTML, like Gecko) Version/14.1.2 Safari/605.1.15",NW,1,m,0,99,99,29-08-22,29-08-22,10:31:37,0,0,0,0,0,716,3.6.1,5,231,,m,627,814,1440,24,900,24,29,25,1440,0,odd,MacIntel,waffs
90,90,747,trial,Mozilla,Netscape,"5.0 (Macintosh; Intel Mac OS X 10_15_7) AppleWebKit/605.1.15 (KHTML, like Gecko) Version/14.1.2 Safari/605.1.15",Word,1,z,0,99,99,29-08-22,29-08-22,10:31:37,0,0,0,0,0,716,3.6.1,6,231,,m,634,814,1440,24,900,24,29,25,1440,0,odd,MacIntel,puddle
91,91,750,trial,Mozilla,Netscape,"5.0 (Macintosh; Intel Mac OS X 10_15_7) AppleWebKit/605.1.15 (KHTML, like Gecko) Version/14.1.2 Safari/605.1.15",Word,1,z,0,99,99,29-08-22,29-08-22,10:31:37,0,0,0,0,0,716,3.6.1,7,231,,m,854,814,1440,24,900,24,29,25,1440,0,odd,MacIntel,charter
91,91,755,trial,Mozilla,Netscape,"5.0 (Macintosh; Intel Mac OS X 10_15_7) AppleWebKit/605.1.15 (KHTML, like Gecko) Version/14.1.2 Safari/605.1.15",NW,1,m,0,99,99,29-08-22,29-08-22,10:31:37,0,0,0,0,0,716,3.6.1,5,231,,m,887,814,1440,24,900,24,29,25,1440,0,odd,MacIntel,stoil
91,91,748,trial,Mozilla,Netscape,"5.0 (Macintosh; Intel Mac OS X 10_15_7) AppleWebKit/605.1.15 (KHTML, like Gecko) Version/14.1.2 Safari/605.1.15",Word,1,z,0,99,99,29-08-22,29-08-22,10:31:37,0,0,0,0,0,716,3.6.1,6,231,,m,536,814,1440,24,900,24,29,25,1440,0,odd,MacIntel,misery
91,91,745,trial,Mozilla,Netscape,"5.0 (Macintosh; Intel Mac OS X 10_15_7) AppleWebKit/605.1.15 (KHTML, like Gecko) Version/14.1.2 Safari/605.1.15",NW,1,m,0,99,99,29-08-22,29-08-22,10:31:37,0,0,0,0,0,716,3.6.1,4,231,,m,643,814,1440,24,900,24,29,25,1440,0,odd,MacIntel,yows
92,92,740,trial,Mozilla,Netscape,"5.0 (Macintosh; Intel Mac OS X 10_15_7) AppleWebKit/605.1.15 (KHTML, like Gecko) Version/14.1.2 Safari/605.1.15",Word,1,z,0,99,99,29-08-22,29-08-22,10:31:37,0,0,0,0,0,716,3.6.1,5,231,,m,546,814,1440,24,900,24,29,25,1440,0,odd,MacIntel,linen
92,92,737,trial,Mozilla,Netscape,"5.0 (Macintosh; Intel Mac OS X 10_15_7) AppleWebKit/605.1.15 (KHTML, like Gecko) Version/14.1.2 Safari/605.1.15",PH,1,m,0,99,99,29-08-22,29-08-22,10:31:37,0,0,0,0,0,716,3.6.1,6,231,,m,647,814,1440,24,900,24,29,25,1440,0,odd,MacIntel,whefts
92,92,736,trial,Mozilla,Netscape,"5.0 (Macintosh; Intel Mac OS X 10_15_7) AppleWebKit/605.1.15 (KHTML, like Gecko) Version/14.1.2 Safari/605.1.15",NW,1,m,0,99,99,29-08-22,29-08-22,10:31:37,0,0,0,0,0,716,3.6.1,5,231,,m,699,814,1440,24,900,24,29,25,1440,0,odd,MacIntel,snive
92,92,736,trial,Mozilla,Netscape,"5.0 (Macintosh; Intel Mac OS X 10_15_7) AppleWebKit/605.1.15 (KHTML, like Gecko) Version/14.1.2 Safari/605.1.15",PH,1,m,0,99,99,29-08-22,29-08-22,10:31:37,0,0,0,0,0,716,3.6.1,4,231,,m,722,814,1440,24,900,24,29,25,1440,0,odd,MacIntel,hepe
93,93,738,trial,Mozilla,Netscape,"5.0 (Macintosh; Intel Mac OS X 10_15_7) AppleWebKit/605.1.15 (KHTML, like Gecko) Version/14.1.2 Safari/605.1.15",Word,1,z,0,99,99,29-08-22,29-08-22,10:31:37,0,0,0,0,0,716,3.6.1,6,231,,m,825,814,1440,24,900,24,29,25,1440,0,odd,MacIntel,tomato
93,93,745,trial,Mozilla,Netscape,"5.0 (Macintosh; Intel Mac OS X 10_15_7) AppleWebKit/605.1.15 (KHTML, like Gecko) Version/14.1.2 Safari/605.1.15",PH,1,m,0,99,99,29-08-22,29-08-22,10:31:37,0,0,0,0,0,716,3.6.1,6,231,,m,1012,814,1440,24,900,24,29,25,1440,0,odd,MacIntel,chaist
93,93,741,trial,Mozilla,Netscape,"5.0 (Macintosh; Intel Mac OS X 10_15_7) AppleWebKit/605.1.15 (KHTML, like Gecko) Version/14.1.2 Safari/605.1.15",Word,1,z,0,99,99,29-08-22,29-08-22,10:31:37,0,0,0,0,0,716,3.6.1,3,231,,m,594,814,1440,24,900,24,29,25,1440,0,odd,MacIntel,rib
93,93,749,trial,Mozilla,Netscape,"5.0 (Macintosh; Intel Mac OS X 10_15_7) AppleWebKit/605.1.15 (KHTML, like Gecko) Version/14.1.2 Safari/605.1.15",PH,1,m,0,99,99,29-08-22,29-08-22,10:31:37,0,0,0,0,0,716,3.6.1,7,231,,m,1089,814,1440,24,900,24,29,25,1440,0,odd,MacIntel,ghaffed
93,93,746,trial,Mozilla,Netscape,"5.0 (Macintosh; Intel Mac OS X 10_15_7) AppleWebKit/605.1.15 (KHTML, like Gecko) Version/14.1.2 Safari/605.1.15",NW,1,m,0,99,99,29-08-22,29-08-22,10:31:37,0,0,0,0,0,716,3.6.1,4,231,,m,611,814,1440,24,900,24,29,25,1440,0,odd,MacIntel,zowl
93,93,750,trial,Mozilla,Netscape,"5.0 (Macintosh; Intel Mac OS X 10_15_7) AppleWebKit/605.1.15 (KHTML, like Gecko) Version/14.1.2 Safari/605.1.15",Word,1,z,0,99,99,29-08-22,29-08-22,10:31:37,0,0,0,0,0,716,3.6.1,7,231,,m,916,814,1440,24,900,24,29,25,1440,0,odd,MacIntel,referee
93,93,751,trial,Mozilla,Netscape,"5.0 (Macintosh; Intel Mac OS X 10_15_7) AppleWebKit/605.1.15 (KHTML, like Gecko) Version/14.1.2 Safari/605.1.15",Word,1,z,0,99,99,29-08-22,29-08-22,10:31:37,0,0,0,0,0,716,3.6.1,5,231,,m,803,814,1440,24,900,24,29,25,1440,0,odd,MacIntel,cloak
94,94,754,trial,Mozilla,Netscape,"5.0 (Macintosh; Intel Mac OS X 10_15_7) AppleWebKit/605.1.15 (KHTML, like Gecko) Version/14.1.2 Safari/605.1.15",NW,1,m,0,99,99,29-08-22,29-08-22,10:31:37,0,0,0,0,0,716,3.6.1,3,231,,m,884,814,1440,24,900,24,29,25,1440,0,odd,MacIntel,erb
94,94,754,trial,Mozilla,Netscape,"5.0 (Macintosh; Intel Mac OS X 10_15_7) AppleWebKit/605.1.15 (KHTML, like Gecko) Version/14.1.2 Safari/605.1.15",Word,1,z,0,99,99,29-08-22,29-08-22,10:31:37,0,0,0,0,0,716,3.6.1,6,231,,m,780,814,1440,24,900,24,29,25,1440,0,odd,MacIntel,breath
94,94,754,trial,Mozilla,Netscape,"5.0 (Macintosh; Intel Mac OS X 10_15_7) AppleWebKit/605.1.15 (KHTML, like Gecko) Version/14.1.2 Safari/605.1.15",PH,1,m,0,99,99,29-08-22,29-08-22,10:31:37,0,0,0,0,0,716,3.6.1,3,231,,m,741,814,1440,24,900,24,29,25,1440,0,odd,MacIntel,orl
94,94,754,trial,Mozilla,Netscape,"5.0 (Macintosh; Intel Mac OS X 10_15_7) AppleWebKit/605.1.15 (KHTML, like Gecko) Version/14.1.2 Safari/605.1.15",Word,1,z,0,99,99,29-08-22,29-08-22,10:31:37,0,0,0,0,0,716,3.6.1,3,231,,m,741,814,1440,24,900,24,29,25,1440,0,odd,MacIntel,lax
92,92,763,trial,Mozilla,Netscape,"5.0 (Macintosh; Intel Mac OS X 10_15_7) AppleWebKit/605.1.15 (KHTML, like Gecko) Version/14.1.2 Safari/605.1.15",Word,0,z,0,99,99,29-08-22,29-08-22,10:31:37,0,0,0,0,0,716,3.6.1,4,231,,m,1209,814,1440,24,900,24,29,25,1440,0,odd,MacIntel,fane
92,92,764,trial,Mozilla,Netscape,"5.0 (Macintosh; Intel Mac OS X 10_15_7) AppleWebKit/605.1.15 (KHTML, like Gecko) Version/14.1.2 Safari/605.1.15",PH,1,m,0,99,99,29-08-22,29-08-22,10:31:37,0,0,0,0,0,716,3.6.1,5,231,,m,817,814,1440,24,900,24,29,25,1440,0,odd,MacIntel,gnone
92,92,764,trial,Mozilla,Netscape,"5.0 (Macintosh; Intel Mac OS X 10_15_7) AppleWebKit/605.1.15 (KHTML, like Gecko) Version/14.1.2 Safari/605.1.15",PH,1,m,0,99,99,29-08-22,29-08-22,10:31:37,0,0,0,0,0,716,3.6.1,6,231,,m,756,814,1440,24,900,24,29,25,1440,0,odd,MacIntel,scadds
93,93,762,trial,Mozilla,Netscape,"5.0 (Macintosh; Intel Mac OS X 10_15_7) AppleWebKit/605.1.15 (KHTML, like Gecko) Version/14.1.2 Safari/605.1.15",PH,1,m,0,99,99,29-08-22,29-08-22,10:31:37,0,0,0,0,0,716,3.6.1,5,231,,m,668,814,1440,24,900,24,29,25,1440,0,odd,MacIntel,cemed
93,93,759,trial,Mozilla,Netscape,"5.0 (Macintosh; Intel Mac OS X 10_15_7) AppleWebKit/605.1.15 (KHTML, like Gecko) Version/14.1.2 Safari/605.1.15",NW,1,m,0,99,99,29-08-22,29-08-22,10:31:37,0,0,0,0,0,716,3.6.1,5,231,,m,583,814,1440,24,900,24,29,25,1440,0,odd,MacIntel,tadds
