acc,accuracy,avg_rt,block,browser_codename,browser_name,browser_version,category,correct,correct_response,count_reset_feedback,count_trial_sequence,count_word,date_startdate,date_startdateUTC,date_starttime,experiment_debug,experiment_parameters,experiment_pilot,experiment_taskname,experiment_taskversion,jatosStudyResultId,jatosVersion,number_letters,queryParams_batchId,queryParams_personalMultipleWorkerId,response_keyboard_response,response_time,screen_availableHeight,screen_availableWidth,screen_colorDepth,screen_height,screen_pixelDepth,screen_screenX,screen_screenY,screen_width,subject_nr,subject_parity,system_os,target
0,0,5002,practice,Mozilla,Netscape,5.0 (Macintosh),Word,0,z,None,None,None,27-08-22,27-08-22,16:14:07,0,0,0,0,0,689,3.6.1,5,231,751,None,5002,1175,1920,30,1200,30,2,25,1920,1,odd,MacIntel,apple
0,0,5007,practice,Mozilla,Netscape,5.0 (Macintosh),NW,0,m,None,None,None,27-08-22,27-08-22,16:14:07,0,0,0,0,0,689,3.6.1,5,231,751,None,5012,1175,1920,30,1200,30,2,25,1920,1,odd,MacIntel,ipple
0,0,4319,practice,Mozilla,Netscape,5.0 (Macintosh),NW,0,m,None,None,None,27-08-22,27-08-22,16:14:07,0,0,0,0,0,689,3.6.1,5,231,751,None,2944,1175,1920,30,1200,30,2,25,1920,1,odd,MacIntel,mocag
0,0,3390,practice,Mozilla,Netscape,5.0 (Macintosh),Word,0,z,None,None,None,27-08-22,27-08-22,16:14:07,0,0,0,0,0,689,3.6.1,6,231,751,None,603,1175,1920,30,1200,30,2,25,1920,1,odd,MacIntel,turtle
20,20,2899,practice,Mozilla,Netscape,5.0 (Macintosh),Word,1,z,None,None,None,27-08-22,27-08-22,16:14:07,0,0,0,0,0,689,3.6.1,5,231,751,None,932,1175,1920,30,1200,30,2,25,1920,1,odd,MacIntel,magic
33,33,2483,practice,Mozilla,Netscape,5.0 (Macintosh),NW,1,m,None,None,None,27-08-22,27-08-22,16:14:07,0,0,0,0,0,689,3.6.1,6,231,751,None,402,1175,1920,30,1200,30,2,25,1920,1,odd,MacIntel,ourtel
0,0,991,trial,Mozilla,Netscape,5.0 (Macintosh),Word,0,z,0,0,0,27-08-22,27-08-22,16:14:07,0,0,0,0,0,689,3.6.1,6,231,751,m,991,1175,1920,30,1200,30,2,25,1920,1,odd,MacIntel,salute
50,50,626,trial,Mozilla,Netscape,5.0 (Macintosh),NW,1,m,0,1,1,27-08-22,27-08-22,16:14:07,0,0,0,0,0,689,3.6.1,5,231,751,m,261,1175,1920,30,1200,30,2,25,1920,1,odd,MacIntel,tould
67,67,526,trial,Mozilla,Netscape,5.0 (Macintosh),NW,1,m,0,2,2,27-08-22,27-08-22,16:14:07,0,0,0,0,0,689,3.6.1,5,231,751,m,326,1175,1920,30,1200,30,2,25,1920,1,odd,MacIntel,fumps
50,50,464,trial,Mozilla,Netscape,5.0 (Macintosh),Word,0,z,0,3,3,27-08-22,27-08-22,16:14:07,0,0,0,0,0,689,3.6.1,5,231,751,m,277,1175,1920,30,1200,30,2,25,1920,1,odd,MacIntel,chute
60,60,430,trial,Mozilla,Netscape,5.0 (Macintosh),NW,1,m,0,4,4,27-08-22,27-08-22,16:14:07,0,0,0,0,0,689,3.6.1,6,231,751,m,294,1175,1920,30,1200,30,2,25,1920,1,odd,MacIntel,sturds
67,67,425,trial,Mozilla,Netscape,5.0 (Macintosh),NW,1,m,0,5,5,27-08-22,27-08-22,16:14:07,0,0,0,0,0,689,3.6.1,6,231,751,m,401,1175,1920,30,1200,30,2,25,1920,1,odd,MacIntel,scrait
57,57,379,trial,Mozilla,Netscape,5.0 (Macintosh),Word,0,z,0,6,6,27-08-22,27-08-22,16:14:07,0,0,0,0,0,689,3.6.1,4,231,751,m,104,1175,1920,30,1200,30,2,25,1920,1,odd,MacIntel,beak
50,50,347,trial,Mozilla,Netscape,5.0 (Macintosh),Word,0,z,0,7,7,27-08-22,27-08-22,16:14:07,0,0,0,0,0,689,3.6.1,6,231,751,m,121,1175,1920,30,1200,30,2,25,1920,1,odd,MacIntel,dollar
56,56,329,trial,Mozilla,Netscape,5.0 (Macintosh),PH,1,m,0,8,8,27-08-22,27-08-22,16:14:07,0,0,0,0,0,689,3.6.1,4,231,751,m,184,1175,1920,30,1200,30,2,25,1920,1,odd,MacIntel,spue
60,60,314,trial,Mozilla,Netscape,5.0 (Macintosh),NW,1,m,0,9,9,27-08-22,27-08-22,16:14:07,0,0,0,0,0,689,3.6.1,6,231,751,m,180,1175,1920,30,1200,30,2,25,1920,1,odd,MacIntel,snafes
55,55,304,trial,Mozilla,Netscape,5.0 (Macintosh),Word,0,z,0,10,10,27-08-22,27-08-22,16:14:07,0,0,0,0,0,689,3.6.1,4,231,751,m,209,1175,1920,30,1200,30,2,25,1920,1,odd,MacIntel,yelp
58,58,291,trial,Mozilla,Netscape,5.0 (Macintosh),PH,1,m,0,11,11,27-08-22,27-08-22,16:14:07,0,0,0,0,0,689,3.6.1,5,231,751,m,143,1175,1920,30,1200,30,2,25,1920,1,odd,MacIntel,stais
54,54,654,trial,Mozilla,Netscape,5.0 (Macintosh),Word,0,z,0,12,12,27-08-22,27-08-22,16:14:07,0,0,0,0,0,689,3.6.1,4,231,751,None,5015,1175,1920,30,1200,30,2,25,1920,1,odd,MacIntel,turn
50,50,965,trial,Mozilla,Netscape,5.0 (Macintosh),NW,0,m,0,13,13,27-08-22,27-08-22,16:14:07,0,0,0,0,0,689,3.6.1,5,231,751,None,5003,1175,1920,30,1200,30,2,25,1920,1,odd,MacIntel,bince
47,47,1234,trial,Mozilla,Netscape,5.0 (Macintosh),Word,0,z,0,14,14,27-08-22,27-08-22,16:14:07,0,0,0,0,0,689,3.6.1,4,231,751,None,5002,1175,1920,30,1200,30,2,25,1920,1,odd,MacIntel,mean
44,44,1470,trial,Mozilla,Netscape,5.0 (Macintosh),Word,0,z,0,15,15,27-08-22,27-08-22,16:14:07,0,0,0,0,0,689,3.6.1,7,231,751,None,5001,1175,1920,30,1200,30,2,25,1920,1,odd,MacIntel,ceiling
41,41,1678,trial,Mozilla,Netscape,5.0 (Macintosh),Word,0,z,0,16,16,27-08-22,27-08-22,16:14:07,0,0,0,0,0,689,3.6.1,5,231,751,None,5011,1175,1920,30,1200,30,2,25,1920,1,odd,MacIntel,ghost
39,39,1863,trial,Mozilla,Netscape,5.0 (Macintosh),PH,0,m,0,17,17,27-08-22,27-08-22,16:14:07,0,0,0,0,0,689,3.6.1,7,231,751,None,5014,1175,1920,30,1200,30,2,25,1920,1,odd,MacIntel,ghoards
37,37,2029,trial,Mozilla,Netscape,5.0 (Macintosh),NW,0,m,0,18,18,27-08-22,27-08-22,16:14:07,0,0,0,0,0,689,3.6.1,6,231,751,None,5015,1175,1920,30,1200,30,2,25,1920,1,odd,MacIntel,sleens
35,35,2178,trial,Mozilla,Netscape,5.0 (Macintosh),PH,0,m,0,19,19,27-08-22,27-08-22,16:14:07,0,0,0,0,0,689,3.6.1,6,231,751,None,5014,1175,1920,30,1200,30,2,25,1920,1,odd,MacIntel,pleets
33,33,2313,trial,Mozilla,Netscape,5.0 (Macintosh),NW,0,m,0,20,20,27-08-22,27-08-22,16:14:07,0,0,0,0,0,689,3.6.1,5,231,751,None,5004,1175,1920,30,1200,30,2,25,1920,1,odd,MacIntel,chowl
32,32,2436,trial,Mozilla,Netscape,5.0 (Macintosh),Word,0,z,0,21,21,27-08-22,27-08-22,16:14:07,0,0,0,0,0,689,3.6.1,6,231,751,None,5015,1175,1920,30,1200,30,2,25,1920,1,odd,MacIntel,camera
30,30,2547,trial,Mozilla,Netscape,5.0 (Macintosh),Word,0,z,0,22,22,27-08-22,27-08-22,16:14:07,0,0,0,0,0,689,3.6.1,3,231,751,None,5001,1175,1920,30,1200,30,2,25,1920,1,odd,MacIntel,ram
29,29,2482,trial,Mozilla,Netscape,5.0 (Macintosh),Word,0,z,0,23,23,27-08-22,27-08-22,16:14:07,0,0,0,0,0,689,3.6.1,6,231,751,m,973,1175,1920,30,1200,30,2,25,1920,1,odd,MacIntel,banana
28,28,2410,trial,Mozilla,Netscape,5.0 (Macintosh),Word,0,z,0,24,24,27-08-22,27-08-22,16:14:07,0,0,0,0,0,689,3.6.1,6,231,751,m,702,1175,1920,30,1200,30,2,25,1920,1,odd,MacIntel,chapel
27,27,2406,trial,Mozilla,Netscape,5.0 (Macintosh),Word,0,z,0,25,25,27-08-22,27-08-22,16:14:07,0,0,0,0,0,689,3.6.1,4,231,751,m,2293,1175,1920,30,1200,30,2,25,1920,1,odd,MacIntel,star
26,26,2318,trial,Mozilla,Netscape,5.0 (Macintosh),Word,0,z,0,26,26,27-08-22,27-08-22,16:14:07,0,0,0,0,0,689,3.6.1,6,231,751,m,30,1175,1920,30,1200,30,2,25,1920,1,odd,MacIntel,ginger
25,25,2251,trial,Mozilla,Netscape,5.0 (Macintosh),Word,0,z,0,27,27,27-08-22,27-08-22,16:14:07,0,0,0,0,0,689,3.6.1,6,231,751,m,446,1175,1920,30,1200,30,2,25,1920,1,odd,MacIntel,scroll
28,28,2186,trial,Mozilla,Netscape,5.0 (Macintosh),PH,1,m,0,28,28,27-08-22,27-08-22,16:14:07,0,0,0,0,0,689,3.6.1,6,231,751,m,373,1175,1920,30,1200,30,2,25,1920,1,odd,MacIntel,phlize
30,30,2127,trial,Mozilla,Netscape,5.0 (Macintosh),PH,1,m,0,29,29,27-08-22,27-08-22,16:14:07,0,0,0,0,0,689,3.6.1,3,231,751,m,395,1175,1920,30,1200,30,2,25,1920,1,odd,MacIntel,rey
29,29,2219,trial,Mozilla,Netscape,5.0 (Macintosh),Word,0,z,0,30,30,27-08-22,27-08-22,16:14:07,0,0,0,0,0,689,3.6.1,6,231,751,None,5002,1175,1920,30,1200,30,2,25,1920,1,odd,MacIntel,amount
28,28,2306,trial,Mozilla,Netscape,5.0 (Macintosh),PH,0,m,0,31,31,27-08-22,27-08-22,16:14:07,0,0,0,0,0,689,3.6.1,5,231,751,None,5002,1175,1920,30,1200,30,2,25,1920,1,odd,MacIntel,phley
27,27,2388,trial,Mozilla,Netscape,5.0 (Macintosh),PH,0,m,0,32,32,27-08-22,27-08-22,16:14:07,0,0,0,0,0,689,3.6.1,5,231,751,None,5001,1175,1920,30,1200,30,2,25,1920,1,odd,MacIntel,phete
26,26,2465,trial,Mozilla,Netscape,5.0 (Macintosh),NW,0,m,0,33,33,27-08-22,27-08-22,16:14:07,0,0,0,0,0,689,3.6.1,4,231,751,None,5001,1175,1920,30,1200,30,2,25,1920,1,odd,MacIntel,twom
26,26,2537,trial,Mozilla,Netscape,5.0 (Macintosh),Word,0,z,0,34,34,27-08-22,27-08-22,16:14:07,0,0,0,0,0,689,3.6.1,5,231,751,None,5001,1175,1920,30,1200,30,2,25,1920,1,odd,MacIntel,break
25,25,2606,trial,Mozilla,Netscape,5.0 (Macintosh),Word,0,z,0,35,35,27-08-22,27-08-22,16:14:07,0,0,0,0,0,689,3.6.1,4,231,751,None,5001,1175,1920,30,1200,30,2,25,1920,1,odd,MacIntel,miss
24,24,2670,trial,Mozilla,Netscape,5.0 (Macintosh),NW,0,m,0,36,36,27-08-22,27-08-22,16:14:07,0,0,0,0,0,689,3.6.1,6,231,751,None,5002,1175,1920,30,1200,30,2,25,1920,1,odd,MacIntel,gladge
24,24,2732,trial,Mozilla,Netscape,5.0 (Macintosh),PH,0,m,0,37,37,27-08-22,27-08-22,16:14:07,0,0,0,0,0,689,3.6.1,5,231,751,None,5001,1175,1920,30,1200,30,2,25,1920,1,odd,MacIntel,maise
23,23,2790,trial,Mozilla,Netscape,5.0 (Macintosh),NW,0,m,0,38,38,27-08-22,27-08-22,16:14:07,0,0,0,0,0,689,3.6.1,3,231,751,None,5004,1175,1920,30,1200,30,2,25,1920,1,odd,MacIntel,dod
23,23,2845,trial,Mozilla,Netscape,5.0 (Macintosh),PH,0,m,0,39,39,27-08-22,27-08-22,16:14:07,0,0,0,0,0,689,3.6.1,4,231,751,None,5002,1175,1920,30,1200,30,2,25,1920,1,odd,MacIntel,haks
22,22,2898,trial,Mozilla,Netscape,5.0 (Macintosh),Word,0,z,0,40,40,27-08-22,27-08-22,16:14:07,0,0,0,0,0,689,3.6.1,5,231,751,None,5001,1175,1920,30,1200,30,2,25,1920,1,odd,MacIntel,globe
21,21,2948,trial,Mozilla,Netscape,5.0 (Macintosh),Word,0,z,0,41,41,27-08-22,27-08-22,16:14:07,0,0,0,0,0,689,3.6.1,6,231,751,None,5001,1175,1920,30,1200,30,2,25,1920,1,odd,MacIntel,victim
21,21,2996,trial,Mozilla,Netscape,5.0 (Macintosh),Word,0,z,0,42,42,27-08-22,27-08-22,16:14:07,0,0,0,0,0,689,3.6.1,3,231,751,None,5002,1175,1920,30,1200,30,2,25,1920,1,odd,MacIntel,bib
20,20,3041,trial,Mozilla,Netscape,5.0 (Macintosh),PH,0,m,0,43,43,27-08-22,27-08-22,16:14:07,0,0,0,0,0,689,3.6.1,6,231,751,None,5002,1175,1920,30,1200,30,2,25,1920,1,odd,MacIntel,skamps
20,20,3085,trial,Mozilla,Netscape,5.0 (Macintosh),Word,0,z,0,44,44,27-08-22,27-08-22,16:14:07,0,0,0,0,0,689,3.6.1,6,231,751,None,5001,1175,1920,30,1200,30,2,25,1920,1,odd,MacIntel,punish
20,20,3127,trial,Mozilla,Netscape,5.0 (Macintosh),NW,0,m,0,45,45,27-08-22,27-08-22,16:14:07,0,0,0,0,0,689,3.6.1,5,231,751,None,5002,1175,1920,30,1200,30,2,25,1920,1,odd,MacIntel,psime
19,19,3167,trial,Mozilla,Netscape,5.0 (Macintosh),Word,0,z,0,46,46,27-08-22,27-08-22,16:14:07,0,0,0,0,0,689,3.6.1,6,231,751,None,5002,1175,1920,30,1200,30,2,25,1920,1,odd,MacIntel,enigma
19,19,3205,trial,Mozilla,Netscape,5.0 (Macintosh),PH,0,m,0,47,47,27-08-22,27-08-22,16:14:07,0,0,0,0,0,689,3.6.1,5,231,751,None,5001,1175,1920,30,1200,30,2,25,1920,1,odd,MacIntel,medes
18,18,3241,trial,Mozilla,Netscape,5.0 (Macintosh),Word,0,z,0,48,48,27-08-22,27-08-22,16:14:07,0,0,0,0,0,689,3.6.1,7,231,751,None,5002,1175,1920,30,1200,30,2,25,1920,1,odd,MacIntel,dungeon
18,18,3277,trial,Mozilla,Netscape,5.0 (Macintosh),Word,0,z,0,49,49,27-08-22,27-08-22,16:14:07,0,0,0,0,0,689,3.6.1,6,231,751,None,5002,1175,1920,30,1200,30,2,25,1920,1,odd,MacIntel,supper
18,18,3310,trial,Mozilla,Netscape,5.0 (Macintosh),NW,0,m,0,50,50,27-08-22,27-08-22,16:14:07,0,0,0,0,0,689,3.6.1,5,231,751,None,5001,1175,1920,30,1200,30,2,25,1920,1,odd,MacIntel,cound
17,17,3343,trial,Mozilla,Netscape,5.0 (Macintosh),NW,0,m,0,51,51,27-08-22,27-08-22,16:14:07,0,0,0,0,0,689,3.6.1,6,231,751,None,5002,1175,1920,30,1200,30,2,25,1920,1,odd,MacIntel,nonzed
17,17,3374,trial,Mozilla,Netscape,5.0 (Macintosh),Word,0,z,0,52,52,27-08-22,27-08-22,16:14:07,0,0,0,0,0,689,3.6.1,6,231,751,None,5002,1175,1920,30,1200,30,2,25,1920,1,odd,MacIntel,spirit
17,17,3404,trial,Mozilla,Netscape,5.0 (Macintosh),PH,0,m,0,53,53,27-08-22,27-08-22,16:14:07,0,0,0,0,0,689,3.6.1,6,231,751,None,5002,1175,1920,30,1200,30,2,25,1920,1,odd,MacIntel,proods
16,16,3433,trial,Mozilla,Netscape,5.0 (Macintosh),Word,0,z,0,54,54,27-08-22,27-08-22,16:14:07,0,0,0,0,0,689,3.6.1,6,231,751,None,5002,1175,1920,30,1200,30,2,25,1920,1,odd,MacIntel,throat
16,16,3461,trial,Mozilla,Netscape,5.0 (Macintosh),PH,0,m,0,55,55,27-08-22,27-08-22,16:14:07,0,0,0,0,0,689,3.6.1,6,231,751,None,5003,1175,1920,30,1200,30,2,25,1920,1,odd,MacIntel,whased
16,16,3489,trial,Mozilla,Netscape,5.0 (Macintosh),Word,0,z,0,56,56,27-08-22,27-08-22,16:14:07,0,0,0,0,0,689,3.6.1,6,231,751,None,5002,1175,1920,30,1200,30,2,25,1920,1,odd,MacIntel,salary
16,16,3515,trial,Mozilla,Netscape,5.0 (Macintosh),Word,0,z,0,57,57,27-08-22,27-08-22,16:14:07,0,0,0,0,0,689,3.6.1,3,231,751,None,5002,1175,1920,30,1200,30,2,25,1920,1,odd,MacIntel,leg
15,15,3540,trial,Mozilla,Netscape,5.0 (Macintosh),Word,0,z,0,58,58,27-08-22,27-08-22,16:14:07,0,0,0,0,0,689,3.6.1,5,231,751,None,5001,1175,1920,30,1200,30,2,25,1920,1,odd,MacIntel,blush
15,15,3564,trial,Mozilla,Netscape,5.0 (Macintosh),Word,0,z,0,59,59,27-08-22,27-08-22,16:14:07,0,0,0,0,0,689,3.6.1,5,231,751,None,5003,1175,1920,30,1200,30,2,25,1920,1,odd,MacIntel,huzza
15,15,3588,trial,Mozilla,Netscape,5.0 (Macintosh),PH,0,m,0,60,60,27-08-22,27-08-22,16:14:07,0,0,0,0,0,689,3.6.1,4,231,751,None,5004,1175,1920,30,1200,30,2,25,1920,1,odd,MacIntel,ryle
15,15,3611,trial,Mozilla,Netscape,5.0 (Macintosh),NW,0,m,0,61,61,27-08-22,27-08-22,16:14:07,0,0,0,0,0,689,3.6.1,6,231,751,None,5001,1175,1920,30,1200,30,2,25,1920,1,odd,MacIntel,thwams
14,14,3633,trial,Mozilla,Netscape,5.0 (Macintosh),NW,0,m,0,62,62,27-08-22,27-08-22,16:14:07,0,0,0,0,0,689,3.6.1,4,231,751,None,5002,1175,1920,30,1200,30,2,25,1920,1,odd,MacIntel,kirm
14,14,3654,trial,Mozilla,Netscape,5.0 (Macintosh),Word,0,z,0,63,63,27-08-22,27-08-22,16:14:07,0,0,0,0,0,689,3.6.1,7,231,751,None,5001,1175,1920,30,1200,30,2,25,1920,1,odd,MacIntel,blunder
14,14,3675,trial,Mozilla,Netscape,5.0 (Macintosh),Word,0,z,0,64,64,27-08-22,27-08-22,16:14:07,0,0,0,0,0,689,3.6.1,6,231,751,None,5002,1175,1920,30,1200,30,2,25,1920,1,odd,MacIntel,racket
14,14,3695,trial,Mozilla,Netscape,5.0 (Macintosh),Word,0,z,0,65,65,27-08-22,27-08-22,16:14:07,0,0,0,0,0,689,3.6.1,6,231,751,None,5001,1175,1920,30,1200,30,2,25,1920,1,odd,MacIntel,square
13,13,3714,trial,Mozilla,Netscape,5.0 (Macintosh),PH,0,m,0,66,66,27-08-22,27-08-22,16:14:07,0,0,0,0,0,689,3.6.1,4,231,751,None,5002,1175,1920,30,1200,30,2,25,1920,1,odd,MacIntel,fite
13,13,3733,trial,Mozilla,Netscape,5.0 (Macintosh),NW,0,m,0,67,67,27-08-22,27-08-22,16:14:07,0,0,0,0,0,689,3.6.1,4,231,751,None,5002,1175,1920,30,1200,30,2,25,1920,1,odd,MacIntel,brud
13,13,3752,trial,Mozilla,Netscape,5.0 (Macintosh),Word,0,z,0,68,68,27-08-22,27-08-22,16:14:07,0,0,0,0,0,689,3.6.1,7,231,751,None,5002,1175,1920,30,1200,30,2,25,1920,1,odd,MacIntel,embrace
13,13,3770,trial,Mozilla,Netscape,5.0 (Macintosh),PH,0,m,0,69,69,27-08-22,27-08-22,16:14:07,0,0,0,0,0,689,3.6.1,6,231,751,None,5002,1175,1920,30,1200,30,2,25,1920,1,odd,MacIntel,rhaque
13,13,3787,trial,Mozilla,Netscape,5.0 (Macintosh),Word,0,z,0,70,70,27-08-22,27-08-22,16:14:07,0,0,0,0,0,689,3.6.1,5,231,751,None,5003,1175,1920,30,1200,30,2,25,1920,1,odd,MacIntel,wharf
13,13,3804,trial,Mozilla,Netscape,5.0 (Macintosh),NW,0,m,0,71,71,27-08-22,27-08-22,16:14:07,0,0,0,0,0,689,3.6.1,6,231,751,None,5001,1175,1920,30,1200,30,2,25,1920,1,odd,MacIntel,trynes
12,12,3820,trial,Mozilla,Netscape,5.0 (Macintosh),Word,0,z,0,72,72,27-08-22,27-08-22,16:14:07,0,0,0,0,0,689,3.6.1,3,231,751,None,5003,1175,1920,30,1200,30,2,25,1920,1,odd,MacIntel,dog
12,12,3836,trial,Mozilla,Netscape,5.0 (Macintosh),NW,0,m,0,73,73,27-08-22,27-08-22,16:14:07,0,0,0,0,0,689,3.6.1,7,231,751,None,5001,1175,1920,30,1200,30,2,25,1920,1,odd,MacIntel,thwilms
12,12,3852,trial,Mozilla,Netscape,5.0 (Macintosh),Word,0,z,0,74,74,27-08-22,27-08-22,16:14:07,0,0,0,0,0,689,3.6.1,6,231,751,None,5002,1175,1920,30,1200,30,2,25,1920,1,odd,MacIntel,sleigh
12,12,3867,trial,Mozilla,Netscape,5.0 (Macintosh),PH,0,m,0,75,75,27-08-22,27-08-22,16:14:07,0,0,0,0,0,689,3.6.1,6,231,751,None,5002,1175,1920,30,1200,30,2,25,1920,1,odd,MacIntel,graits
12,12,3882,trial,Mozilla,Netscape,5.0 (Macintosh),Word,0,z,0,76,76,27-08-22,27-08-22,16:14:07,0,0,0,0,0,689,3.6.1,7,231,751,None,5006,1175,1920,30,1200,30,2,25,1920,1,odd,MacIntel,chuckle
12,12,3896,trial,Mozilla,Netscape,5.0 (Macintosh),PH,0,m,0,77,77,27-08-22,27-08-22,16:14:07,0,0,0,0,0,689,3.6.1,7,231,751,None,5004,1175,1920,30,1200,30,2,25,1920,1,odd,MacIntel,scoules
11,11,3910,trial,Mozilla,Netscape,5.0 (Macintosh),Word,0,z,0,78,78,27-08-22,27-08-22,16:14:07,0,0,0,0,0,689,3.6.1,7,231,751,None,5001,1175,1920,30,1200,30,2,25,1920,1,odd,MacIntel,platter
11,11,3924,trial,Mozilla,Netscape,5.0 (Macintosh),PH,0,m,0,79,79,27-08-22,27-08-22,16:14:07,0,0,0,0,0,689,3.6.1,5,231,751,None,5002,1175,1920,30,1200,30,2,25,1920,1,odd,MacIntel,wurds
11,11,3937,trial,Mozilla,Netscape,5.0 (Macintosh),Word,0,z,0,80,80,27-08-22,27-08-22,16:14:07,0,0,0,0,0,689,3.6.1,4,231,751,None,5002,1175,1920,30,1200,30,2,25,1920,1,odd,MacIntel,flow
11,11,3950,trial,Mozilla,Netscape,5.0 (Macintosh),PH,0,m,0,81,81,27-08-22,27-08-22,16:14:07,0,0,0,0,0,689,3.6.1,6,231,751,None,5002,1175,1920,30,1200,30,2,25,1920,1,odd,MacIntel,dropse
11,11,3963,trial,Mozilla,Netscape,5.0 (Macintosh),PH,0,m,0,82,82,27-08-22,27-08-22,16:14:07,0,0,0,0,0,689,3.6.1,6,231,751,None,5001,1175,1920,30,1200,30,2,25,1920,1,odd,MacIntel,fluick
11,11,3975,trial,Mozilla,Netscape,5.0 (Macintosh),Word,0,z,0,83,83,27-08-22,27-08-22,16:14:07,0,0,0,0,0,689,3.6.1,7,231,751,None,5001,1175,1920,30,1200,30,2,25,1920,1,odd,MacIntel,tarnish
11,11,3987,trial,Mozilla,Netscape,5.0 (Macintosh),PH,0,m,0,84,84,27-08-22,27-08-22,16:14:07,0,0,0,0,0,689,3.6.1,4,231,751,None,5002,1175,1920,30,1200,30,2,25,1920,1,odd,MacIntel,wure
10,10,3999,trial,Mozilla,Netscape,5.0 (Macintosh),PH,0,m,0,85,85,27-08-22,27-08-22,16:14:07,0,0,0,0,0,689,3.6.1,6,231,751,None,5002,1175,1920,30,1200,30,2,25,1920,1,odd,MacIntel,grambs
10,10,4010,trial,Mozilla,Netscape,5.0 (Macintosh),Word,0,z,0,86,86,27-08-22,27-08-22,16:14:07,0,0,0,0,0,689,3.6.1,6,231,751,None,5001,1175,1920,30,1200,30,2,25,1920,1,odd,MacIntel,thrill
10,10,4022,trial,Mozilla,Netscape,5.0 (Macintosh),Word,0,z,0,87,87,27-08-22,27-08-22,16:14:07,0,0,0,0,0,689,3.6.1,6,231,751,None,5001,1175,1920,30,1200,30,2,25,1920,1,odd,MacIntel,cuttle
10,10,4033,trial,Mozilla,Netscape,5.0 (Macintosh),NW,0,m,0,88,88,27-08-22,27-08-22,16:14:07,0,0,0,0,0,689,3.6.1,5,231,751,None,5001,1175,1920,30,1200,30,2,25,1920,1,odd,MacIntel,wrurb
10,10,4043,trial,Mozilla,Netscape,5.0 (Macintosh),NW,0,m,0,89,89,27-08-22,27-08-22,16:14:07,0,0,0,0,0,689,3.6.1,7,231,751,None,5003,1175,1920,30,1200,30,2,25,1920,1,odd,MacIntel,rhourth
10,10,4054,trial,Mozilla,Netscape,5.0 (Macintosh),Word,0,z,0,90,90,27-08-22,27-08-22,16:14:07,0,0,0,0,0,689,3.6.1,5,231,751,None,5013,1175,1920,30,1200,30,2,25,1920,1,odd,MacIntel,table
10,10,4064,trial,Mozilla,Netscape,5.0 (Macintosh),Word,0,z,0,91,91,27-08-22,27-08-22,16:14:07,0,0,0,0,0,689,3.6.1,6,231,751,None,5002,1175,1920,30,1200,30,2,25,1920,1,odd,MacIntel,misuse
10,10,4074,trial,Mozilla,Netscape,5.0 (Macintosh),NW,0,m,0,92,92,27-08-22,27-08-22,16:14:07,0,0,0,0,0,689,3.6.1,3,231,751,None,5001,1175,1920,30,1200,30,2,25,1920,1,odd,MacIntel,cem
10,10,4084,trial,Mozilla,Netscape,5.0 (Macintosh),Word,0,z,0,93,93,27-08-22,27-08-22,16:14:07,0,0,0,0,0,689,3.6.1,5,231,751,None,5001,1175,1920,30,1200,30,2,25,1920,1,odd,MacIntel,quart
9,9,4094,trial,Mozilla,Netscape,5.0 (Macintosh),PH,0,m,0,94,94,27-08-22,27-08-22,16:14:07,0,0,0,0,0,689,3.6.1,6,231,751,None,5003,1175,1920,30,1200,30,2,25,1920,1,odd,MacIntel,chured
9,9,4103,trial,Mozilla,Netscape,5.0 (Macintosh),Word,0,z,0,95,95,27-08-22,27-08-22,16:14:07,0,0,0,0,0,689,3.6.1,5,231,751,None,5001,1175,1920,30,1200,30,2,25,1920,1,odd,MacIntel,allow
9,9,4113,trial,Mozilla,Netscape,5.0 (Macintosh),Word,0,z,0,96,96,27-08-22,27-08-22,16:14:07,0,0,0,0,0,689,3.6.1,5,231,751,None,5003,1175,1920,30,1200,30,2,25,1920,1,odd,MacIntel,brake
9,9,4122,trial,Mozilla,Netscape,5.0 (Macintosh),Word,0,z,0,97,97,27-08-22,27-08-22,16:14:07,0,0,0,0,0,689,3.6.1,5,231,751,None,5003,1175,1920,30,1200,30,2,25,1920,1,odd,MacIntel,baron
9,9,4131,trial,Mozilla,Netscape,5.0 (Macintosh),NW,0,m,0,98,98,27-08-22,27-08-22,16:14:07,0,0,0,0,0,689,3.6.1,6,231,751,None,5003,1175,1920,30,1200,30,2,25,1920,1,odd,MacIntel,fradge
9,9,4140,trial,Mozilla,Netscape,5.0 (Macintosh),NW,0,m,0,99,99,27-08-22,27-08-22,16:14:07,0,0,0,0,0,689,3.6.1,7,231,751,None,5011,1175,1920,30,1200,30,2,25,1920,1,odd,MacIntel,whurfed
0,0,5001,trial,Mozilla,Netscape,5.0 (Macintosh),Word,0,z,0,99,99,27-08-22,27-08-22,16:14:07,0,0,0,0,0,689,3.6.1,6,231,751,None,5001,1175,1920,30,1200,30,2,25,1920,1,odd,MacIntel,starch
0,0,5002,trial,Mozilla,Netscape,5.0 (Macintosh),Word,0,z,0,99,99,27-08-22,27-08-22,16:14:07,0,0,0,0,0,689,3.6.1,6,231,751,None,5003,1175,1920,30,1200,30,2,25,1920,1,odd,MacIntel,puddle
0,0,5002,trial,Mozilla,Netscape,5.0 (Macintosh),PH,0,m,0,99,99,27-08-22,27-08-22,16:14:07,0,0,0,0,0,689,3.6.1,4,231,751,None,5001,1175,1920,30,1200,30,2,25,1920,1,odd,MacIntel,wran
0,0,5002,trial,Mozilla,Netscape,5.0 (Macintosh),NW,0,m,0,99,99,27-08-22,27-08-22,16:14:07,0,0,0,0,0,689,3.6.1,4,231,751,None,5003,1175,1920,30,1200,30,2,25,1920,1,odd,MacIntel,cupe
0,0,5002,trial,Mozilla,Netscape,5.0 (Macintosh),Word,0,z,0,99,99,27-08-22,27-08-22,16:14:07,0,0,0,0,0,689,3.6.1,4,231,751,None,5002,1175,1920,30,1200,30,2,25,1920,1,odd,MacIntel,step
0,0,5002,trial,Mozilla,Netscape,5.0 (Macintosh),PH,0,m,0,99,99,27-08-22,27-08-22,16:14:07,0,0,0,0,0,689,3.6.1,4,231,751,None,5002,1175,1920,30,1200,30,2,25,1920,1,odd,MacIntel,hepe
0,0,5002,trial,Mozilla,Netscape,5.0 (Macintosh),Word,0,z,0,99,99,27-08-22,27-08-22,16:14:07,0,0,0,0,0,689,3.6.1,6,231,751,None,5002,1175,1920,30,1200,30,2,25,1920,1,odd,MacIntel,breath
0,0,5002,trial,Mozilla,Netscape,5.0 (Macintosh),Word,0,z,0,99,99,27-08-22,27-08-22,16:14:07,0,0,0,0,0,689,3.6.1,4,231,751,None,5002,1175,1920,30,1200,30,2,25,1920,1,odd,MacIntel,wary
0,0,5002,trial,Mozilla,Netscape,5.0 (Macintosh),Word,0,z,0,99,99,27-08-22,27-08-22,16:14:07,0,0,0,0,0,689,3.6.1,6,231,751,None,5002,1175,1920,30,1200,30,2,25,1920,1,odd,MacIntel,belfry
0,0,5002,trial,Mozilla,Netscape,5.0 (Macintosh),Word,0,z,0,99,99,27-08-22,27-08-22,16:14:07,0,0,0,0,0,689,3.6.1,5,231,751,None,5003,1175,1920,30,1200,30,2,25,1920,1,odd,MacIntel,coach
0,0,5002,trial,Mozilla,Netscape,5.0 (Macintosh),NW,0,m,0,99,99,27-08-22,27-08-22,16:14:07,0,0,0,0,0,689,3.6.1,5,231,751,None,5002,1175,1920,30,1200,30,2,25,1920,1,odd,MacIntel,waffs
0,0,5002,trial,Mozilla,Netscape,5.0 (Macintosh),Word,0,z,0,99,99,27-08-22,27-08-22,16:14:07,0,0,0,0,0,689,3.6.1,5,231,751,None,5002,1175,1920,30,1200,30,2,25,1920,1,odd,MacIntel,pupil
0,0,5002,trial,Mozilla,Netscape,5.0 (Macintosh),PH,0,m,0,99,99,27-08-22,27-08-22,16:14:07,0,0,0,0,0,689,3.6.1,7,231,751,None,5003,1175,1920,30,1200,30,2,25,1920,1,odd,MacIntel,ghaffed
0,0,5002,trial,Mozilla,Netscape,5.0 (Macintosh),Word,0,z,0,99,99,27-08-22,27-08-22,16:14:07,0,0,0,0,0,689,3.6.1,5,231,751,None,5002,1175,1920,30,1200,30,2,25,1920,1,odd,MacIntel,audit
0,0,5002,trial,Mozilla,Netscape,5.0 (Macintosh),PH,0,m,0,99,99,27-08-22,27-08-22,16:14:07,0,0,0,0,0,689,3.6.1,4,231,751,None,5002,1175,1920,30,1200,30,2,25,1920,1,odd,MacIntel,dror
0,0,5002,trial,Mozilla,Netscape,5.0 (Macintosh),Word,0,z,0,99,99,27-08-22,27-08-22,16:14:07,0,0,0,0,0,689,3.6.1,7,231,751,None,5001,1175,1920,30,1200,30,2,25,1920,1,odd,MacIntel,newborn
6,6,4941,trial,Mozilla,Netscape,5.0 (Macintosh),PH,1,m,0,99,99,27-08-22,27-08-22,16:14:07,0,0,0,0,0,689,3.6.1,6,231,751,None,3962,1175,1920,30,1200,30,2,25,1920,1,odd,MacIntel,beaves
11,11,4689,trial,Mozilla,Netscape,5.0 (Macintosh),PH,1,m,0,99,99,27-08-22,27-08-22,16:14:07,0,0,0,0,0,689,3.6.1,7,231,751,None,399,1175,1920,30,1200,30,2,25,1920,1,odd,MacIntel,ghoasts
16,16,4464,trial,Mozilla,Netscape,5.0 (Macintosh),PH,1,m,0,99,99,27-08-22,27-08-22,16:14:07,0,0,0,0,0,689,3.6.1,5,231,751,None,418,1175,1920,30,1200,30,2,25,1920,1,odd,MacIntel,cemed
20,20,4256,trial,Mozilla,Netscape,5.0 (Macintosh),NW,1,m,0,99,99,27-08-22,27-08-22,16:14:07,0,0,0,0,0,689,3.6.1,4,231,751,None,315,1175,1920,30,1200,30,2,25,1920,1,odd,MacIntel,yows
24,24,4069,trial,Mozilla,Netscape,5.0 (Macintosh),NW,1,m,0,99,99,27-08-22,27-08-22,16:14:07,0,0,0,0,0,689,3.6.1,6,231,751,None,312,1175,1920,30,1200,30,2,25,1920,1,odd,MacIntel,threbs
27,27,3898,trial,Mozilla,Netscape,5.0 (Macintosh),NW,1,m,0,99,99,27-08-22,27-08-22,16:14:07,0,0,0,0,0,689,3.6.1,4,231,751,None,325,1175,1920,30,1200,30,2,25,1920,1,odd,MacIntel,parn
26,26,3741,trial,Mozilla,Netscape,5.0 (Macintosh),Word,0,z,0,99,99,27-08-22,27-08-22,16:14:07,0,0,0,0,0,689,3.6.1,4,231,751,None,279,1175,1920,30,1200,30,2,25,1920,1,odd,MacIntel,zone
29,29,3588,trial,Mozilla,Netscape,5.0 (Macintosh),NW,1,m,0,99,99,27-08-22,27-08-22,16:14:07,0,0,0,0,0,689,3.6.1,5,231,751,None,68,1175,1920,30,1200,30,2,25,1920,1,odd,MacIntel,snive
28,28,3466,trial,Mozilla,Netscape,5.0 (Macintosh),Word,0,z,0,99,99,27-08-22,27-08-22,16:14:07,0,0,0,0,0,689,3.6.1,6,231,751,None,544,1175,1920,30,1200,30,2,25,1920,1,odd,MacIntel,planet
31,31,3341,trial,Mozilla,Netscape,5.0 (Macintosh),NW,1,m,0,99,99,27-08-22,27-08-22,16:14:07,0,0,0,0,0,689,3.6.1,4,231,751,None,204,1175,1920,30,1200,30,2,25,1920,1,odd,MacIntel,dwut
33,33,3231,trial,Mozilla,Netscape,5.0 (Macintosh),PH,1,m,0,99,99,27-08-22,27-08-22,16:14:07,0,0,0,0,0,689,3.6.1,3,231,751,None,373,1175,1920,30,1200,30,2,25,1920,1,odd,MacIntel,oad
32,32,3128,trial,Mozilla,Netscape,5.0 (Macintosh),Word,0,z,0,99,99,27-08-22,27-08-22,16:14:07,0,0,0,0,0,689,3.6.1,3,231,751,None,355,1175,1920,30,1200,30,2,25,1920,1,odd,MacIntel,lax
31,31,3031,trial,Mozilla,Netscape,5.0 (Macintosh),Word,0,z,0,99,99,27-08-22,27-08-22,16:14:07,0,0,0,0,0,689,3.6.1,7,231,751,None,317,1175,1920,30,1200,30,2,25,1920,1,odd,MacIntel,referee
33,33,2941,trial,Mozilla,Netscape,5.0 (Macintosh),NW,1,m,0,99,99,27-08-22,27-08-22,16:14:07,0,0,0,0,0,689,3.6.1,3,231,751,None,331,1175,1920,30,1200,30,2,25,1920,1,odd,MacIntel,erb
35,35,2858,trial,Mozilla,Netscape,5.0 (Macintosh),NW,1,m,0,99,99,27-08-22,27-08-22,16:14:07,0,0,0,0,0,689,3.6.1,4,231,751,None,359,1175,1920,30,1200,30,2,25,1920,1,odd,MacIntel,rurk
34,34,2778,trial,Mozilla,Netscape,5.0 (Macintosh),Word,0,z,0,99,99,27-08-22,27-08-22,16:14:07,0,0,0,0,0,689,3.6.1,5,231,751,None,306,1175,1920,30,1200,30,2,25,1920,1,odd,MacIntel,grove
36,36,2704,trial,Mozilla,Netscape,5.0 (Macintosh),NW,1,m,0,99,99,27-08-22,27-08-22,16:14:07,0,0,0,0,0,689,3.6.1,5,231,751,None,320,1175,1920,30,1200,30,2,25,1920,1,odd,MacIntel,pilms
38,38,2633,trial,Mozilla,Netscape,5.0 (Macintosh),PH,1,m,0,99,99,27-08-22,27-08-22,16:14:07,0,0,0,0,0,689,3.6.1,5,231,751,None,304,1175,1920,30,1200,30,2,25,1920,1,odd,MacIntel,rheed
37,37,2566,trial,Mozilla,Netscape,5.0 (Macintosh),Word,0,z,0,99,99,27-08-22,27-08-22,16:14:07,0,0,0,0,0,689,3.6.1,5,231,751,None,302,1175,1920,30,1200,30,2,25,1920,1,odd,MacIntel,scare
39,39,2504,trial,Mozilla,Netscape,5.0 (Macintosh),NW,1,m,0,99,99,27-08-22,27-08-22,16:14:07,0,0,0,0,0,689,3.6.1,4,231,751,None,301,1175,1920,30,1200,30,2,25,1920,1,odd,MacIntel,zowl
41,41,2444,trial,Mozilla,Netscape,5.0 (Macintosh),NW,1,m,0,99,99,27-08-22,27-08-22,16:14:07,0,0,0,0,0,689,3.6.1,6,231,751,None,300,1175,1920,30,1200,30,2,25,1920,1,odd,MacIntel,gromes
39,39,2388,trial,Mozilla,Netscape,5.0 (Macintosh),Word,0,z,0,99,99,27-08-22,27-08-22,16:14:07,0,0,0,0,0,689,3.6.1,4,231,751,None,327,1175,1920,30,1200,30,2,25,1920,1,odd,MacIntel,haul
41,41,2337,trial,Mozilla,Netscape,5.0 (Macintosh),PH,1,m,0,99,99,27-08-22,27-08-22,16:14:07,0,0,0,0,0,689,3.6.1,4,231,751,None,372,1175,1920,30,1200,30,2,25,1920,1,odd,MacIntel,berd
40,40,2283,trial,Mozilla,Netscape,5.0 (Macintosh),Word,0,z,0,99,99,27-08-22,27-08-22,16:14:07,0,0,0,0,0,689,3.6.1,4,231,751,None,184,1175,1920,30,1200,30,2,25,1920,1,odd,MacIntel,camp
39,39,2234,trial,Mozilla,Netscape,5.0 (Macintosh),Word,0,z,0,99,99,27-08-22,27-08-22,16:14:07,0,0,0,0,0,689,3.6.1,5,231,751,None,302,1175,1920,30,1200,30,2,25,1920,1,odd,MacIntel,crock
38,38,2186,trial,Mozilla,Netscape,5.0 (Macintosh),Word,0,z,0,99,99,27-08-22,27-08-22,16:14:07,0,0,0,0,0,689,3.6.1,3,231,751,None,208,1175,1920,30,1200,30,2,25,1920,1,odd,MacIntel,rib
37,37,2144,trial,Mozilla,Netscape,5.0 (Macintosh),Word,0,z,0,99,99,27-08-22,27-08-22,16:14:07,0,0,0,0,0,689,3.6.1,5,231,751,None,367,1175,1920,30,1200,30,2,25,1920,1,odd,MacIntel,cloak
39,39,2102,trial,Mozilla,Netscape,5.0 (Macintosh),PH,1,m,0,99,99,27-08-22,27-08-22,16:14:07,0,0,0,0,0,689,3.6.1,6,231,751,None,284,1175,1920,30,1200,30,2,25,1920,1,odd,MacIntel,scadds
38,38,2061,trial,Mozilla,Netscape,5.0 (Macintosh),Word,0,z,0,99,99,27-08-22,27-08-22,16:14:07,0,0,0,0,0,689,3.6.1,5,231,751,None,255,1175,1920,30,1200,30,2,25,1920,1,odd,MacIntel,patch
39,39,2023,trial,Mozilla,Netscape,5.0 (Macintosh),NW,1,m,0,99,99,27-08-22,27-08-22,16:14:07,0,0,0,0,0,689,3.6.1,6,231,751,None,314,1175,1920,30,1200,30,2,25,1920,1,odd,MacIntel,thwups
40,40,1987,trial,Mozilla,Netscape,5.0 (Macintosh),PH,1,m,0,99,99,27-08-22,27-08-22,16:14:07,0,0,0,0,0,689,3.6.1,5,231,751,None,331,1175,1920,30,1200,30,2,25,1920,1,odd,MacIntel,wurnt
40,40,1950,trial,Mozilla,Netscape,5.0 (Macintosh),Word,0,z,0,99,99,27-08-22,27-08-22,16:14:07,0,0,0,0,0,689,3.6.1,4,231,751,None,240,1175,1920,30,1200,30,2,25,1920,1,odd,MacIntel,worn
41,41,1914,trial,Mozilla,Netscape,5.0 (Macintosh),PH,1,m,0,99,99,27-08-22,27-08-22,16:14:07,0,0,0,0,0,689,3.6.1,6,231,751,None,187,1175,1920,30,1200,30,2,25,1920,1,odd,MacIntel,ghulfs
40,40,1880,trial,Mozilla,Netscape,5.0 (Macintosh),Word,0,z,0,99,99,27-08-22,27-08-22,16:14:07,0,0,0,0,0,689,3.6.1,4,231,751,None,213,1175,1920,30,1200,30,2,25,1920,1,odd,MacIntel,blow
41,41,1847,trial,Mozilla,Netscape,5.0 (Macintosh),PH,1,m,0,99,99,27-08-22,27-08-22,16:14:07,0,0,0,0,0,689,3.6.1,6,231,751,None,177,1175,1920,30,1200,30,2,25,1920,1,odd,MacIntel,whefts
42,42,1816,trial,Mozilla,Netscape,5.0 (Macintosh),PH,1,m,0,99,99,27-08-22,27-08-22,16:14:07,0,0,0,0,0,689,3.6.1,4,231,751,None,233,1175,1920,30,1200,30,2,25,1920,1,odd,MacIntel,fize
42,42,1786,trial,Mozilla,Netscape,5.0 (Macintosh),Word,0,z,0,99,99,27-08-22,27-08-22,16:14:07,0,0,0,0,0,689,3.6.1,6,231,751,None,254,1175,1920,30,1200,30,2,25,1920,1,odd,MacIntel,neuter
43,43,1758,trial,Mozilla,Netscape,5.0 (Macintosh),PH,1,m,0,99,99,27-08-22,27-08-22,16:14:07,0,0,0,0,0,689,3.6.1,6,231,751,None,273,1175,1920,30,1200,30,2,25,1920,1,odd,MacIntel,chaist
42,42,1732,trial,Mozilla,Netscape,5.0 (Macintosh),Word,0,z,0,99,99,27-08-22,27-08-22,16:14:07,0,0,0,0,0,689,3.6.1,4,231,751,None,305,1175,1920,30,1200,30,2,25,1920,1,odd,MacIntel,fane
43,43,1706,trial,Mozilla,Netscape,5.0 (Macintosh),NW,1,m,0,99,99,27-08-22,27-08-22,16:14:07,0,0,0,0,0,689,3.6.1,6,231,751,None,304,1175,1920,30,1200,30,2,25,1920,1,odd,MacIntel,knults
44,44,1682,trial,Mozilla,Netscape,5.0 (Macintosh),NW,1,m,0,99,99,27-08-22,27-08-22,16:14:07,0,0,0,0,0,689,3.6.1,5,231,751,None,300,1175,1920,30,1200,30,2,25,1920,1,odd,MacIntel,stoil
43,43,1657,trial,Mozilla,Netscape,5.0 (Macintosh),Word,0,z,0,99,99,27-08-22,27-08-22,16:14:07,0,0,0,0,0,689,3.6.1,4,231,751,None,242,1175,1920,30,1200,30,2,25,1920,1,odd,MacIntel,soft
44,44,1633,trial,Mozilla,Netscape,5.0 (Macintosh),NW,1,m,0,99,99,27-08-22,27-08-22,16:14:07,0,0,0,0,0,689,3.6.1,7,231,751,None,262,1175,1920,30,1200,30,2,25,1920,1,odd,MacIntel,spoints
45,45,1611,trial,Mozilla,Netscape,5.0 (Macintosh),NW,1,m,0,99,99,27-08-22,27-08-22,16:14:07,0,0,0,0,0,689,3.6.1,4,231,751,None,296,1175,1920,30,1200,30,2,25,1920,1,odd,MacIntel,puct
44,44,1590,trial,Mozilla,Netscape,5.0 (Macintosh),Word,0,z,0,99,99,27-08-22,27-08-22,16:14:07,0,0,0,0,0,689,3.6.1,6,231,751,None,324,1175,1920,30,1200,30,2,25,1920,1,odd,MacIntel,tomato
45,45,1569,trial,Mozilla,Netscape,5.0 (Macintosh),NW,1,m,0,99,99,27-08-22,27-08-22,16:14:07,0,0,0,0,0,689,3.6.1,6,231,751,None,309,1175,1920,30,1200,30,2,25,1920,1,odd,MacIntel,plolks
46,46,1549,trial,Mozilla,Netscape,5.0 (Macintosh),PH,1,m,0,99,99,27-08-22,27-08-22,16:14:07,0,0,0,0,0,689,3.6.1,6,231,751,None,293,1175,1920,30,1200,30,2,25,1920,1,odd,MacIntel,wroons
45,45,1530,trial,Mozilla,Netscape,5.0 (Macintosh),Word,0,z,0,99,99,27-08-22,27-08-22,16:14:07,0,0,0,0,0,689,3.6.1,6,231,751,None,338,1175,1920,30,1200,30,2,25,1920,1,odd,MacIntel,orange
45,45,1511,trial,Mozilla,Netscape,5.0 (Macintosh),Word,0,z,0,99,99,27-08-22,27-08-22,16:14:07,0,0,0,0,0,689,3.6.1,4,231,751,None,319,1175,1920,30,1200,30,2,25,1920,1,odd,MacIntel,sine
44,44,1494,trial,Mozilla,Netscape,5.0 (Macintosh),Word,0,z,0,99,99,27-08-22,27-08-22,16:14:07,0,0,0,0,0,689,3.6.1,6,231,751,None,332,1175,1920,30,1200,30,2,25,1920,1,odd,MacIntel,misery
43,43,1475,trial,Mozilla,Netscape,5.0 (Macintosh),Word,0,z,0,99,99,27-08-22,27-08-22,16:14:07,0,0,0,0,0,689,3.6.1,5,231,751,None,254,1175,1920,30,1200,30,2,25,1920,1,odd,MacIntel,dusty
43,43,1455,trial,Mozilla,Netscape,5.0 (Macintosh),Word,0,z,0,99,99,27-08-22,27-08-22,16:14:07,0,0,0,0,0,689,3.6.1,5,231,751,None,136,1175,1920,30,1200,30,2,25,1920,1,odd,MacIntel,linen
42,42,1437,trial,Mozilla,Netscape,5.0 (Macintosh),Word,0,z,0,99,99,27-08-22,27-08-22,16:14:07,0,0,0,0,0,689,3.6.1,7,231,751,None,197,1175,1920,30,1200,30,2,25,1920,1,odd,MacIntel,measure
41,41,1420,trial,Mozilla,Netscape,5.0 (Macintosh),Word,0,z,0,99,99,27-08-22,27-08-22,16:14:07,0,0,0,0,0,689,3.6.1,5,231,751,None,268,1175,1920,30,1200,30,2,25,1920,1,odd,MacIntel,wrack
42,42,1405,trial,Mozilla,Netscape,5.0 (Macintosh),PH,1,m,0,99,99,27-08-22,27-08-22,16:14:07,0,0,0,0,0,689,3.6.1,5,231,751,None,360,1175,1920,30,1200,30,2,25,1920,1,odd,MacIntel,cuild
42,42,1389,trial,Mozilla,Netscape,5.0 (Macintosh),Word,0,z,0,99,99,27-08-22,27-08-22,16:14:07,0,0,0,0,0,689,3.6.1,7,231,751,None,249,1175,1920,30,1200,30,2,25,1920,1,odd,MacIntel,arbiter
42,42,1375,trial,Mozilla,Netscape,5.0 (Macintosh),NW,1,m,0,99,99,27-08-22,27-08-22,16:14:07,0,0,0,0,0,689,3.6.1,6,231,751,None,315,1175,1920,30,1200,30,2,25,1920,1,odd,MacIntel,whotes
43,43,1361,trial,Mozilla,Netscape,5.0 (Macintosh),NW,1,m,0,99,99,27-08-22,27-08-22,16:14:07,0,0,0,0,0,689,3.6.1,5,231,751,None,343,1175,1920,30,1200,30,2,25,1920,1,odd,MacIntel,tadds
43,43,1346,trial,Mozilla,Netscape,5.0 (Macintosh),Word,0,z,0,99,99,27-08-22,27-08-22,16:14:07,0,0,0,0,0,689,3.6.1,6,231,751,None,293,1175,1920,30,1200,30,2,25,1920,1,odd,MacIntel,beauty
42,42,1333,trial,Mozilla,Netscape,5.0 (Macintosh),Word,0,z,0,99,99,27-08-22,27-08-22,16:14:07,0,0,0,0,0,689,3.6.1,6,231,751,None,296,1175,1920,30,1200,30,2,25,1920,1,odd,MacIntel,jargon
43,43,1319,trial,Mozilla,Netscape,5.0 (Macintosh),PH,1,m,0,99,99,27-08-22,27-08-22,16:14:07,0,0,0,0,0,689,3.6.1,3,231,751,None,265,1175,1920,30,1200,30,2,25,1920,1,odd,MacIntel,orl
44,44,1306,trial,Mozilla,Netscape,5.0 (Macintosh),NW,1,m,0,99,99,27-08-22,27-08-22,16:14:07,0,0,0,0,0,689,3.6.1,6,231,751,None,299,1175,1920,30,1200,30,2,25,1920,1,odd,MacIntel,sluped
44,44,1293,trial,Mozilla,Netscape,5.0 (Macintosh),PH,1,m,0,99,99,27-08-22,27-08-22,16:14:07,0,0,0,0,0,689,3.6.1,7,231,751,None,330,1175,1920,30,1200,30,2,25,1920,1,odd,MacIntel,phlukes
44,44,1281,trial,Mozilla,Netscape,5.0 (Macintosh),Word,0,z,0,99,99,27-08-22,27-08-22,16:14:07,0,0,0,0,0,689,3.6.1,7,231,751,None,280,1175,1920,30,1200,30,2,25,1920,1,odd,MacIntel,charter
43,43,1269,trial,Mozilla,Netscape,5.0 (Macintosh),Word,0,z,0,99,99,27-08-22,27-08-22,16:14:07,0,0,0,0,0,689,3.6.1,5,231,751,None,344,1175,1920,30,1200,30,2,25,1920,1,odd,MacIntel,order
43,43,1257,trial,Mozilla,Netscape,5.0 (Macintosh),Word,0,z,0,99,99,27-08-22,27-08-22,16:14:07,0,0,0,0,0,689,3.6.1,5,231,751,None,309,1175,1920,30,1200,30,2,25,1920,1,odd,MacIntel,tiger
43,43,1245,trial,Mozilla,Netscape,5.0 (Macintosh),NW,1,m,0,99,99,27-08-22,27-08-22,16:14:07,0,0,0,0,0,689,3.6.1,6,231,751,None,188,1175,1920,30,1200,30,2,25,1920,1,odd,MacIntel,wralph
44,44,1233,trial,Mozilla,Netscape,5.0 (Macintosh),NW,1,m,0,99,99,27-08-22,27-08-22,16:14:07,0,0,0,0,0,689,3.6.1,5,231,751,None,292,1175,1920,30,1200,30,2,25,1920,1,odd,MacIntel,dunds
44,44,1222,trial,Mozilla,Netscape,5.0 (Macintosh),Word,0,z,0,99,99,27-08-22,27-08-22,16:14:07,0,0,0,0,0,689,3.6.1,6,231,751,None,293,1175,1920,30,1200,30,2,25,1920,1,odd,MacIntel,frenzy
43,43,1211,trial,Mozilla,Netscape,5.0 (Macintosh),Word,0,z,0,99,99,27-08-22,27-08-22,16:14:07,0,0,0,0,0,689,3.6.1,4,231,751,None,246,1175,1920,30,1200,30,2,25,1920,1,odd,MacIntel,vain
44,44,1200,trial,Mozilla,Netscape,5.0 (Macintosh),NW,1,m,0,99,99,27-08-22,27-08-22,16:14:07,0,0,0,0,0,689,3.6.1,7,231,751,None,282,1175,1920,30,1200,30,2,25,1920,1,odd,MacIntel,thraves
43,43,1189,trial,Mozilla,Netscape,5.0 (Macintosh),Word,0,z,0,99,99,27-08-22,27-08-22,16:14:07,0,0,0,0,0,689,3.6.1,4,231,751,None,238,1175,1920,30,1200,30,2,25,1920,1,odd,MacIntel,them
44,44,1177,trial,Mozilla,Netscape,5.0 (Macintosh),PH,1,m,0,99,99,27-08-22,27-08-22,16:14:07,0,0,0,0,0,689,3.6.1,5,231,751,None,123,1175,1920,30,1200,30,2,25,1920,1,odd,MacIntel,kubed
44,44,1166,trial,Mozilla,Netscape,5.0 (Macintosh),PH,1,m,0,99,99,27-08-22,27-08-22,16:14:07,0,0,0,0,0,689,3.6.1,5,231,751,None,201,1175,1920,30,1200,30,2,25,1920,1,odd,MacIntel,gnone
45,45,1155,trial,Mozilla,Netscape,5.0 (Macintosh),PH,1,m,0,99,99,27-08-22,27-08-22,16:14:07,0,0,0,0,0,689,3.6.1,5,231,751,None,135,1175,1920,30,1200,30,2,25,1920,1,odd,MacIntel,wrync
45,45,1144,trial,Mozilla,Netscape,5.0 (Macintosh),Word,0,z,0,99,99,27-08-22,27-08-22,16:14:07,0,0,0,0,0,689,3.6.1,5,231,751,None,106,1175,1920,30,1200,30,2,25,1920,1,odd,MacIntel,stale
44,44,1132,trial,Mozilla,Netscape,5.0 (Macintosh),Word,0,z,0,99,99,27-08-22,27-08-22,16:14:07,0,0,0,0,0,689,3.6.1,6,231,751,None,83,1175,1920,30,1200,30,2,25,1920,1,odd,MacIntel,mutton
45,45,1122,trial,Mozilla,Netscape,5.0 (Macintosh),PH,1,m,0,99,99,27-08-22,27-08-22,16:14:07,0,0,0,0,0,689,3.6.1,7,231,751,None,136,1175,1920,30,1200,30,2,25,1920,1,odd,MacIntel,spaised
44,44,1111,trial,Mozilla,Netscape,5.0 (Macintosh),Word,0,z,0,99,99,27-08-22,27-08-22,16:14:07,0,0,0,0,0,689,3.6.1,4,231,751,None,74,1175,1920,30,1200,30,2,25,1920,1,odd,MacIntel,welt
45,45,1100,trial,Mozilla,Netscape,5.0 (Macintosh),NW,1,m,0,99,99,27-08-22,27-08-22,16:14:07,0,0,0,0,0,689,3.6.1,7,231,751,None,68,1175,1920,30,1200,30,2,25,1920,1,odd,MacIntel,spreals
100,100,1084,practice,Mozilla,Netscape,5.0 (Macintosh),NW,1,m,None,None,None,27-08-22,27-08-22,16:07:11,0,0,0,0,0,688,3.6.1,5,231,751,None,1084,1175,1920,30,1200,30,2,25,1920,0,odd,MacIntel,mocag
100,100,862,practice,Mozilla,Netscape,5.0 (Macintosh),Word,1,z,None,None,None,27-08-22,27-08-22,16:07:11,0,0,0,0,0,688,3.6.1,5,231,751,None,640,1175,1920,30,1200,30,2,25,1920,0,odd,MacIntel,apple
100,100,752,practice,Mozilla,Netscape,5.0 (Macintosh),NW,1,m,None,None,None,27-08-22,27-08-22,16:07:11,0,0,0,0,0,688,3.6.1,6,231,751,None,532,1175,1920,30,1200,30,2,25,1920,0,odd,MacIntel,ourtel
75,75,684,practice,Mozilla,Netscape,5.0 (Macintosh),Word,0,z,None,None,None,27-08-22,27-08-22,16:07:11,0,0,0,0,0,688,3.6.1,5,231,751,None,478,1175,1920,30,1200,30,2,25,1920,0,odd,MacIntel,magic
60,60,654,practice,Mozilla,Netscape,5.0 (Macintosh),Word,0,z,None,None,None,27-08-22,27-08-22,16:07:11,0,0,0,0,0,688,3.6.1,6,231,751,None,535,1175,1920,30,1200,30,2,25,1920,0,odd,MacIntel,turtle
50,50,615,practice,Mozilla,Netscape,5.0 (Macintosh),NW,0,m,None,None,None,27-08-22,27-08-22,16:07:11,0,0,0,0,0,688,3.6.1,5,231,751,None,420,1175,1920,30,1200,30,2,25,1920,0,odd,MacIntel,ipple
0,0,563,trial,Mozilla,Netscape,5.0 (Macintosh),Word,0,z,0,0,0,27-08-22,27-08-22,16:07:11,0,0,0,0,0,688,3.6.1,5,231,751,m,563,1175,1920,30,1200,30,2,25,1920,0,odd,MacIntel,huzza
0,0,447,trial,Mozilla,Netscape,5.0 (Macintosh),NW,0,m,0,1,1,27-08-22,27-08-22,16:07:11,0,0,0,0,0,688,3.6.1,5,231,751,z,330,1175,1920,30,1200,30,2,25,1920,0,odd,MacIntel,chowl
0,0,361,trial,Mozilla,Netscape,5.0 (Macintosh),PH,0,m,0,2,2,27-08-22,27-08-22,16:07:11,0,0,0,0,0,688,3.6.1,6,231,751,z,191,1175,1920,30,1200,30,2,25,1920,0,odd,MacIntel,whased
0,0,461,trial,Mozilla,Netscape,5.0 (Macintosh),Word,0,z,0,3,3,27-08-22,27-08-22,16:07:11,0,0,0,0,0,688,3.6.1,4,231,751,m,760,1175,1920,30,1200,30,2,25,1920,0,odd,MacIntel,star
20,20,469,trial,Mozilla,Netscape,5.0 (Macintosh),PH,1,m,0,4,4,27-08-22,27-08-22,16:07:11,0,0,0,0,0,688,3.6.1,6,231,751,m,502,1175,1920,30,1200,30,2,25,1920,0,odd,MacIntel,chured
17,17,456,trial,Mozilla,Netscape,5.0 (Macintosh),Word,0,z,0,5,5,27-08-22,27-08-22,16:07:11,0,0,0,0,0,688,3.6.1,4,231,751,m,392,1175,1920,30,1200,30,2,25,1920,0,odd,MacIntel,flow
29,29,437,trial,Mozilla,Netscape,5.0 (Macintosh),NW,1,m,0,6,6,27-08-22,27-08-22,16:07:11,0,0,0,0,0,688,3.6.1,6,231,751,m,319,1175,1920,30,1200,30,2,25,1920,0,odd,MacIntel,fradge
38,38,392,trial,Mozilla,Netscape,5.0 (Macintosh),NW,1,m,0,7,7,27-08-22,27-08-22,16:07:11,0,0,0,0,0,688,3.6.1,4,231,751,m,75,1175,1920,30,1200,30,2,25,1920,0,odd,MacIntel,twom
44,44,379,trial,Mozilla,Netscape,5.0 (Macintosh),PH,1,m,0,8,8,27-08-22,27-08-22,16:07:11,0,0,0,0,0,688,3.6.1,7,231,751,m,281,1175,1920,30,1200,30,2,25,1920,0,odd,MacIntel,ghoards
40,40,365,trial,Mozilla,Netscape,5.0 (Macintosh),Word,0,z,0,9,9,27-08-22,27-08-22,16:07:11,0,0,0,0,0,688,3.6.1,6,231,751,m,239,1175,1920,30,1200,30,2,25,1920,0,odd,MacIntel,thrill
36,36,340,trial,Mozilla,Netscape,5.0 (Macintosh),Word,0,z,0,10,10,27-08-22,27-08-22,16:07:11,0,0,0,0,0,688,3.6.1,4,231,751,m,93,1175,1920,30,1200,30,2,25,1920,0,odd,MacIntel,yelp
42,42,379,trial,Mozilla,Netscape,5.0 (Macintosh),PH,1,m,0,11,11,27-08-22,27-08-22,16:07:11,0,0,0,0,0,688,3.6.1,4,231,751,m,807,1175,1920,30,1200,30,2,25,1920,0,odd,MacIntel,spue
46,46,375,trial,Mozilla,Netscape,5.0 (Macintosh),PH,1,m,0,12,12,27-08-22,27-08-22,16:07:11,0,0,0,0,0,688,3.6.1,6,231,751,m,320,1175,1920,30,1200,30,2,25,1920,0,odd,MacIntel,proods
43,43,371,trial,Mozilla,Netscape,5.0 (Macintosh),Word,0,z,0,13,13,27-08-22,27-08-22,16:07:11,0,0,0,0,0,688,3.6.1,5,231,751,m,315,1175,1920,30,1200,30,2,25,1920,0,odd,MacIntel,quart
40,40,366,trial,Mozilla,Netscape,5.0 (Macintosh),Word,0,z,0,14,14,27-08-22,27-08-22,16:07:11,0,0,0,0,0,688,3.6.1,5,231,751,m,298,1175,1920,30,1200,30,2,25,1920,0,odd,MacIntel,wharf
38,38,364,trial,Mozilla,Netscape,5.0 (Macintosh),Word,0,z,0,15,15,27-08-22,27-08-22,16:07:11,0,0,0,0,0,688,3.6.1,6,231,751,m,342,1175,1920,30,1200,30,2,25,1920,0,odd,MacIntel,salary
41,41,363,trial,Mozilla,Netscape,5.0 (Macintosh),PH,1,m,0,16,16,27-08-22,27-08-22,16:07:11,0,0,0,0,0,688,3.6.1,4,231,751,m,352,1175,1920,30,1200,30,2,25,1920,0,odd,MacIntel,fite
44,44,362,trial,Mozilla,Netscape,5.0 (Macintosh),PH,1,m,0,17,17,27-08-22,27-08-22,16:07:11,0,0,0,0,0,688,3.6.1,5,231,751,m,331,1175,1920,30,1200,30,2,25,1920,0,odd,MacIntel,phley
47,47,361,trial,Mozilla,Netscape,5.0 (Macintosh),PH,1,m,0,18,18,27-08-22,27-08-22,16:07:11,0,0,0,0,0,688,3.6.1,4,231,751,m,342,1175,1920,30,1200,30,2,25,1920,0,odd,MacIntel,ryle
45,45,358,trial,Mozilla,Netscape,5.0 (Macintosh),PH,0,m,0,19,19,27-08-22,27-08-22,16:07:11,0,0,0,0,0,688,3.6.1,4,231,751,z,308,1175,1920,30,1200,30,2,25,1920,0,odd,MacIntel,haks
43,43,367,trial,Mozilla,Netscape,5.0 (Macintosh),NW,0,m,0,20,20,27-08-22,27-08-22,16:07:11,0,0,0,0,0,688,3.6.1,5,231,751,z,548,1175,1920,30,1200,30,2,25,1920,0,odd,MacIntel,bince
45,45,373,trial,Mozilla,Netscape,5.0 (Macintosh),Word,1,z,0,21,21,27-08-22,27-08-22,16:07:11,0,0,0,0,0,688,3.6.1,6,231,751,z,508,1175,1920,30,1200,30,2,25,1920,0,odd,MacIntel,chapel
48,48,397,trial,Mozilla,Netscape,5.0 (Macintosh),Word,1,z,0,22,22,27-08-22,27-08-22,16:07:11,0,0,0,0,0,688,3.6.1,5,231,751,z,922,1175,1920,30,1200,30,2,25,1920,0,odd,MacIntel,baron
46,46,411,trial,Mozilla,Netscape,5.0 (Macintosh),NW,0,m,0,23,23,27-08-22,27-08-22,16:07:11,0,0,0,0,0,688,3.6.1,5,231,751,z,726,1175,1920,30,1200,30,2,25,1920,0,odd,MacIntel,cound
48,48,452,trial,Mozilla,Netscape,5.0 (Macintosh),Word,1,z,0,24,24,27-08-22,27-08-22,16:07:11,0,0,0,0,0,688,3.6.1,3,231,751,z,1446,1175,1920,30,1200,30,2,25,1920,0,odd,MacIntel,leg
50,50,495,trial,Mozilla,Netscape,5.0 (Macintosh),Word,1,z,0,25,25,27-08-22,27-08-22,16:07:11,0,0,0,0,0,688,3.6.1,5,231,751,z,1572,1175,1920,30,1200,30,2,25,1920,0,odd,MacIntel,break
48,48,490,trial,Mozilla,Netscape,5.0 (Macintosh),NW,0,m,0,26,26,27-08-22,27-08-22,16:07:11,0,0,0,0,0,688,3.6.1,6,231,751,z,351,1175,1920,30,1200,30,2,25,1920,0,odd,MacIntel,scrait
50,50,486,trial,Mozilla,Netscape,5.0 (Macintosh),Word,1,z,0,27,27,27-08-22,27-08-22,16:07:11,0,0,0,0,0,688,3.6.1,6,231,751,z,372,1175,1920,30,1200,30,2,25,1920,0,odd,MacIntel,spirit
52,52,484,trial,Mozilla,Netscape,5.0 (Macintosh),Word,1,z,0,28,28,27-08-22,27-08-22,16:07:11,0,0,0,0,0,688,3.6.1,6,231,751,z,427,1175,1920,30,1200,30,2,25,1920,0,odd,MacIntel,ginger
50,50,484,trial,Mozilla,Netscape,5.0 (Macintosh),NW,0,m,0,29,29,27-08-22,27-08-22,16:07:11,0,0,0,0,0,688,3.6.1,6,231,751,z,473,1175,1920,30,1200,30,2,25,1920,0,odd,MacIntel,sleens
52,52,480,trial,Mozilla,Netscape,5.0 (Macintosh),Word,1,z,0,30,30,27-08-22,27-08-22,16:07:11,0,0,0,0,0,688,3.6.1,6,231,751,z,368,1175,1920,30,1200,30,2,25,1920,0,odd,MacIntel,cuttle
50,50,487,trial,Mozilla,Netscape,5.0 (Macintosh),PH,0,m,0,31,31,27-08-22,27-08-22,16:07:11,0,0,0,0,0,688,3.6.1,5,231,751,z,721,1175,1920,30,1200,30,2,25,1920,0,odd,MacIntel,maise
52,52,495,trial,Mozilla,Netscape,5.0 (Macintosh),Word,1,z,0,32,32,27-08-22,27-08-22,16:07:11,0,0,0,0,0,688,3.6.1,4,231,751,z,737,1175,1920,30,1200,30,2,25,1920,0,odd,MacIntel,turn
50,50,496,trial,Mozilla,Netscape,5.0 (Macintosh),PH,0,m,0,33,33,27-08-22,27-08-22,16:07:11,0,0,0,0,0,688,3.6.1,5,231,751,z,543,1175,1920,30,1200,30,2,25,1920,0,odd,MacIntel,phete
49,49,499,trial,Mozilla,Netscape,5.0 (Macintosh),NW,0,m,0,34,34,27-08-22,27-08-22,16:07:11,0,0,0,0,0,688,3.6.1,4,231,751,z,591,1175,1920,30,1200,30,2,25,1920,0,odd,MacIntel,brud
50,50,507,trial,Mozilla,Netscape,5.0 (Macintosh),Word,1,z,0,35,35,27-08-22,27-08-22,16:07:11,0,0,0,0,0,688,3.6.1,5,231,751,z,803,1175,1920,30,1200,30,2,25,1920,0,odd,MacIntel,table
51,51,513,trial,Mozilla,Netscape,5.0 (Macintosh),Word,1,z,0,36,36,27-08-22,27-08-22,16:07:11,0,0,0,0,0,688,3.6.1,3,231,751,z,721,1175,1920,30,1200,30,2,25,1920,0,odd,MacIntel,dog
50,50,518,trial,Mozilla,Netscape,5.0 (Macintosh),NW,0,m,0,37,37,27-08-22,27-08-22,16:07:11,0,0,0,0,0,688,3.6.1,7,231,751,z,679,1175,1920,30,1200,30,2,25,1920,0,odd,MacIntel,thwilms
49,49,519,trial,Mozilla,Netscape,5.0 (Macintosh),PH,0,m,0,38,38,27-08-22,27-08-22,16:07:11,0,0,0,0,0,688,3.6.1,7,231,751,z,568,1175,1920,30,1200,30,2,25,1920,0,odd,MacIntel,scoules
48,48,514,trial,Mozilla,Netscape,5.0 (Macintosh),NW,0,m,0,39,39,27-08-22,27-08-22,16:07:11,0,0,0,0,0,688,3.6.1,5,231,751,z,342,1175,1920,30,1200,30,2,25,1920,0,odd,MacIntel,fumps
46,46,514,trial,Mozilla,Netscape,5.0 (Macintosh),NW,0,m,0,40,40,27-08-22,27-08-22,16:07:11,0,0,0,0,0,688,3.6.1,5,231,751,z,503,1175,1920,30,1200,30,2,25,1920,0,odd,MacIntel,psime
48,48,520,trial,Mozilla,Netscape,5.0 (Macintosh),Word,1,z,0,41,41,27-08-22,27-08-22,16:07:11,0,0,0,0,0,688,3.6.1,7,231,751,z,753,1175,1920,30,1200,30,2,25,1920,0,odd,MacIntel,tarnish
49,49,510,trial,Mozilla,Netscape,5.0 (Macintosh),Word,1,z,0,42,42,27-08-22,27-08-22,16:07:11,0,0,0,0,0,688,3.6.1,6,231,751,z,107,1175,1920,30,1200,30,2,25,1920,0,odd,MacIntel,throat
48,48,503,trial,Mozilla,Netscape,5.0 (Macintosh),NW,0,m,0,43,43,27-08-22,27-08-22,16:07:11,0,0,0,0,0,688,3.6.1,6,231,751,z,200,1175,1920,30,1200,30,2,25,1920,0,odd,MacIntel,gladge
49,49,499,trial,Mozilla,Netscape,5.0 (Macintosh),Word,1,z,0,44,44,27-08-22,27-08-22,16:07:11,0,0,0,0,0,688,3.6.1,6,231,751,z,314,1175,1920,30,1200,30,2,25,1920,0,odd,MacIntel,supper
50,50,504,trial,Mozilla,Netscape,5.0 (Macintosh),Word,1,z,0,45,45,27-08-22,27-08-22,16:07:11,0,0,0,0,0,688,3.6.1,6,231,751,z,750,1175,1920,30,1200,30,2,25,1920,0,odd,MacIntel,salute
51,51,497,trial,Mozilla,Netscape,5.0 (Macintosh),Word,1,z,0,46,46,27-08-22,27-08-22,16:07:11,0,0,0,0,0,688,3.6.1,5,231,751,z,165,1175,1920,30,1200,30,2,25,1920,0,odd,MacIntel,allow
52,52,521,trial,Mozilla,Netscape,5.0 (Macintosh),Word,1,z,0,47,47,27-08-22,27-08-22,16:07:11,0,0,0,0,0,688,3.6.1,6,231,751,z,1634,1175,1920,30,1200,30,2,25,1920,0,odd,MacIntel,square
53,53,566,trial,Mozilla,Netscape,5.0 (Macintosh),Word,1,z,0,48,48,27-08-22,27-08-22,16:07:11,0,0,0,0,0,688,3.6.1,6,231,751,z,2752,1175,1920,30,1200,30,2,25,1920,0,odd,MacIntel,dollar
54,54,566,trial,Mozilla,Netscape,5.0 (Macintosh),Word,1,z,0,49,49,27-08-22,27-08-22,16:07:11,0,0,0,0,0,688,3.6.1,6,231,751,z,544,1175,1920,30,1200,30,2,25,1920,0,odd,MacIntel,misuse
53,53,569,trial,Mozilla,Netscape,5.0 (Macintosh),PH,0,m,0,50,50,27-08-22,27-08-22,16:07:11,0,0,0,0,0,688,3.6.1,6,231,751,z,714,1175,1920,30,1200,30,2,25,1920,0,odd,MacIntel,dropse
54,54,631,trial,Mozilla,Netscape,5.0 (Macintosh),Word,1,z,0,51,51,27-08-22,27-08-22,16:07:11,0,0,0,0,0,688,3.6.1,5,231,751,z,3779,1175,1920,30,1200,30,2,25,1920,0,odd,MacIntel,blush
55,55,626,trial,Mozilla,Netscape,5.0 (Macintosh),Word,1,z,0,52,52,27-08-22,27-08-22,16:07:11,0,0,0,0,0,688,3.6.1,6,231,751,z,381,1175,1920,30,1200,30,2,25,1920,0,odd,MacIntel,amount
56,56,644,trial,Mozilla,Netscape,5.0 (Macintosh),Word,1,z,0,53,53,27-08-22,27-08-22,16:07:11,0,0,0,0,0,688,3.6.1,5,231,751,z,1619,1175,1920,30,1200,30,2,25,1920,0,odd,MacIntel,ghost
55,55,654,trial,Mozilla,Netscape,5.0 (Macintosh),NW,0,m,0,54,54,27-08-22,27-08-22,16:07:11,0,0,0,0,0,688,3.6.1,3,231,751,z,1185,1175,1920,30,1200,30,2,25,1920,0,odd,MacIntel,cem
54,54,651,trial,Mozilla,Netscape,5.0 (Macintosh),NW,0,m,0,55,55,27-08-22,27-08-22,16:07:11,0,0,0,0,0,688,3.6.1,6,231,751,z,467,1175,1920,30,1200,30,2,25,1920,0,odd,MacIntel,thwams
53,53,677,trial,Mozilla,Netscape,5.0 (Macintosh),PH,0,m,0,56,56,27-08-22,27-08-22,16:07:11,0,0,0,0,0,688,3.6.1,5,231,751,z,2147,1175,1920,30,1200,30,2,25,1920,0,odd,MacIntel,wurds
52,52,692,trial,Mozilla,Netscape,5.0 (Macintosh),PH,0,m,0,57,57,27-08-22,27-08-22,16:07:11,0,0,0,0,0,688,3.6.1,6,231,751,z,1555,1175,1920,30,1200,30,2,25,1920,0,odd,MacIntel,graits
51,51,746,trial,Mozilla,Netscape,5.0 (Macintosh),PH,0,m,0,58,58,27-08-22,27-08-22,16:07:11,0,0,0,0,0,688,3.6.1,6,231,751,z,3843,1175,1920,30,1200,30,2,25,1920,0,odd,MacIntel,skamps
52,52,738,trial,Mozilla,Netscape,5.0 (Macintosh),Word,1,z,0,59,59,27-08-22,27-08-22,16:07:11,0,0,0,0,0,688,3.6.1,3,231,751,z,290,1175,1920,30,1200,30,2,25,1920,0,odd,MacIntel,bib
51,51,734,trial,Mozilla,Netscape,5.0 (Macintosh),NW,0,m,0,60,60,27-08-22,27-08-22,16:07:11,0,0,0,0,0,688,3.6.1,7,231,751,z,484,1175,1920,30,1200,30,2,25,1920,0,odd,MacIntel,whurfed
50,50,739,trial,Mozilla,Netscape,5.0 (Macintosh),NW,0,m,0,61,61,27-08-22,27-08-22,16:07:11,0,0,0,0,0,688,3.6.1,5,231,751,z,1066,1175,1920,30,1200,30,2,25,1920,0,odd,MacIntel,tould
51,51,748,trial,Mozilla,Netscape,5.0 (Macintosh),Word,1,z,0,62,62,27-08-22,27-08-22,16:07:11,0,0,0,0,0,688,3.6.1,6,231,751,z,1274,1175,1920,30,1200,30,2,25,1920,0,odd,MacIntel,banana
52,52,737,trial,Mozilla,Netscape,5.0 (Macintosh),Word,1,z,0,63,63,27-08-22,27-08-22,16:07:11,0,0,0,0,0,688,3.6.1,7,231,751,z,39,1175,1920,30,1200,30,2,25,1920,0,odd,MacIntel,embrace
51,51,729,trial,Mozilla,Netscape,5.0 (Macintosh),PH,0,m,0,64,64,27-08-22,27-08-22,16:07:11,0,0,0,0,0,688,3.6.1,6,231,751,z,260,1175,1920,30,1200,30,2,25,1920,0,odd,MacIntel,fluick
52,52,718,trial,Mozilla,Netscape,5.0 (Macintosh),Word,1,z,0,65,65,27-08-22,27-08-22,16:07:11,0,0,0,0,0,688,3.6.1,7,231,751,z,17,1175,1920,30,1200,30,2,25,1920,0,odd,MacIntel,dungeon
52,52,711,trial,Mozilla,Netscape,5.0 (Macintosh),Word,1,z,0,66,66,27-08-22,27-08-22,16:07:11,0,0,0,0,0,688,3.6.1,6,231,751,z,194,1175,1920,30,1200,30,2,25,1920,0,odd,MacIntel,racket
51,51,700,trial,Mozilla,Netscape,5.0 (Macintosh),NW,0,m,0,67,67,27-08-22,27-08-22,16:07:11,0,0,0,0,0,688,3.6.1,6,231,751,z,10,1175,1920,30,1200,30,2,25,1920,0,odd,MacIntel,nonzed
51,51,693,trial,Mozilla,Netscape,5.0 (Macintosh),NW,0,m,0,68,68,27-08-22,27-08-22,16:07:11,0,0,0,0,0,688,3.6.1,6,231,751,z,207,1175,1920,30,1200,30,2,25,1920,0,odd,MacIntel,sturds
51,51,723,trial,Mozilla,Netscape,5.0 (Macintosh),Word,1,z,0,69,69,27-08-22,27-08-22,16:07:11,0,0,0,0,0,688,3.6.1,4,231,751,z,2765,1175,1920,30,1200,30,2,25,1920,0,odd,MacIntel,beak
52,52,720,trial,Mozilla,Netscape,5.0 (Macintosh),Word,1,z,0,70,70,27-08-22,27-08-22,16:07:11,0,0,0,0,0,688,3.6.1,4,231,751,z,553,1175,1920,30,1200,30,2,25,1920,0,odd,MacIntel,mean
53,53,715,trial,Mozilla,Netscape,5.0 (Macintosh),Word,1,z,0,71,71,27-08-22,27-08-22,16:07:11,0,0,0,0,0,688,3.6.1,6,231,751,z,315,1175,1920,30,1200,30,2,25,1920,0,odd,MacIntel,scroll
53,53,718,trial,Mozilla,Netscape,5.0 (Macintosh),Word,1,z,0,72,72,27-08-22,27-08-22,16:07:11,0,0,0,0,0,688,3.6.1,6,231,751,z,976,1175,1920,30,1200,30,2,25,1920,0,odd,MacIntel,enigma
53,53,718,trial,Mozilla,Netscape,5.0 (Macintosh),NW,0,m,0,73,73,27-08-22,27-08-22,16:07:11,0,0,0,0,0,688,3.6.1,4,231,751,z,665,1175,1920,30,1200,30,2,25,1920,0,odd,MacIntel,kirm
53,53,718,trial,Mozilla,Netscape,5.0 (Macintosh),Word,1,z,0,74,74,27-08-22,27-08-22,16:07:11,0,0,0,0,0,688,3.6.1,7,231,751,z,733,1175,1920,30,1200,30,2,25,1920,0,odd,MacIntel,blunder
53,53,717,trial,Mozilla,Netscape,5.0 (Macintosh),NW,0,m,0,75,75,27-08-22,27-08-22,16:07:11,0,0,0,0,0,688,3.6.1,7,231,751,z,630,1175,1920,30,1200,30,2,25,1920,0,odd,MacIntel,rhourth
52,52,715,trial,Mozilla,Netscape,5.0 (Macintosh),NW,0,m,0,76,76,27-08-22,27-08-22,16:07:11,0,0,0,0,0,688,3.6.1,5,231,751,z,624,1175,1920,30,1200,30,2,25,1920,0,odd,MacIntel,wrurb
53,53,713,trial,Mozilla,Netscape,5.0 (Macintosh),Word,1,z,0,77,77,27-08-22,27-08-22,16:07:11,0,0,0,0,0,688,3.6.1,7,231,751,z,549,1175,1920,30,1200,30,2,25,1920,0,odd,MacIntel,chuckle
52,52,712,trial,Mozilla,Netscape,5.0 (Macintosh),NW,0,m,0,78,78,27-08-22,27-08-22,16:07:11,0,0,0,0,0,688,3.6.1,3,231,751,z,581,1175,1920,30,1200,30,2,25,1920,0,odd,MacIntel,dod
51,51,710,trial,Mozilla,Netscape,5.0 (Macintosh),PH,0,m,0,79,79,27-08-22,27-08-22,16:07:11,0,0,0,0,0,688,3.6.1,6,231,751,z,597,1175,1920,30,1200,30,2,25,1920,0,odd,MacIntel,pleets
52,52,710,trial,Mozilla,Netscape,5.0 (Macintosh),Word,1,z,0,80,80,27-08-22,27-08-22,16:07:11,0,0,0,0,0,688,3.6.1,6,231,751,z,673,1175,1920,30,1200,30,2,25,1920,0,odd,MacIntel,camera
51,51,712,trial,Mozilla,Netscape,5.0 (Macintosh),PH,0,m,0,81,81,27-08-22,27-08-22,16:07:11,0,0,0,0,0,688,3.6.1,3,231,751,z,857,1175,1920,30,1200,30,2,25,1920,0,odd,MacIntel,rey
52,52,711,trial,Mozilla,Netscape,5.0 (Macintosh),Word,1,z,0,82,82,27-08-22,27-08-22,16:07:11,0,0,0,0,0,688,3.6.1,6,231,751,z,699,1175,1920,30,1200,30,2,25,1920,0,odd,MacIntel,punish
52,52,709,trial,Mozilla,Netscape,5.0 (Macintosh),Word,1,z,0,83,83,27-08-22,27-08-22,16:07:11,0,0,0,0,0,688,3.6.1,7,231,751,z,477,1175,1920,30,1200,30,2,25,1920,0,odd,MacIntel,platter
52,52,709,trial,Mozilla,Netscape,5.0 (Macintosh),PH,0,m,0,84,84,27-08-22,27-08-22,16:07:11,0,0,0,0,0,688,3.6.1,5,231,751,z,703,1175,1920,30,1200,30,2,25,1920,0,odd,MacIntel,stais
52,52,706,trial,Mozilla,Netscape,5.0 (Macintosh),Word,1,z,0,85,85,27-08-22,27-08-22,16:07:11,0,0,0,0,0,688,3.6.1,6,231,751,z,522,1175,1920,30,1200,30,2,25,1920,0,odd,MacIntel,victim
52,52,706,trial,Mozilla,Netscape,5.0 (Macintosh),NW,0,m,0,86,86,27-08-22,27-08-22,16:07:11,0,0,0,0,0,688,3.6.1,6,231,751,z,710,1175,1920,30,1200,30,2,25,1920,0,odd,MacIntel,trynes
52,52,714,trial,Mozilla,Netscape,5.0 (Macintosh),Word,1,z,0,87,87,27-08-22,27-08-22,16:07:11,0,0,0,0,0,688,3.6.1,5,231,751,z,1403,1175,1920,30,1200,30,2,25,1920,0,odd,MacIntel,globe
53,53,717,trial,Mozilla,Netscape,5.0 (Macintosh),Word,1,z,0,88,88,27-08-22,27-08-22,16:07:11,0,0,0,0,0,688,3.6.1,7,231,751,z,947,1175,1920,30,1200,30,2,25,1920,0,odd,MacIntel,ceiling
52,52,723,trial,Mozilla,Netscape,5.0 (Macintosh),PH,0,m,0,89,89,27-08-22,27-08-22,16:07:11,0,0,0,0,0,688,3.6.1,6,231,751,z,1257,1175,1920,30,1200,30,2,25,1920,0,odd,MacIntel,phlize
53,53,730,trial,Mozilla,Netscape,5.0 (Macintosh),Word,1,z,0,90,90,27-08-22,27-08-22,16:07:11,0,0,0,0,0,688,3.6.1,5,231,751,z,1325,1175,1920,30,1200,30,2,25,1920,0,odd,MacIntel,chute
52,52,728,trial,Mozilla,Netscape,5.0 (Macintosh),PH,0,m,0,91,91,27-08-22,27-08-22,16:07:11,0,0,0,0,0,688,3.6.1,4,231,751,z,562,1175,1920,30,1200,30,2,25,1920,0,odd,MacIntel,wure
52,52,730,trial,Mozilla,Netscape,5.0 (Macintosh),PH,0,m,0,92,92,27-08-22,27-08-22,16:07:11,0,0,0,0,0,688,3.6.1,5,231,751,z,893,1175,1920,30,1200,30,2,25,1920,0,odd,MacIntel,medes
51,51,732,trial,Mozilla,Netscape,5.0 (Macintosh),NW,0,m,0,93,93,27-08-22,27-08-22,16:07:11,0,0,0,0,0,688,3.6.1,6,231,751,z,940,1175,1920,30,1200,30,2,25,1920,0,odd,MacIntel,snafes
51,51,734,trial,Mozilla,Netscape,5.0 (Macintosh),PH,0,m,0,94,94,27-08-22,27-08-22,16:07:11,0,0,0,0,0,688,3.6.1,6,231,751,z,949,1175,1920,30,1200,30,2,25,1920,0,odd,MacIntel,rhaque
51,51,740,trial,Mozilla,Netscape,5.0 (Macintosh),Word,1,z,0,95,95,27-08-22,27-08-22,16:07:11,0,0,0,0,0,688,3.6.1,3,231,751,z,1274,1175,1920,30,1200,30,2,25,1920,0,odd,MacIntel,ram
52,52,741,trial,Mozilla,Netscape,5.0 (Macintosh),Word,1,z,0,96,96,27-08-22,27-08-22,16:07:11,0,0,0,0,0,688,3.6.1,5,231,751,z,905,1175,1920,30,1200,30,2,25,1920,0,odd,MacIntel,brake
52,52,740,trial,Mozilla,Netscape,5.0 (Macintosh),Word,1,z,0,97,97,27-08-22,27-08-22,16:07:11,0,0,0,0,0,688,3.6.1,4,231,751,z,632,1175,1920,30,1200,30,2,25,1920,0,odd,MacIntel,miss
52,52,770,trial,Mozilla,Netscape,5.0 (Macintosh),PH,0,m,0,98,98,27-08-22,27-08-22,16:07:11,0,0,0,0,0,688,3.6.1,6,231,751,z,3689,1175,1920,30,1200,30,2,25,1920,0,odd,MacIntel,grambs
52,52,771,trial,Mozilla,Netscape,5.0 (Macintosh),Word,1,z,0,99,99,27-08-22,27-08-22,16:07:11,0,0,0,0,0,688,3.6.1,6,231,751,z,841,1175,1920,30,1200,30,2,25,1920,0,odd,MacIntel,sleigh
0,0,1559,trial,Mozilla,Netscape,5.0 (Macintosh),NW,0,m,0,99,99,27-08-22,27-08-22,16:07:11,0,0,0,0,0,688,3.6.1,5,231,751,z,1559,1175,1920,30,1200,30,2,25,1920,0,odd,MacIntel,tadds
50,50,1128,trial,Mozilla,Netscape,5.0 (Macintosh),Word,1,z,0,99,99,27-08-22,27-08-22,16:07:11,0,0,0,0,0,688,3.6.1,6,231,751,z,696,1175,1920,30,1200,30,2,25,1920,0,odd,MacIntel,mutton
67,67,1141,trial,Mozilla,Netscape,5.0 (Macintosh),Word,1,z,0,99,99,27-08-22,27-08-22,16:07:11,0,0,0,0,0,688,3.6.1,6,231,751,z,1167,1175,1920,30,1200,30,2,25,1920,0,odd,MacIntel,misery
75,75,1088,trial,Mozilla,Netscape,5.0 (Macintosh),Word,1,z,0,99,99,27-08-22,27-08-22,16:07:11,0,0,0,0,0,688,3.6.1,5,231,751,z,931,1175,1920,30,1200,30,2,25,1920,0,odd,MacIntel,scare
80,80,1080,trial,Mozilla,Netscape,5.0 (Macintosh),Word,1,z,0,99,99,27-08-22,27-08-22,16:07:11,0,0,0,0,0,688,3.6.1,5,231,751,z,1047,1175,1920,30,1200,30,2,25,1920,0,odd,MacIntel,order
83,83,1112,trial,Mozilla,Netscape,5.0 (Macintosh),Word,1,z,0,99,99,27-08-22,27-08-22,16:07:11,0,0,0,0,0,688,3.6.1,3,231,751,z,1270,1175,1920,30,1200,30,2,25,1920,0,odd,MacIntel,rib
71,71,1084,trial,Mozilla,Netscape,5.0 (Macintosh),NW,0,m,0,99,99,27-08-22,27-08-22,16:07:11,0,0,0,0,0,688,3.6.1,3,231,751,z,918,1175,1920,30,1200,30,2,25,1920,0,odd,MacIntel,erb
75,75,1385,trial,Mozilla,Netscape,5.0 (Macintosh),Word,1,z,0,99,99,27-08-22,27-08-22,16:07:11,0,0,0,0,0,688,3.6.1,4,231,751,z,3493,1175,1920,30,1200,30,2,25,1920,0,odd,MacIntel,soft
78,78,1487,trial,Mozilla,Netscape,5.0 (Macintosh),Word,1,z,0,99,99,27-08-22,27-08-22,16:07:11,0,0,0,0,0,688,3.6.1,5,231,751,z,2301,1175,1920,30,1200,30,2,25,1920,0,odd,MacIntel,stale
80,80,1380,trial,Mozilla,Netscape,5.0 (Macintosh),Word,1,z,0,99,99,27-08-22,27-08-22,16:07:11,0,0,0,0,0,688,3.6.1,6,231,751,z,419,1175,1920,30,1200,30,2,25,1920,0,odd,MacIntel,neuter
73,73,1568,trial,Mozilla,Netscape,5.0 (Macintosh),NW,0,m,0,99,99,27-08-22,27-08-22,16:07:11,0,0,0,0,0,688,3.6.1,4,231,751,z,3451,1175,1920,30,1200,30,2,25,1920,0,odd,MacIntel,rurk
67,67,1762,trial,Mozilla,Netscape,5.0 (Macintosh),NW,0,m,0,99,99,27-08-22,27-08-22,16:07:11,0,0,0,0,0,688,3.6.1,5,231,751,z,3886,1175,1920,30,1200,30,2,25,1920,0,odd,MacIntel,snive
69,69,1711,trial,Mozilla,Netscape,5.0 (Macintosh),Word,1,z,0,99,99,27-08-22,27-08-22,16:07:11,0,0,0,0,0,688,3.6.1,4,231,751,z,1109,1175,1920,30,1200,30,2,25,1920,0,odd,MacIntel,blow
71,71,1672,trial,Mozilla,Netscape,5.0 (Macintosh),Word,1,z,0,99,99,27-08-22,27-08-22,16:07:11,0,0,0,0,0,688,3.6.1,7,231,751,z,1155,1175,1920,30,1200,30,2,25,1920,0,odd,MacIntel,newborn
73,73,1790,trial,Mozilla,Netscape,5.0 (Macintosh),Word,1,z,0,99,99,27-08-22,27-08-22,16:07:11,0,0,0,0,0,688,3.6.1,6,231,751,z,3445,1175,1920,30,1200,30,2,25,1920,0,odd,MacIntel,frenzy
75,75,1807,trial,Mozilla,Netscape,5.0 (Macintosh),Word,1,z,0,99,99,27-08-22,27-08-22,16:07:11,0,0,0,0,0,688,3.6.1,5,231,751,z,2063,1175,1920,30,1200,30,2,25,1920,0,odd,MacIntel,dusty
76,76,1734,trial,Mozilla,Netscape,5.0 (Macintosh),Word,1,z,0,99,99,27-08-22,27-08-22,16:07:11,0,0,0,0,0,688,3.6.1,3,231,751,z,564,1175,1920,30,1200,30,2,25,1920,0,odd,MacIntel,lax
72,72,1915,trial,Mozilla,Netscape,5.0 (Macintosh),Word,0,z,0,99,99,27-08-22,27-08-22,16:07:11,0,0,0,0,0,688,3.6.1,6,231,751,z,5002,1175,1920,30,1200,30,2,25,1920,0,odd,MacIntel,starch
68,68,1882,trial,Mozilla,Netscape,5.0 (Macintosh),NW,0,m,0,99,99,27-08-22,27-08-22,16:07:11,0,0,0,0,0,688,3.6.1,6,231,751,z,1282,1175,1920,30,1200,30,2,25,1920,0,odd,MacIntel,knults
65,65,1807,trial,Mozilla,Netscape,5.0 (Macintosh),PH,0,m,0,99,99,27-08-22,27-08-22,16:07:11,0,0,0,0,0,688,3.6.1,4,231,751,z,372,1175,1920,30,1200,30,2,25,1920,0,odd,MacIntel,fize
62,62,1959,trial,Mozilla,Netscape,5.0 (Macintosh),Word,0,z,0,99,99,27-08-22,27-08-22,16:07:11,0,0,0,0,0,688,3.6.1,4,231,751,z,5001,1175,1920,30,1200,30,2,25,1920,0,odd,MacIntel,sine
59,59,1921,trial,Mozilla,Netscape,5.0 (Macintosh),PH,0,m,0,99,99,27-08-22,27-08-22,16:07:11,0,0,0,0,0,688,3.6.1,3,231,751,z,1122,1175,1920,30,1200,30,2,25,1920,0,odd,MacIntel,oad
57,57,1842,trial,Mozilla,Netscape,5.0 (Macintosh),NW,0,m,0,99,99,27-08-22,27-08-22,16:07:11,0,0,0,0,0,688,3.6.1,4,231,751,z,121,1175,1920,30,1200,30,2,25,1920,0,odd,MacIntel,yows
54,54,1783,trial,Mozilla,Netscape,5.0 (Macintosh),PH,0,m,0,99,99,27-08-22,27-08-22,16:07:11,0,0,0,0,0,688,3.6.1,6,231,751,z,408,1175,1920,30,1200,30,2,25,1920,0,odd,MacIntel,chaist
52,52,1727,trial,Mozilla,Netscape,5.0 (Macintosh),PH,0,m,0,99,99,27-08-22,27-08-22,16:07:11,0,0,0,0,0,688,3.6.1,5,231,751,z,383,1175,1920,30,1200,30,2,25,1920,0,odd,MacIntel,cemed
50,50,1677,trial,Mozilla,Netscape,5.0 (Macintosh),NW,0,m,0,99,99,27-08-22,27-08-22,16:07:11,0,0,0,0,0,688,3.6.1,5,231,751,z,433,1175,1920,30,1200,30,2,25,1920,0,odd,MacIntel,waffs
52,52,1624,trial,Mozilla,Netscape,5.0 (Macintosh),Word,1,z,0,99,99,27-08-22,27-08-22,16:07:11,0,0,0,0,0,688,3.6.1,5,231,751,z,242,1175,1920,30,1200,30,2,25,1920,0,odd,MacIntel,linen
54,54,1568,trial,Mozilla,Netscape,5.0 (Macintosh),Word,1,z,0,99,99,27-08-22,27-08-22,16:07:11,0,0,0,0,0,688,3.6.1,7,231,751,z,64,1175,1920,30,1200,30,2,25,1920,0,odd,MacIntel,referee
52,52,1525,trial,Mozilla,Netscape,5.0 (Macintosh),NW,0,m,0,99,99,27-08-22,27-08-22,16:07:11,0,0,0,0,0,688,3.6.1,4,231,751,z,316,1175,1920,30,1200,30,2,25,1920,0,odd,MacIntel,zowl
50,50,1485,trial,Mozilla,Netscape,5.0 (Macintosh),NW,0,m,0,99,99,27-08-22,27-08-22,16:07:11,0,0,0,0,0,688,3.6.1,7,231,751,z,328,1175,1920,30,1200,30,2,25,1920,0,odd,MacIntel,spreals
48,48,1447,trial,Mozilla,Netscape,5.0 (Macintosh),NW,0,m,0,99,99,27-08-22,27-08-22,16:07:11,0,0,0,0,0,688,3.6.1,7,231,751,z,304,1175,1920,30,1200,30,2,25,1920,0,odd,MacIntel,thraves
50,50,1412,trial,Mozilla,Netscape,5.0 (Macintosh),Word,1,z,0,99,99,27-08-22,27-08-22,16:07:11,0,0,0,0,0,688,3.6.1,7,231,751,z,323,1175,1920,30,1200,30,2,25,1920,0,odd,MacIntel,arbiter
48,48,1377,trial,Mozilla,Netscape,5.0 (Macintosh),NW,0,m,0,99,99,27-08-22,27-08-22,16:07:11,0,0,0,0,0,688,3.6.1,6,231,751,z,277,1175,1920,30,1200,30,2,25,1920,0,odd,MacIntel,thwups
47,47,1342,trial,Mozilla,Netscape,5.0 (Macintosh),PH,0,m,0,99,99,27-08-22,27-08-22,16:07:11,0,0,0,0,0,688,3.6.1,4,231,751,z,174,1175,1920,30,1200,30,2,25,1920,0,odd,MacIntel,berd
49,49,1309,trial,Mozilla,Netscape,5.0 (Macintosh),Word,1,z,0,99,99,27-08-22,27-08-22,16:07:11,0,0,0,0,0,688,3.6.1,5,231,751,z,187,1175,1920,30,1200,30,2,25,1920,0,odd,MacIntel,coach
47,47,1280,trial,Mozilla,Netscape,5.0 (Macintosh),PH,0,m,0,99,99,27-08-22,27-08-22,16:07:11,0,0,0,0,0,688,3.6.1,4,231,751,z,275,1175,1920,30,1200,30,2,25,1920,0,odd,MacIntel,wran
46,46,1247,trial,Mozilla,Netscape,5.0 (Macintosh),NW,0,m,0,99,99,27-08-22,27-08-22,16:07:11,0,0,0,0,0,688,3.6.1,6,231,751,z,66,1175,1920,30,1200,30,2,25,1920,0,odd,MacIntel,whotes
47,47,1224,trial,Mozilla,Netscape,5.0 (Macintosh),Word,1,z,0,99,99,27-08-22,27-08-22,16:07:11,0,0,0,0,0,688,3.6.1,6,231,751,z,345,1175,1920,30,1200,30,2,25,1920,0,odd,MacIntel,tomato
49,49,1198,trial,Mozilla,Netscape,5.0 (Macintosh),Word,1,z,0,99,99,27-08-22,27-08-22,16:07:11,0,0,0,0,0,688,3.6.1,6,231,751,z,219,1175,1920,30,1200,30,2,25,1920,0,odd,MacIntel,puddle
48,48,1176,trial,Mozilla,Netscape,5.0 (Macintosh),NW,0,m,0,99,99,27-08-22,27-08-22,16:07:11,0,0,0,0,0,688,3.6.1,4,231,751,z,320,1175,1920,30,1200,30,2,25,1920,0,odd,MacIntel,dwut
46,46,1155,trial,Mozilla,Netscape,5.0 (Macintosh),NW,0,m,0,99,99,27-08-22,27-08-22,16:07:11,0,0,0,0,0,688,3.6.1,4,231,751,z,301,1175,1920,30,1200,30,2,25,1920,0,odd,MacIntel,puct
45,45,1134,trial,Mozilla,Netscape,5.0 (Macintosh),NW,0,m,0,99,99,27-08-22,27-08-22,16:07:11,0,0,0,0,0,688,3.6.1,5,231,751,z,301,1175,1920,30,1200,30,2,25,1920,0,odd,MacIntel,stoil
47,47,1116,trial,Mozilla,Netscape,5.0 (Macintosh),Word,1,z,0,99,99,27-08-22,27-08-22,16:07:11,0,0,0,0,0,688,3.6.1,5,231,751,z,343,1175,1920,30,1200,30,2,25,1920,0,odd,MacIntel,patch
45,45,1097,trial,Mozilla,Netscape,5.0 (Macintosh),PH,0,m,0,99,99,27-08-22,27-08-22,16:07:11,0,0,0,0,0,688,3.6.1,6,231,751,z,266,1175,1920,30,1200,30,2,25,1920,0,odd,MacIntel,beaves
44,44,1078,trial,Mozilla,Netscape,5.0 (Macintosh),PH,0,m,0,99,99,27-08-22,27-08-22,16:07:11,0,0,0,0,0,688,3.6.1,7,231,751,z,247,1175,1920,30,1200,30,2,25,1920,0,odd,MacIntel,phlukes
43,43,1061,trial,Mozilla,Netscape,5.0 (Macintosh),NW,0,m,0,99,99,27-08-22,27-08-22,16:07:11,0,0,0,0,0,688,3.6.1,6,231,751,z,287,1175,1920,30,1200,30,2,25,1920,0,odd,MacIntel,wralph
43,43,1045,trial,Mozilla,Netscape,5.0 (Macintosh),PH,0,m,0,99,99,27-08-22,27-08-22,16:07:11,0,0,0,0,0,688,3.6.1,5,231,751,z,317,1175,1920,30,1200,30,2,25,1920,0,odd,MacIntel,wrync
42,42,1029,trial,Mozilla,Netscape,5.0 (Macintosh),PH,0,m,0,99,99,27-08-22,27-08-22,16:07:11,0,0,0,0,0,688,3.6.1,6,231,751,z,271,1175,1920,30,1200,30,2,25,1920,0,odd,MacIntel,wroons
43,43,1018,trial,Mozilla,Netscape,5.0 (Macintosh),Word,1,z,0,99,99,27-08-22,27-08-22,16:07:11,0,0,0,0,0,688,3.6.1,6,231,751,z,513,1175,1920,30,1200,30,2,25,1920,0,odd,MacIntel,beauty
44,44,999,trial,Mozilla,Netscape,5.0 (Macintosh),Word,1,z,0,99,99,27-08-22,27-08-22,16:07:11,0,0,0,0,0,688,3.6.1,4,231,751,z,90,1175,1920,30,1200,30,2,25,1920,0,odd,MacIntel,zone
43,43,987,trial,Mozilla,Netscape,5.0 (Macintosh),Word,0,z,0,99,99,27-08-22,27-08-22,16:07:11,0,0,0,0,0,688,3.6.1,5,231,751,z,380,1175,1920,30,1200,30,2,25,1920,0,odd,MacIntel,audit
44,44,976,trial,Mozilla,Netscape,5.0 (Macintosh),NW,1,m,0,99,99,27-08-22,27-08-22,16:07:11,0,0,0,0,0,688,3.6.1,5,231,751,z,417,1175,1920,30,1200,30,2,25,1920,0,odd,MacIntel,pilms
43,43,966,trial,Mozilla,Netscape,5.0 (Macintosh),Word,0,z,0,99,99,27-08-22,27-08-22,16:07:11,0,0,0,0,0,688,3.6.1,4,231,751,z,449,1175,1920,30,1200,30,2,25,1920,0,odd,MacIntel,step
44,44,958,trial,Mozilla,Netscape,5.0 (Macintosh),PH,1,m,0,99,99,27-08-22,27-08-22,16:07:11,0,0,0,0,0,688,3.6.1,3,231,751,z,510,1175,1920,30,1200,30,2,25,1920,0,odd,MacIntel,orl
44,44,957,trial,Mozilla,Netscape,5.0 (Macintosh),Word,0,z,0,99,99,27-08-22,27-08-22,16:07:11,0,0,0,0,0,688,3.6.1,4,231,751,z,879,1175,1920,30,1200,30,2,25,1920,0,odd,MacIntel,fane
45,45,946,trial,Mozilla,Netscape,5.0 (Macintosh),NW,1,m,0,99,99,27-08-22,27-08-22,16:07:11,0,0,0,0,0,688,3.6.1,5,231,751,z,357,1175,1920,30,1200,30,2,25,1920,0,odd,MacIntel,dunds
44,44,940,trial,Mozilla,Netscape,5.0 (Macintosh),Word,0,z,0,99,99,27-08-22,27-08-22,16:07:11,0,0,0,0,0,688,3.6.1,6,231,751,z,624,1175,1920,30,1200,30,2,25,1920,0,odd,MacIntel,jargon
45,45,928,trial,Mozilla,Netscape,5.0 (Macintosh),PH,1,m,0,99,99,27-08-22,27-08-22,16:07:11,0,0,0,0,0,688,3.6.1,6,231,751,z,243,1175,1920,30,1200,30,2,25,1920,0,odd,MacIntel,ghulfs
44,44,916,trial,Mozilla,Netscape,5.0 (Macintosh),Word,0,z,0,99,99,27-08-22,27-08-22,16:07:11,0,0,0,0,0,688,3.6.1,4,231,751,z,233,1175,1920,30,1200,30,2,25,1920,0,odd,MacIntel,them
45,45,925,trial,Mozilla,Netscape,5.0 (Macintosh),PH,1,m,0,99,99,27-08-22,27-08-22,16:07:11,0,0,0,0,0,688,3.6.1,5,231,751,z,1410,1175,1920,30,1200,30,2,25,1920,0,odd,MacIntel,gnone
44,44,925,trial,Mozilla,Netscape,5.0 (Macintosh),Word,0,z,0,99,99,27-08-22,27-08-22,16:07:11,0,0,0,0,0,688,3.6.1,4,231,751,z,939,1175,1920,30,1200,30,2,25,1920,0,odd,MacIntel,worn
44,44,915,trial,Mozilla,Netscape,5.0 (Macintosh),Word,0,z,0,99,99,27-08-22,27-08-22,16:07:11,0,0,0,0,0,688,3.6.1,4,231,751,z,333,1175,1920,30,1200,30,2,25,1920,0,odd,MacIntel,camp
43,43,916,trial,Mozilla,Netscape,5.0 (Macintosh),Word,0,z,0,99,99,27-08-22,27-08-22,16:07:11,0,0,0,0,0,688,3.6.1,4,231,751,z,973,1175,1920,30,1200,30,2,25,1920,0,odd,MacIntel,vain
42,42,918,trial,Mozilla,Netscape,5.0 (Macintosh),Word,0,z,0,99,99,27-08-22,27-08-22,16:07:11,0,0,0,0,0,688,3.6.1,5,231,751,z,1026,1175,1920,30,1200,30,2,25,1920,0,odd,MacIntel,grove
43,43,912,trial,Mozilla,Netscape,5.0 (Macintosh),PH,1,m,0,99,99,27-08-22,27-08-22,16:07:11,0,0,0,0,0,688,3.6.1,5,231,751,z,507,1175,1920,30,1200,30,2,25,1920,0,odd,MacIntel,kubed
42,42,902,trial,Mozilla,Netscape,5.0 (Macintosh),Word,0,z,0,99,99,27-08-22,27-08-22,16:07:11,0,0,0,0,0,688,3.6.1,5,231,751,z,303,1175,1920,30,1200,30,2,25,1920,0,odd,MacIntel,cloak
43,43,893,trial,Mozilla,Netscape,5.0 (Macintosh),PH,1,m,0,99,99,27-08-22,27-08-22,16:07:11,0,0,0,0,0,688,3.6.1,4,231,751,z,258,1175,1920,30,1200,30,2,25,1920,0,odd,MacIntel,hepe
44,44,883,trial,Mozilla,Netscape,5.0 (Macintosh),NW,1,m,0,99,99,27-08-22,27-08-22,16:07:11,0,0,0,0,0,688,3.6.1,4,231,751,z,261,1175,1920,30,1200,30,2,25,1920,0,odd,MacIntel,parn
43,43,872,trial,Mozilla,Netscape,5.0 (Macintosh),Word,0,z,0,99,99,27-08-22,27-08-22,16:07:11,0,0,0,0,0,688,3.6.1,6,231,751,z,118,1175,1920,30,1200,30,2,25,1920,0,odd,MacIntel,belfry
43,43,864,trial,Mozilla,Netscape,5.0 (Macintosh),Word,0,z,0,99,99,27-08-22,27-08-22,16:07:11,0,0,0,0,0,688,3.6.1,6,231,751,z,298,1175,1920,30,1200,30,2,25,1920,0,odd,MacIntel,planet
42,42,857,trial,Mozilla,Netscape,5.0 (Macintosh),Word,0,z,0,99,99,27-08-22,27-08-22,16:07:11,0,0,0,0,0,688,3.6.1,4,231,751,z,343,1175,1920,30,1200,30,2,25,1920,0,odd,MacIntel,haul
43,43,853,trial,Mozilla,Netscape,5.0 (Macintosh),NW,1,m,0,99,99,27-08-22,27-08-22,16:07:11,0,0,0,0,0,688,3.6.1,7,231,751,z,609,1175,1920,30,1200,30,2,25,1920,0,odd,MacIntel,spoints
44,44,848,trial,Mozilla,Netscape,5.0 (Macintosh),PH,1,m,0,99,99,27-08-22,27-08-22,16:07:11,0,0,0,0,0,688,3.6.1,5,231,751,z,442,1175,1920,30,1200,30,2,25,1920,0,odd,MacIntel,cuild
45,45,847,trial,Mozilla,Netscape,5.0 (Macintosh),NW,1,m,0,99,99,27-08-22,27-08-22,16:07:11,0,0,0,0,0,688,3.6.1,4,231,751,z,787,1175,1920,30,1200,30,2,25,1920,0,odd,MacIntel,cupe
45,45,844,trial,Mozilla,Netscape,5.0 (Macintosh),PH,1,m,0,99,99,27-08-22,27-08-22,16:07:11,0,0,0,0,0,688,3.6.1,7,231,751,z,590,1175,1920,30,1200,30,2,25,1920,0,odd,MacIntel,ghoasts
46,46,838,trial,Mozilla,Netscape,5.0 (Macintosh),NW,1,m,0,99,99,27-08-22,27-08-22,16:07:11,0,0,0,0,0,688,3.6.1,6,231,751,z,408,1175,1920,30,1200,30,2,25,1920,0,odd,MacIntel,threbs
47,47,831,trial,Mozilla,Netscape,5.0 (Macintosh),PH,1,m,0,99,99,27-08-22,27-08-22,16:07:11,0,0,0,0,0,688,3.6.1,7,231,751,z,291,1175,1920,30,1200,30,2,25,1920,0,odd,MacIntel,ghaffed
46,46,825,trial,Mozilla,Netscape,5.0 (Macintosh),Word,0,z,0,99,99,27-08-22,27-08-22,16:07:11,0,0,0,0,0,688,3.6.1,4,231,751,z,412,1175,1920,30,1200,30,2,25,1920,0,odd,MacIntel,wary
46,46,821,trial,Mozilla,Netscape,5.0 (Macintosh),Word,0,z,0,99,99,27-08-22,27-08-22,16:07:11,0,0,0,0,0,688,3.6.1,5,231,751,z,491,1175,1920,30,1200,30,2,25,1920,0,odd,MacIntel,tiger
46,46,822,trial,Mozilla,Netscape,5.0 (Macintosh),PH,1,m,0,99,99,27-08-22,27-08-22,16:07:11,0,0,0,0,0,688,3.6.1,4,231,751,z,904,1175,1920,30,1200,30,2,25,1920,0,odd,MacIntel,dror
47,47,821,trial,Mozilla,Netscape,5.0 (Macintosh),PH,1,m,0,99,99,27-08-22,27-08-22,16:07:11,0,0,0,0,0,688,3.6.1,5,231,751,z,769,1175,1920,30,1200,30,2,25,1920,0,odd,MacIntel,wurnt
46,46,837,trial,Mozilla,Netscape,5.0 (Macintosh),Word,0,z,0,99,99,27-08-22,27-08-22,16:07:11,0,0,0,0,0,688,3.6.1,6,231,751,z,2068,1175,1920,30,1200,30,2,25,1920,0,odd,MacIntel,orange
46,46,837,trial,Mozilla,Netscape,5.0 (Macintosh),Word,0,z,0,99,99,27-08-22,27-08-22,16:07:11,0,0,0,0,0,688,3.6.1,6,231,751,z,836,1175,1920,30,1200,30,2,25,1920,0,odd,MacIntel,breath
45,45,838,trial,Mozilla,Netscape,5.0 (Macintosh),Word,0,z,0,99,99,27-08-22,27-08-22,16:07:11,0,0,0,0,0,688,3.6.1,5,231,751,z,957,1175,1920,30,1200,30,2,25,1920,0,odd,MacIntel,crock
46,46,843,trial,Mozilla,Netscape,5.0 (Macintosh),NW,1,m,0,99,99,27-08-22,27-08-22,16:07:11,0,0,0,0,0,688,3.6.1,6,231,751,z,1249,1175,1920,30,1200,30,2,25,1920,0,odd,MacIntel,gromes
47,47,846,trial,Mozilla,Netscape,5.0 (Macintosh),PH,1,m,0,99,99,27-08-22,27-08-22,16:07:11,0,0,0,0,0,688,3.6.1,6,231,751,z,1077,1175,1920,30,1200,30,2,25,1920,0,odd,MacIntel,whefts
47,47,848,trial,Mozilla,Netscape,5.0 (Macintosh),PH,1,m,0,99,99,27-08-22,27-08-22,16:07:11,0,0,0,0,0,688,3.6.1,7,231,751,z,1076,1175,1920,30,1200,30,2,25,1920,0,odd,MacIntel,spaised
48,48,843,trial,Mozilla,Netscape,5.0 (Macintosh),PH,1,m,0,99,99,27-08-22,27-08-22,16:07:11,0,0,0,0,0,688,3.6.1,6,231,751,z,396,1175,1920,30,1200,30,2,25,1920,0,odd,MacIntel,scadds
47,47,842,trial,Mozilla,Netscape,5.0 (Macintosh),Word,0,z,0,99,99,27-08-22,27-08-22,16:07:11,0,0,0,0,0,688,3.6.1,7,231,751,z,748,1175,1920,30,1200,30,2,25,1920,0,odd,MacIntel,charter
47,47,840,trial,Mozilla,Netscape,5.0 (Macintosh),Word,0,z,0,99,99,27-08-22,27-08-22,16:07:11,0,0,0,0,0,688,3.6.1,7,231,751,z,661,1175,1920,30,1200,30,2,25,1920,0,odd,MacIntel,measure
46,46,837,trial,Mozilla,Netscape,5.0 (Macintosh),Word,0,z,0,99,99,27-08-22,27-08-22,16:07:11,0,0,0,0,0,688,3.6.1,4,231,751,z,583,1175,1920,30,1200,30,2,25,1920,0,odd,MacIntel,welt
46,46,841,trial,Mozilla,Netscape,5.0 (Macintosh),Word,0,z,0,99,99,27-08-22,27-08-22,16:07:11,0,0,0,0,0,688,3.6.1,5,231,751,z,1160,1175,1920,30,1200,30,2,25,1920,0,odd,MacIntel,pupil
46,46,838,trial,Mozilla,Netscape,5.0 (Macintosh),NW,1,m,0,99,99,27-08-22,27-08-22,16:07:11,0,0,0,0,0,688,3.6.1,6,231,751,z,594,1175,1920,30,1200,30,2,25,1920,0,odd,MacIntel,sluped
47,47,836,trial,Mozilla,Netscape,5.0 (Macintosh),NW,1,m,0,99,99,27-08-22,27-08-22,16:07:11,0,0,0,0,0,688,3.6.1,6,231,751,z,615,1175,1920,30,1200,30,2,25,1920,0,odd,MacIntel,plolks
47,47,833,trial,Mozilla,Netscape,5.0 (Macintosh),PH,1,m,0,99,99,27-08-22,27-08-22,16:07:11,0,0,0,0,0,688,3.6.1,5,231,751,z,565,1175,1920,30,1200,30,2,25,1920,0,odd,MacIntel,rheed
47,47,834,trial,Mozilla,Netscape,5.0 (Macintosh),Word,0,z,0,99,99,27-08-22,27-08-22,16:07:11,0,0,0,0,0,688,3.6.1,5,231,751,z,976,1175,1920,30,1200,30,2,25,1920,0,odd,MacIntel,wrack
