acc,accuracy,avg_rt,block,browser_codename,browser_name,browser_version,category,correct,correct_response,count_reset_feedback,count_trial_sequence,count_word,date_startdate,date_startdateUTC,date_starttime,experiment_debug,experiment_parameters,experiment_pilot,experiment_taskname,experiment_taskversion,jatosStudyResultId,jatosVersion,number_letters,queryParams_batchId,queryParams_personalMultipleWorkerId,response_keyboard_response,response_time,screen_availableHeight,screen_availableWidth,screen_colorDepth,screen_height,screen_pixelDepth,screen_screenX,screen_screenY,screen_width,subject_nr,subject_parity,system_os,target
100,100,1174,practice,Mozilla,Netscape,"5.0 (Macintosh; Intel Mac OS X 10_15_7) AppleWebKit/605.1.15 (KHTML, like Gecko) Version/15.5 Safari/605.1.15",NW,1,m,None,None,None,28-08-22,28-08-22,13:22:51,0,0,0,0,0,691,3.6.1,5,231,753,None,1174,1079,1728,24,1117,24,0,38,1728,1,odd,MacIntel,ipple
100,100,831,practice,Mozilla,Netscape,"5.0 (Macintosh; Intel Mac OS X 10_15_7) AppleWebKit/605.1.15 (KHTML, like Gecko) Version/15.5 Safari/605.1.15",NW,1,m,None,None,None,28-08-22,28-08-22,13:22:51,0,0,0,0,0,691,3.6.1,5,231,753,None,488,1079,1728,24,1117,24,0,38,1728,1,odd,MacIntel,mocag
100,100,735,practice,Mozilla,Netscape,"5.0 (Macintosh; Intel Mac OS X 10_15_7) AppleWebKit/605.1.15 (KHTML, like Gecko) Version/15.5 Safari/605.1.15",Word,1,z,None,None,None,28-08-22,28-08-22,13:22:51,0,0,0,0,0,691,3.6.1,5,231,753,None,543,1079,1728,24,1117,24,0,38,1728,1,odd,MacIntel,magic
100,100,681,practice,Mozilla,Netscape,"5.0 (Macintosh; Intel Mac OS X 10_15_7) AppleWebKit/605.1.15 (KHTML, like Gecko) Version/15.5 Safari/605.1.15",Word,1,z,None,None,None,28-08-22,28-08-22,13:22:51,0,0,0,0,0,691,3.6.1,5,231,753,None,518,1079,1728,24,1117,24,0,38,1728,1,odd,MacIntel,apple
100,100,632,practice,Mozilla,Netscape,"5.0 (Macintosh; Intel Mac OS X 10_15_7) AppleWebKit/605.1.15 (KHTML, like Gecko) Version/15.5 Safari/605.1.15",Word,1,z,None,None,None,28-08-22,28-08-22,13:22:51,0,0,0,0,0,691,3.6.1,6,231,753,None,435,1079,1728,24,1117,24,0,38,1728,1,odd,MacIntel,turtle
100,100,627,practice,Mozilla,Netscape,"5.0 (Macintosh; Intel Mac OS X 10_15_7) AppleWebKit/605.1.15 (KHTML, like Gecko) Version/15.5 Safari/605.1.15",NW,1,m,None,None,None,28-08-22,28-08-22,13:22:51,0,0,0,0,0,691,3.6.1,6,231,753,None,602,1079,1728,24,1117,24,0,38,1728,1,odd,MacIntel,ourtel
100,100,803,trial,Mozilla,Netscape,"5.0 (Macintosh; Intel Mac OS X 10_15_7) AppleWebKit/605.1.15 (KHTML, like Gecko) Version/15.5 Safari/605.1.15",PH,1,m,0,0,0,28-08-22,28-08-22,13:22:51,0,0,0,0,0,691,3.6.1,4,231,753,m,803,1079,1728,24,1117,24,0,38,1728,1,odd,MacIntel,haks
100,100,644,trial,Mozilla,Netscape,"5.0 (Macintosh; Intel Mac OS X 10_15_7) AppleWebKit/605.1.15 (KHTML, like Gecko) Version/15.5 Safari/605.1.15",Word,1,z,0,1,1,28-08-22,28-08-22,13:22:51,0,0,0,0,0,691,3.6.1,4,231,753,z,484,1079,1728,24,1117,24,0,38,1728,1,odd,MacIntel,beak
100,100,614,trial,Mozilla,Netscape,"5.0 (Macintosh; Intel Mac OS X 10_15_7) AppleWebKit/605.1.15 (KHTML, like Gecko) Version/15.5 Safari/605.1.15",NW,1,m,0,2,2,28-08-22,28-08-22,13:22:51,0,0,0,0,0,691,3.6.1,3,231,753,m,555,1079,1728,24,1117,24,0,38,1728,1,odd,MacIntel,dod
100,100,623,trial,Mozilla,Netscape,"5.0 (Macintosh; Intel Mac OS X 10_15_7) AppleWebKit/605.1.15 (KHTML, like Gecko) Version/15.5 Safari/605.1.15",PH,1,m,0,3,3,28-08-22,28-08-22,13:22:51,0,0,0,0,0,691,3.6.1,6,231,753,m,649,1079,1728,24,1117,24,0,38,1728,1,odd,MacIntel,proods
100,100,611,trial,Mozilla,Netscape,"5.0 (Macintosh; Intel Mac OS X 10_15_7) AppleWebKit/605.1.15 (KHTML, like Gecko) Version/15.5 Safari/605.1.15",Word,1,z,0,4,4,28-08-22,28-08-22,13:22:51,0,0,0,0,0,691,3.6.1,4,231,753,z,565,1079,1728,24,1117,24,0,38,1728,1,odd,MacIntel,yelp
100,100,610,trial,Mozilla,Netscape,"5.0 (Macintosh; Intel Mac OS X 10_15_7) AppleWebKit/605.1.15 (KHTML, like Gecko) Version/15.5 Safari/605.1.15",Word,1,z,0,5,5,28-08-22,28-08-22,13:22:51,0,0,0,0,0,691,3.6.1,5,231,753,z,602,1079,1728,24,1117,24,0,38,1728,1,odd,MacIntel,wharf
100,100,602,trial,Mozilla,Netscape,"5.0 (Macintosh; Intel Mac OS X 10_15_7) AppleWebKit/605.1.15 (KHTML, like Gecko) Version/15.5 Safari/605.1.15",PH,1,m,0,6,6,28-08-22,28-08-22,13:22:51,0,0,0,0,0,691,3.6.1,6,231,753,m,558,1079,1728,24,1117,24,0,38,1728,1,odd,MacIntel,grambs
100,100,592,trial,Mozilla,Netscape,"5.0 (Macintosh; Intel Mac OS X 10_15_7) AppleWebKit/605.1.15 (KHTML, like Gecko) Version/15.5 Safari/605.1.15",Word,1,z,0,7,7,28-08-22,28-08-22,13:22:51,0,0,0,0,0,691,3.6.1,6,231,753,z,519,1079,1728,24,1117,24,0,38,1728,1,odd,MacIntel,square
100,100,582,trial,Mozilla,Netscape,"5.0 (Macintosh; Intel Mac OS X 10_15_7) AppleWebKit/605.1.15 (KHTML, like Gecko) Version/15.5 Safari/605.1.15",PH,1,m,0,8,8,28-08-22,28-08-22,13:22:51,0,0,0,0,0,691,3.6.1,4,231,753,m,501,1079,1728,24,1117,24,0,38,1728,1,odd,MacIntel,ryle
100,100,565,trial,Mozilla,Netscape,"5.0 (Macintosh; Intel Mac OS X 10_15_7) AppleWebKit/605.1.15 (KHTML, like Gecko) Version/15.5 Safari/605.1.15",NW,1,m,0,9,9,28-08-22,28-08-22,13:22:51,0,0,0,0,0,691,3.6.1,6,231,753,m,418,1079,1728,24,1117,24,0,38,1728,1,odd,MacIntel,nonzed
100,100,555,trial,Mozilla,Netscape,"5.0 (Macintosh; Intel Mac OS X 10_15_7) AppleWebKit/605.1.15 (KHTML, like Gecko) Version/15.5 Safari/605.1.15",NW,1,m,0,10,10,28-08-22,28-08-22,13:22:51,0,0,0,0,0,691,3.6.1,5,231,753,m,449,1079,1728,24,1117,24,0,38,1728,1,odd,MacIntel,wrurb
92,92,550,trial,Mozilla,Netscape,"5.0 (Macintosh; Intel Mac OS X 10_15_7) AppleWebKit/605.1.15 (KHTML, like Gecko) Version/15.5 Safari/605.1.15",Word,0,z,0,11,11,28-08-22,28-08-22,13:22:51,0,0,0,0,0,691,3.6.1,6,231,753,m,491,1079,1728,24,1117,24,0,38,1728,1,odd,MacIntel,sleigh
92,92,560,trial,Mozilla,Netscape,"5.0 (Macintosh; Intel Mac OS X 10_15_7) AppleWebKit/605.1.15 (KHTML, like Gecko) Version/15.5 Safari/605.1.15",Word,1,z,0,12,12,28-08-22,28-08-22,13:22:51,0,0,0,0,0,691,3.6.1,5,231,753,z,683,1079,1728,24,1117,24,0,38,1728,1,odd,MacIntel,chute
93,93,555,trial,Mozilla,Netscape,"5.0 (Macintosh; Intel Mac OS X 10_15_7) AppleWebKit/605.1.15 (KHTML, like Gecko) Version/15.5 Safari/605.1.15",Word,1,z,0,13,13,28-08-22,28-08-22,13:22:51,0,0,0,0,0,691,3.6.1,6,231,753,z,486,1079,1728,24,1117,24,0,38,1728,1,odd,MacIntel,camera
87,87,548,trial,Mozilla,Netscape,"5.0 (Macintosh; Intel Mac OS X 10_15_7) AppleWebKit/605.1.15 (KHTML, like Gecko) Version/15.5 Safari/605.1.15",NW,0,m,0,14,14,28-08-22,28-08-22,13:22:51,0,0,0,0,0,691,3.6.1,5,231,753,z,452,1079,1728,24,1117,24,0,38,1728,1,odd,MacIntel,cound
88,88,549,trial,Mozilla,Netscape,"5.0 (Macintosh; Intel Mac OS X 10_15_7) AppleWebKit/605.1.15 (KHTML, like Gecko) Version/15.5 Safari/605.1.15",Word,1,z,0,15,15,28-08-22,28-08-22,13:22:51,0,0,0,0,0,691,3.6.1,5,231,753,z,563,1079,1728,24,1117,24,0,38,1728,1,odd,MacIntel,allow
88,88,560,trial,Mozilla,Netscape,"5.0 (Macintosh; Intel Mac OS X 10_15_7) AppleWebKit/605.1.15 (KHTML, like Gecko) Version/15.5 Safari/605.1.15",PH,1,m,0,16,16,28-08-22,28-08-22,13:22:51,0,0,0,0,0,691,3.6.1,4,231,753,m,745,1079,1728,24,1117,24,0,38,1728,1,odd,MacIntel,fite
89,89,559,trial,Mozilla,Netscape,"5.0 (Macintosh; Intel Mac OS X 10_15_7) AppleWebKit/605.1.15 (KHTML, like Gecko) Version/15.5 Safari/605.1.15",Word,1,z,0,17,17,28-08-22,28-08-22,13:22:51,0,0,0,0,0,691,3.6.1,6,231,753,z,534,1079,1728,24,1117,24,0,38,1728,1,odd,MacIntel,amount
89,89,561,trial,Mozilla,Netscape,"5.0 (Macintosh; Intel Mac OS X 10_15_7) AppleWebKit/605.1.15 (KHTML, like Gecko) Version/15.5 Safari/605.1.15",Word,1,z,0,18,18,28-08-22,28-08-22,13:22:51,0,0,0,0,0,691,3.6.1,7,231,753,z,606,1079,1728,24,1117,24,0,38,1728,1,odd,MacIntel,platter
90,90,563,trial,Mozilla,Netscape,"5.0 (Macintosh; Intel Mac OS X 10_15_7) AppleWebKit/605.1.15 (KHTML, like Gecko) Version/15.5 Safari/605.1.15",PH,1,m,0,19,19,28-08-22,28-08-22,13:22:51,0,0,0,0,0,691,3.6.1,6,231,753,m,606,1079,1728,24,1117,24,0,38,1728,1,odd,MacIntel,pleets
86,86,559,trial,Mozilla,Netscape,"5.0 (Macintosh; Intel Mac OS X 10_15_7) AppleWebKit/605.1.15 (KHTML, like Gecko) Version/15.5 Safari/605.1.15",PH,0,m,0,20,20,28-08-22,28-08-22,13:22:51,0,0,0,0,0,691,3.6.1,3,231,753,z,478,1079,1728,24,1117,24,0,38,1728,1,odd,MacIntel,rey
86,86,556,trial,Mozilla,Netscape,"5.0 (Macintosh; Intel Mac OS X 10_15_7) AppleWebKit/605.1.15 (KHTML, like Gecko) Version/15.5 Safari/605.1.15",Word,1,z,0,21,21,28-08-22,28-08-22,13:22:51,0,0,0,0,0,691,3.6.1,4,231,753,z,492,1079,1728,24,1117,24,0,38,1728,1,odd,MacIntel,miss
87,87,560,trial,Mozilla,Netscape,"5.0 (Macintosh; Intel Mac OS X 10_15_7) AppleWebKit/605.1.15 (KHTML, like Gecko) Version/15.5 Safari/605.1.15",Word,1,z,0,22,22,28-08-22,28-08-22,13:22:51,0,0,0,0,0,691,3.6.1,6,231,753,z,650,1079,1728,24,1117,24,0,38,1728,1,odd,MacIntel,enigma
88,88,559,trial,Mozilla,Netscape,"5.0 (Macintosh; Intel Mac OS X 10_15_7) AppleWebKit/605.1.15 (KHTML, like Gecko) Version/15.5 Safari/605.1.15",Word,1,z,0,23,23,28-08-22,28-08-22,13:22:51,0,0,0,0,0,691,3.6.1,5,231,753,z,524,1079,1728,24,1117,24,0,38,1728,1,odd,MacIntel,quart
88,88,556,trial,Mozilla,Netscape,"5.0 (Macintosh; Intel Mac OS X 10_15_7) AppleWebKit/605.1.15 (KHTML, like Gecko) Version/15.5 Safari/605.1.15",PH,1,m,0,24,24,28-08-22,28-08-22,13:22:51,0,0,0,0,0,691,3.6.1,5,231,753,m,485,1079,1728,24,1117,24,0,38,1728,1,odd,MacIntel,medes
88,88,554,trial,Mozilla,Netscape,"5.0 (Macintosh; Intel Mac OS X 10_15_7) AppleWebKit/605.1.15 (KHTML, like Gecko) Version/15.5 Safari/605.1.15",Word,1,z,0,25,25,28-08-22,28-08-22,13:22:51,0,0,0,0,0,691,3.6.1,4,231,753,z,513,1079,1728,24,1117,24,0,38,1728,1,odd,MacIntel,mean
85,85,551,trial,Mozilla,Netscape,"5.0 (Macintosh; Intel Mac OS X 10_15_7) AppleWebKit/605.1.15 (KHTML, like Gecko) Version/15.5 Safari/605.1.15",Word,0,z,0,26,26,28-08-22,28-08-22,13:22:51,0,0,0,0,0,691,3.6.1,5,231,753,m,462,1079,1728,24,1117,24,0,38,1728,1,odd,MacIntel,ghost
86,86,555,trial,Mozilla,Netscape,"5.0 (Macintosh; Intel Mac OS X 10_15_7) AppleWebKit/605.1.15 (KHTML, like Gecko) Version/15.5 Safari/605.1.15",Word,1,z,0,27,27,28-08-22,28-08-22,13:22:51,0,0,0,0,0,691,3.6.1,6,231,753,z,674,1079,1728,24,1117,24,0,38,1728,1,odd,MacIntel,misuse
86,86,554,trial,Mozilla,Netscape,"5.0 (Macintosh; Intel Mac OS X 10_15_7) AppleWebKit/605.1.15 (KHTML, like Gecko) Version/15.5 Safari/605.1.15",Word,1,z,0,28,28,28-08-22,28-08-22,13:22:51,0,0,0,0,0,691,3.6.1,6,231,753,z,520,1079,1728,24,1117,24,0,38,1728,1,odd,MacIntel,throat
87,87,558,trial,Mozilla,Netscape,"5.0 (Macintosh; Intel Mac OS X 10_15_7) AppleWebKit/605.1.15 (KHTML, like Gecko) Version/15.5 Safari/605.1.15",PH,1,m,0,29,29,28-08-22,28-08-22,13:22:51,0,0,0,0,0,691,3.6.1,7,231,753,m,665,1079,1728,24,1117,24,0,38,1728,1,odd,MacIntel,scoules
87,87,557,trial,Mozilla,Netscape,"5.0 (Macintosh; Intel Mac OS X 10_15_7) AppleWebKit/605.1.15 (KHTML, like Gecko) Version/15.5 Safari/605.1.15",NW,1,m,0,30,30,28-08-22,28-08-22,13:22:51,0,0,0,0,0,691,3.6.1,7,231,753,m,544,1079,1728,24,1117,24,0,38,1728,1,odd,MacIntel,rhourth
88,88,556,trial,Mozilla,Netscape,"5.0 (Macintosh; Intel Mac OS X 10_15_7) AppleWebKit/605.1.15 (KHTML, like Gecko) Version/15.5 Safari/605.1.15",Word,1,z,0,31,31,28-08-22,28-08-22,13:22:51,0,0,0,0,0,691,3.6.1,6,231,753,z,530,1079,1728,24,1117,24,0,38,1728,1,odd,MacIntel,victim
88,88,558,trial,Mozilla,Netscape,"5.0 (Macintosh; Intel Mac OS X 10_15_7) AppleWebKit/605.1.15 (KHTML, like Gecko) Version/15.5 Safari/605.1.15",NW,1,m,0,32,32,28-08-22,28-08-22,13:22:51,0,0,0,0,0,691,3.6.1,5,231,753,m,621,1079,1728,24,1117,24,0,38,1728,1,odd,MacIntel,tould
88,88,559,trial,Mozilla,Netscape,"5.0 (Macintosh; Intel Mac OS X 10_15_7) AppleWebKit/605.1.15 (KHTML, like Gecko) Version/15.5 Safari/605.1.15",NW,1,m,0,33,33,28-08-22,28-08-22,13:22:51,0,0,0,0,0,691,3.6.1,5,231,753,m,570,1079,1728,24,1117,24,0,38,1728,1,odd,MacIntel,bince
89,89,558,trial,Mozilla,Netscape,"5.0 (Macintosh; Intel Mac OS X 10_15_7) AppleWebKit/605.1.15 (KHTML, like Gecko) Version/15.5 Safari/605.1.15",Word,1,z,0,34,34,28-08-22,28-08-22,13:22:51,0,0,0,0,0,691,3.6.1,6,231,753,z,547,1079,1728,24,1117,24,0,38,1728,1,odd,MacIntel,salary
89,89,563,trial,Mozilla,Netscape,"5.0 (Macintosh; Intel Mac OS X 10_15_7) AppleWebKit/605.1.15 (KHTML, like Gecko) Version/15.5 Safari/605.1.15",PH,1,m,0,35,35,28-08-22,28-08-22,13:22:51,0,0,0,0,0,691,3.6.1,6,231,753,m,719,1079,1728,24,1117,24,0,38,1728,1,odd,MacIntel,skamps
89,89,562,trial,Mozilla,Netscape,"5.0 (Macintosh; Intel Mac OS X 10_15_7) AppleWebKit/605.1.15 (KHTML, like Gecko) Version/15.5 Safari/605.1.15",Word,1,z,0,36,36,28-08-22,28-08-22,13:22:51,0,0,0,0,0,691,3.6.1,3,231,753,z,521,1079,1728,24,1117,24,0,38,1728,1,odd,MacIntel,dog
89,89,562,trial,Mozilla,Netscape,"5.0 (Macintosh; Intel Mac OS X 10_15_7) AppleWebKit/605.1.15 (KHTML, like Gecko) Version/15.5 Safari/605.1.15",Word,1,z,0,37,37,28-08-22,28-08-22,13:22:51,0,0,0,0,0,691,3.6.1,4,231,753,z,559,1079,1728,24,1117,24,0,38,1728,1,odd,MacIntel,star
90,90,568,trial,Mozilla,Netscape,"5.0 (Macintosh; Intel Mac OS X 10_15_7) AppleWebKit/605.1.15 (KHTML, like Gecko) Version/15.5 Safari/605.1.15",PH,1,m,0,38,38,28-08-22,28-08-22,13:22:51,0,0,0,0,0,691,3.6.1,6,231,753,m,820,1079,1728,24,1117,24,0,38,1728,1,odd,MacIntel,graits
90,90,573,trial,Mozilla,Netscape,"5.0 (Macintosh; Intel Mac OS X 10_15_7) AppleWebKit/605.1.15 (KHTML, like Gecko) Version/15.5 Safari/605.1.15",NW,1,m,0,39,39,28-08-22,28-08-22,13:22:51,0,0,0,0,0,691,3.6.1,6,231,753,m,749,1079,1728,24,1117,24,0,38,1728,1,odd,MacIntel,gladge
90,90,572,trial,Mozilla,Netscape,"5.0 (Macintosh; Intel Mac OS X 10_15_7) AppleWebKit/605.1.15 (KHTML, like Gecko) Version/15.5 Safari/605.1.15",Word,1,z,0,40,40,28-08-22,28-08-22,13:22:51,0,0,0,0,0,691,3.6.1,6,231,753,z,552,1079,1728,24,1117,24,0,38,1728,1,odd,MacIntel,supper
90,90,572,trial,Mozilla,Netscape,"5.0 (Macintosh; Intel Mac OS X 10_15_7) AppleWebKit/605.1.15 (KHTML, like Gecko) Version/15.5 Safari/605.1.15",NW,1,m,0,41,41,28-08-22,28-08-22,13:22:51,0,0,0,0,0,691,3.6.1,4,231,753,m,571,1079,1728,24,1117,24,0,38,1728,1,odd,MacIntel,brud
91,91,575,trial,Mozilla,Netscape,"5.0 (Macintosh; Intel Mac OS X 10_15_7) AppleWebKit/605.1.15 (KHTML, like Gecko) Version/15.5 Safari/605.1.15",NW,1,m,0,42,42,28-08-22,28-08-22,13:22:51,0,0,0,0,0,691,3.6.1,6,231,753,m,709,1079,1728,24,1117,24,0,38,1728,1,odd,MacIntel,sturds
91,91,575,trial,Mozilla,Netscape,"5.0 (Macintosh; Intel Mac OS X 10_15_7) AppleWebKit/605.1.15 (KHTML, like Gecko) Version/15.5 Safari/605.1.15",Word,1,z,0,43,43,28-08-22,28-08-22,13:22:51,0,0,0,0,0,691,3.6.1,6,231,753,z,549,1079,1728,24,1117,24,0,38,1728,1,odd,MacIntel,scroll
91,91,580,trial,Mozilla,Netscape,"5.0 (Macintosh; Intel Mac OS X 10_15_7) AppleWebKit/605.1.15 (KHTML, like Gecko) Version/15.5 Safari/605.1.15",Word,1,z,0,44,44,28-08-22,28-08-22,13:22:51,0,0,0,0,0,691,3.6.1,6,231,753,z,823,1079,1728,24,1117,24,0,38,1728,1,odd,MacIntel,cuttle
91,91,581,trial,Mozilla,Netscape,"5.0 (Macintosh; Intel Mac OS X 10_15_7) AppleWebKit/605.1.15 (KHTML, like Gecko) Version/15.5 Safari/605.1.15",Word,1,z,0,45,45,28-08-22,28-08-22,13:22:51,0,0,0,0,0,691,3.6.1,6,231,753,z,601,1079,1728,24,1117,24,0,38,1728,1,odd,MacIntel,chapel
91,91,580,trial,Mozilla,Netscape,"5.0 (Macintosh; Intel Mac OS X 10_15_7) AppleWebKit/605.1.15 (KHTML, like Gecko) Version/15.5 Safari/605.1.15",NW,1,m,0,46,46,28-08-22,28-08-22,13:22:51,0,0,0,0,0,691,3.6.1,5,231,753,m,547,1079,1728,24,1117,24,0,38,1728,1,odd,MacIntel,fumps
92,92,580,trial,Mozilla,Netscape,"5.0 (Macintosh; Intel Mac OS X 10_15_7) AppleWebKit/605.1.15 (KHTML, like Gecko) Version/15.5 Safari/605.1.15",PH,1,m,0,47,47,28-08-22,28-08-22,13:22:51,0,0,0,0,0,691,3.6.1,5,231,753,m,564,1079,1728,24,1117,24,0,38,1728,1,odd,MacIntel,phete
92,92,582,trial,Mozilla,Netscape,"5.0 (Macintosh; Intel Mac OS X 10_15_7) AppleWebKit/605.1.15 (KHTML, like Gecko) Version/15.5 Safari/605.1.15",Word,1,z,0,48,48,28-08-22,28-08-22,13:22:51,0,0,0,0,0,691,3.6.1,5,231,753,z,691,1079,1728,24,1117,24,0,38,1728,1,odd,MacIntel,huzza
92,92,580,trial,Mozilla,Netscape,"5.0 (Macintosh; Intel Mac OS X 10_15_7) AppleWebKit/605.1.15 (KHTML, like Gecko) Version/15.5 Safari/605.1.15",Word,1,z,0,49,49,28-08-22,28-08-22,13:22:51,0,0,0,0,0,691,3.6.1,5,231,753,z,503,1079,1728,24,1117,24,0,38,1728,1,odd,MacIntel,globe
92,92,579,trial,Mozilla,Netscape,"5.0 (Macintosh; Intel Mac OS X 10_15_7) AppleWebKit/605.1.15 (KHTML, like Gecko) Version/15.5 Safari/605.1.15",Word,1,z,0,50,50,28-08-22,28-08-22,13:22:51,0,0,0,0,0,691,3.6.1,5,231,753,z,488,1079,1728,24,1117,24,0,38,1728,1,odd,MacIntel,table
92,92,579,trial,Mozilla,Netscape,"5.0 (Macintosh; Intel Mac OS X 10_15_7) AppleWebKit/605.1.15 (KHTML, like Gecko) Version/15.5 Safari/605.1.15",Word,1,z,0,51,51,28-08-22,28-08-22,13:22:51,0,0,0,0,0,691,3.6.1,6,231,753,z,604,1079,1728,24,1117,24,0,38,1728,1,odd,MacIntel,racket
92,92,578,trial,Mozilla,Netscape,"5.0 (Macintosh; Intel Mac OS X 10_15_7) AppleWebKit/605.1.15 (KHTML, like Gecko) Version/15.5 Safari/605.1.15",Word,1,z,0,52,52,28-08-22,28-08-22,13:22:51,0,0,0,0,0,691,3.6.1,3,231,753,z,508,1079,1728,24,1117,24,0,38,1728,1,odd,MacIntel,leg
93,93,578,trial,Mozilla,Netscape,"5.0 (Macintosh; Intel Mac OS X 10_15_7) AppleWebKit/605.1.15 (KHTML, like Gecko) Version/15.5 Safari/605.1.15",NW,1,m,0,53,53,28-08-22,28-08-22,13:22:51,0,0,0,0,0,691,3.6.1,6,231,753,m,616,1079,1728,24,1117,24,0,38,1728,1,odd,MacIntel,scrait
93,93,583,trial,Mozilla,Netscape,"5.0 (Macintosh; Intel Mac OS X 10_15_7) AppleWebKit/605.1.15 (KHTML, like Gecko) Version/15.5 Safari/605.1.15",NW,1,m,0,54,54,28-08-22,28-08-22,13:22:51,0,0,0,0,0,691,3.6.1,5,231,753,m,827,1079,1728,24,1117,24,0,38,1728,1,odd,MacIntel,chowl
93,93,582,trial,Mozilla,Netscape,"5.0 (Macintosh; Intel Mac OS X 10_15_7) AppleWebKit/605.1.15 (KHTML, like Gecko) Version/15.5 Safari/605.1.15",PH,1,m,0,55,55,28-08-22,28-08-22,13:22:51,0,0,0,0,0,691,3.6.1,5,231,753,m,553,1079,1728,24,1117,24,0,38,1728,1,odd,MacIntel,wurds
93,93,584,trial,Mozilla,Netscape,"5.0 (Macintosh; Intel Mac OS X 10_15_7) AppleWebKit/605.1.15 (KHTML, like Gecko) Version/15.5 Safari/605.1.15",Word,1,z,0,56,56,28-08-22,28-08-22,13:22:51,0,0,0,0,0,691,3.6.1,7,231,753,z,682,1079,1728,24,1117,24,0,38,1728,1,odd,MacIntel,blunder
93,93,586,trial,Mozilla,Netscape,"5.0 (Macintosh; Intel Mac OS X 10_15_7) AppleWebKit/605.1.15 (KHTML, like Gecko) Version/15.5 Safari/605.1.15",Word,1,z,0,57,57,28-08-22,28-08-22,13:22:51,0,0,0,0,0,691,3.6.1,6,231,753,z,695,1079,1728,24,1117,24,0,38,1728,1,odd,MacIntel,banana
93,93,586,trial,Mozilla,Netscape,"5.0 (Macintosh; Intel Mac OS X 10_15_7) AppleWebKit/605.1.15 (KHTML, like Gecko) Version/15.5 Safari/605.1.15",PH,1,m,0,58,58,28-08-22,28-08-22,13:22:51,0,0,0,0,0,691,3.6.1,5,231,753,m,578,1079,1728,24,1117,24,0,38,1728,1,odd,MacIntel,stais
93,93,586,trial,Mozilla,Netscape,"5.0 (Macintosh; Intel Mac OS X 10_15_7) AppleWebKit/605.1.15 (KHTML, like Gecko) Version/15.5 Safari/605.1.15",NW,1,m,0,59,59,28-08-22,28-08-22,13:22:51,0,0,0,0,0,691,3.6.1,6,231,753,m,580,1079,1728,24,1117,24,0,38,1728,1,odd,MacIntel,trynes
93,93,585,trial,Mozilla,Netscape,"5.0 (Macintosh; Intel Mac OS X 10_15_7) AppleWebKit/605.1.15 (KHTML, like Gecko) Version/15.5 Safari/605.1.15",Word,1,z,0,60,60,28-08-22,28-08-22,13:22:51,0,0,0,0,0,691,3.6.1,7,231,753,z,537,1079,1728,24,1117,24,0,38,1728,1,odd,MacIntel,ceiling
94,94,586,trial,Mozilla,Netscape,"5.0 (Macintosh; Intel Mac OS X 10_15_7) AppleWebKit/605.1.15 (KHTML, like Gecko) Version/15.5 Safari/605.1.15",NW,1,m,0,61,61,28-08-22,28-08-22,13:22:51,0,0,0,0,0,691,3.6.1,7,231,753,m,632,1079,1728,24,1117,24,0,38,1728,1,odd,MacIntel,thwilms
94,94,585,trial,Mozilla,Netscape,"5.0 (Macintosh; Intel Mac OS X 10_15_7) AppleWebKit/605.1.15 (KHTML, like Gecko) Version/15.5 Safari/605.1.15",Word,1,z,0,62,62,28-08-22,28-08-22,13:22:51,0,0,0,0,0,691,3.6.1,6,231,753,z,543,1079,1728,24,1117,24,0,38,1728,1,odd,MacIntel,salute
94,94,585,trial,Mozilla,Netscape,"5.0 (Macintosh; Intel Mac OS X 10_15_7) AppleWebKit/605.1.15 (KHTML, like Gecko) Version/15.5 Safari/605.1.15",NW,1,m,0,63,63,28-08-22,28-08-22,13:22:51,0,0,0,0,0,691,3.6.1,5,231,753,m,570,1079,1728,24,1117,24,0,38,1728,1,odd,MacIntel,psime
94,94,586,trial,Mozilla,Netscape,"5.0 (Macintosh; Intel Mac OS X 10_15_7) AppleWebKit/605.1.15 (KHTML, like Gecko) Version/15.5 Safari/605.1.15",PH,1,m,0,64,64,28-08-22,28-08-22,13:22:51,0,0,0,0,0,691,3.6.1,5,231,753,m,654,1079,1728,24,1117,24,0,38,1728,1,odd,MacIntel,maise
94,94,584,trial,Mozilla,Netscape,"5.0 (Macintosh; Intel Mac OS X 10_15_7) AppleWebKit/605.1.15 (KHTML, like Gecko) Version/15.5 Safari/605.1.15",PH,1,m,0,65,65,28-08-22,28-08-22,13:22:51,0,0,0,0,0,691,3.6.1,6,231,753,m,481,1079,1728,24,1117,24,0,38,1728,1,odd,MacIntel,fluick
94,94,584,trial,Mozilla,Netscape,"5.0 (Macintosh; Intel Mac OS X 10_15_7) AppleWebKit/605.1.15 (KHTML, like Gecko) Version/15.5 Safari/605.1.15",Word,1,z,0,66,66,28-08-22,28-08-22,13:22:51,0,0,0,0,0,691,3.6.1,4,231,753,z,568,1079,1728,24,1117,24,0,38,1728,1,odd,MacIntel,flow
94,94,584,trial,Mozilla,Netscape,"5.0 (Macintosh; Intel Mac OS X 10_15_7) AppleWebKit/605.1.15 (KHTML, like Gecko) Version/15.5 Safari/605.1.15",PH,1,m,0,67,67,28-08-22,28-08-22,13:22:51,0,0,0,0,0,691,3.6.1,4,231,753,m,567,1079,1728,24,1117,24,0,38,1728,1,odd,MacIntel,spue
94,94,585,trial,Mozilla,Netscape,"5.0 (Macintosh; Intel Mac OS X 10_15_7) AppleWebKit/605.1.15 (KHTML, like Gecko) Version/15.5 Safari/605.1.15",NW,1,m,0,68,68,28-08-22,28-08-22,13:22:51,0,0,0,0,0,691,3.6.1,6,231,753,m,659,1079,1728,24,1117,24,0,38,1728,1,odd,MacIntel,sleens
94,94,583,trial,Mozilla,Netscape,"5.0 (Macintosh; Intel Mac OS X 10_15_7) AppleWebKit/605.1.15 (KHTML, like Gecko) Version/15.5 Safari/605.1.15",NW,1,m,0,69,69,28-08-22,28-08-22,13:22:51,0,0,0,0,0,691,3.6.1,3,231,753,m,478,1079,1728,24,1117,24,0,38,1728,1,odd,MacIntel,cem
94,94,585,trial,Mozilla,Netscape,"5.0 (Macintosh; Intel Mac OS X 10_15_7) AppleWebKit/605.1.15 (KHTML, like Gecko) Version/15.5 Safari/605.1.15",NW,1,m,0,70,70,28-08-22,28-08-22,13:22:51,0,0,0,0,0,691,3.6.1,6,231,753,m,719,1079,1728,24,1117,24,0,38,1728,1,odd,MacIntel,thwams
94,94,585,trial,Mozilla,Netscape,"5.0 (Macintosh; Intel Mac OS X 10_15_7) AppleWebKit/605.1.15 (KHTML, like Gecko) Version/15.5 Safari/605.1.15",PH,1,m,0,71,71,28-08-22,28-08-22,13:22:51,0,0,0,0,0,691,3.6.1,6,231,753,m,541,1079,1728,24,1117,24,0,38,1728,1,odd,MacIntel,rhaque
95,95,584,trial,Mozilla,Netscape,"5.0 (Macintosh; Intel Mac OS X 10_15_7) AppleWebKit/605.1.15 (KHTML, like Gecko) Version/15.5 Safari/605.1.15",Word,1,z,0,72,72,28-08-22,28-08-22,13:22:51,0,0,0,0,0,691,3.6.1,6,231,753,z,531,1079,1728,24,1117,24,0,38,1728,1,odd,MacIntel,punish
95,95,583,trial,Mozilla,Netscape,"5.0 (Macintosh; Intel Mac OS X 10_15_7) AppleWebKit/605.1.15 (KHTML, like Gecko) Version/15.5 Safari/605.1.15",Word,1,z,0,73,73,28-08-22,28-08-22,13:22:51,0,0,0,0,0,691,3.6.1,6,231,753,z,495,1079,1728,24,1117,24,0,38,1728,1,odd,MacIntel,dollar
95,95,582,trial,Mozilla,Netscape,"5.0 (Macintosh; Intel Mac OS X 10_15_7) AppleWebKit/605.1.15 (KHTML, like Gecko) Version/15.5 Safari/605.1.15",PH,1,m,0,74,74,28-08-22,28-08-22,13:22:51,0,0,0,0,0,691,3.6.1,6,231,753,m,536,1079,1728,24,1117,24,0,38,1728,1,odd,MacIntel,phlize
95,95,583,trial,Mozilla,Netscape,"5.0 (Macintosh; Intel Mac OS X 10_15_7) AppleWebKit/605.1.15 (KHTML, like Gecko) Version/15.5 Safari/605.1.15",Word,1,z,0,75,75,28-08-22,28-08-22,13:22:51,0,0,0,0,0,691,3.6.1,6,231,753,z,631,1079,1728,24,1117,24,0,38,1728,1,odd,MacIntel,ginger
95,95,584,trial,Mozilla,Netscape,"5.0 (Macintosh; Intel Mac OS X 10_15_7) AppleWebKit/605.1.15 (KHTML, like Gecko) Version/15.5 Safari/605.1.15",Word,1,z,0,76,76,28-08-22,28-08-22,13:22:51,0,0,0,0,0,691,3.6.1,3,231,753,z,663,1079,1728,24,1117,24,0,38,1728,1,odd,MacIntel,ram
95,95,582,trial,Mozilla,Netscape,"5.0 (Macintosh; Intel Mac OS X 10_15_7) AppleWebKit/605.1.15 (KHTML, like Gecko) Version/15.5 Safari/605.1.15",Word,1,z,0,77,77,28-08-22,28-08-22,13:22:51,0,0,0,0,0,691,3.6.1,7,231,753,z,473,1079,1728,24,1117,24,0,38,1728,1,odd,MacIntel,dungeon
95,95,582,trial,Mozilla,Netscape,"5.0 (Macintosh; Intel Mac OS X 10_15_7) AppleWebKit/605.1.15 (KHTML, like Gecko) Version/15.5 Safari/605.1.15",NW,1,m,0,78,78,28-08-22,28-08-22,13:22:51,0,0,0,0,0,691,3.6.1,6,231,753,m,567,1079,1728,24,1117,24,0,38,1728,1,odd,MacIntel,fradge
95,95,582,trial,Mozilla,Netscape,"5.0 (Macintosh; Intel Mac OS X 10_15_7) AppleWebKit/605.1.15 (KHTML, like Gecko) Version/15.5 Safari/605.1.15",Word,1,z,0,79,79,28-08-22,28-08-22,13:22:51,0,0,0,0,0,691,3.6.1,6,231,753,z,546,1079,1728,24,1117,24,0,38,1728,1,odd,MacIntel,spirit
95,95,582,trial,Mozilla,Netscape,"5.0 (Macintosh; Intel Mac OS X 10_15_7) AppleWebKit/605.1.15 (KHTML, like Gecko) Version/15.5 Safari/605.1.15",Word,1,z,0,80,80,28-08-22,28-08-22,13:22:51,0,0,0,0,0,691,3.6.1,7,231,753,z,628,1079,1728,24,1117,24,0,38,1728,1,odd,MacIntel,tarnish
95,95,584,trial,Mozilla,Netscape,"5.0 (Macintosh; Intel Mac OS X 10_15_7) AppleWebKit/605.1.15 (KHTML, like Gecko) Version/15.5 Safari/605.1.15",Word,1,z,0,81,81,28-08-22,28-08-22,13:22:51,0,0,0,0,0,691,3.6.1,5,231,753,z,719,1079,1728,24,1117,24,0,38,1728,1,odd,MacIntel,brake
95,95,583,trial,Mozilla,Netscape,"5.0 (Macintosh; Intel Mac OS X 10_15_7) AppleWebKit/605.1.15 (KHTML, like Gecko) Version/15.5 Safari/605.1.15",PH,1,m,0,82,82,28-08-22,28-08-22,13:22:51,0,0,0,0,0,691,3.6.1,4,231,753,m,499,1079,1728,24,1117,24,0,38,1728,1,odd,MacIntel,wure
95,95,584,trial,Mozilla,Netscape,"5.0 (Macintosh; Intel Mac OS X 10_15_7) AppleWebKit/605.1.15 (KHTML, like Gecko) Version/15.5 Safari/605.1.15",PH,1,m,0,83,83,28-08-22,28-08-22,13:22:51,0,0,0,0,0,691,3.6.1,7,231,753,m,635,1079,1728,24,1117,24,0,38,1728,1,odd,MacIntel,ghoards
95,95,584,trial,Mozilla,Netscape,"5.0 (Macintosh; Intel Mac OS X 10_15_7) AppleWebKit/605.1.15 (KHTML, like Gecko) Version/15.5 Safari/605.1.15",Word,1,z,0,84,84,28-08-22,28-08-22,13:22:51,0,0,0,0,0,691,3.6.1,5,231,753,z,581,1079,1728,24,1117,24,0,38,1728,1,odd,MacIntel,baron
95,95,583,trial,Mozilla,Netscape,"5.0 (Macintosh; Intel Mac OS X 10_15_7) AppleWebKit/605.1.15 (KHTML, like Gecko) Version/15.5 Safari/605.1.15",Word,1,z,0,85,85,28-08-22,28-08-22,13:22:51,0,0,0,0,0,691,3.6.1,4,231,753,z,537,1079,1728,24,1117,24,0,38,1728,1,odd,MacIntel,turn
95,95,583,trial,Mozilla,Netscape,"5.0 (Macintosh; Intel Mac OS X 10_15_7) AppleWebKit/605.1.15 (KHTML, like Gecko) Version/15.5 Safari/605.1.15",NW,1,m,0,86,86,28-08-22,28-08-22,13:22:51,0,0,0,0,0,691,3.6.1,6,231,753,m,613,1079,1728,24,1117,24,0,38,1728,1,odd,MacIntel,snafes
95,95,583,trial,Mozilla,Netscape,"5.0 (Macintosh; Intel Mac OS X 10_15_7) AppleWebKit/605.1.15 (KHTML, like Gecko) Version/15.5 Safari/605.1.15",Word,1,z,0,87,87,28-08-22,28-08-22,13:22:51,0,0,0,0,0,691,3.6.1,7,231,753,z,553,1079,1728,24,1117,24,0,38,1728,1,odd,MacIntel,chuckle
96,96,583,trial,Mozilla,Netscape,"5.0 (Macintosh; Intel Mac OS X 10_15_7) AppleWebKit/605.1.15 (KHTML, like Gecko) Version/15.5 Safari/605.1.15",PH,1,m,0,88,88,28-08-22,28-08-22,13:22:51,0,0,0,0,0,691,3.6.1,6,231,753,m,615,1079,1728,24,1117,24,0,38,1728,1,odd,MacIntel,whased
96,96,583,trial,Mozilla,Netscape,"5.0 (Macintosh; Intel Mac OS X 10_15_7) AppleWebKit/605.1.15 (KHTML, like Gecko) Version/15.5 Safari/605.1.15",Word,1,z,0,89,89,28-08-22,28-08-22,13:22:51,0,0,0,0,0,691,3.6.1,5,231,753,z,544,1079,1728,24,1117,24,0,38,1728,1,odd,MacIntel,blush
96,96,582,trial,Mozilla,Netscape,"5.0 (Macintosh; Intel Mac OS X 10_15_7) AppleWebKit/605.1.15 (KHTML, like Gecko) Version/15.5 Safari/605.1.15",NW,1,m,0,90,90,28-08-22,28-08-22,13:22:51,0,0,0,0,0,691,3.6.1,7,231,753,m,510,1079,1728,24,1117,24,0,38,1728,1,odd,MacIntel,whurfed
96,96,583,trial,Mozilla,Netscape,"5.0 (Macintosh; Intel Mac OS X 10_15_7) AppleWebKit/605.1.15 (KHTML, like Gecko) Version/15.5 Safari/605.1.15",Word,1,z,0,91,91,28-08-22,28-08-22,13:22:51,0,0,0,0,0,691,3.6.1,7,231,753,z,628,1079,1728,24,1117,24,0,38,1728,1,odd,MacIntel,embrace
96,96,584,trial,Mozilla,Netscape,"5.0 (Macintosh; Intel Mac OS X 10_15_7) AppleWebKit/605.1.15 (KHTML, like Gecko) Version/15.5 Safari/605.1.15",Word,1,z,0,92,92,28-08-22,28-08-22,13:22:51,0,0,0,0,0,691,3.6.1,3,231,753,z,723,1079,1728,24,1117,24,0,38,1728,1,odd,MacIntel,bib
96,96,584,trial,Mozilla,Netscape,"5.0 (Macintosh; Intel Mac OS X 10_15_7) AppleWebKit/605.1.15 (KHTML, like Gecko) Version/15.5 Safari/605.1.15",NW,1,m,0,93,93,28-08-22,28-08-22,13:22:51,0,0,0,0,0,691,3.6.1,4,231,753,m,598,1079,1728,24,1117,24,0,38,1728,1,odd,MacIntel,kirm
96,96,585,trial,Mozilla,Netscape,"5.0 (Macintosh; Intel Mac OS X 10_15_7) AppleWebKit/605.1.15 (KHTML, like Gecko) Version/15.5 Safari/605.1.15",PH,1,m,0,94,94,28-08-22,28-08-22,13:22:51,0,0,0,0,0,691,3.6.1,6,231,753,m,694,1079,1728,24,1117,24,0,38,1728,1,odd,MacIntel,dropse
96,96,585,trial,Mozilla,Netscape,"5.0 (Macintosh; Intel Mac OS X 10_15_7) AppleWebKit/605.1.15 (KHTML, like Gecko) Version/15.5 Safari/605.1.15",PH,1,m,0,95,95,28-08-22,28-08-22,13:22:51,0,0,0,0,0,691,3.6.1,6,231,753,m,572,1079,1728,24,1117,24,0,38,1728,1,odd,MacIntel,chured
96,96,585,trial,Mozilla,Netscape,"5.0 (Macintosh; Intel Mac OS X 10_15_7) AppleWebKit/605.1.15 (KHTML, like Gecko) Version/15.5 Safari/605.1.15",Word,1,z,0,96,96,28-08-22,28-08-22,13:22:51,0,0,0,0,0,691,3.6.1,6,231,753,z,549,1079,1728,24,1117,24,0,38,1728,1,odd,MacIntel,thrill
96,96,585,trial,Mozilla,Netscape,"5.0 (Macintosh; Intel Mac OS X 10_15_7) AppleWebKit/605.1.15 (KHTML, like Gecko) Version/15.5 Safari/605.1.15",PH,1,m,0,97,97,28-08-22,28-08-22,13:22:51,0,0,0,0,0,691,3.6.1,5,231,753,m,622,1079,1728,24,1117,24,0,38,1728,1,odd,MacIntel,phley
96,96,585,trial,Mozilla,Netscape,"5.0 (Macintosh; Intel Mac OS X 10_15_7) AppleWebKit/605.1.15 (KHTML, like Gecko) Version/15.5 Safari/605.1.15",Word,1,z,0,98,98,28-08-22,28-08-22,13:22:51,0,0,0,0,0,691,3.6.1,5,231,753,z,560,1079,1728,24,1117,24,0,38,1728,1,odd,MacIntel,break
96,96,587,trial,Mozilla,Netscape,"5.0 (Macintosh; Intel Mac OS X 10_15_7) AppleWebKit/605.1.15 (KHTML, like Gecko) Version/15.5 Safari/605.1.15",NW,1,m,0,99,99,28-08-22,28-08-22,13:22:51,0,0,0,0,0,691,3.6.1,4,231,753,m,823,1079,1728,24,1117,24,0,38,1728,1,odd,MacIntel,twom
0,0,5015,trial,Mozilla,Netscape,"5.0 (Macintosh; Intel Mac OS X 10_15_7) AppleWebKit/605.1.15 (KHTML, like Gecko) Version/15.5 Safari/605.1.15",Word,0,z,0,99,99,28-08-22,28-08-22,13:22:51,0,0,0,0,0,691,3.6.1,4,231,753,m,5015,1079,1728,24,1117,24,0,38,1728,1,odd,MacIntel,wary
0,0,5012,trial,Mozilla,Netscape,"5.0 (Macintosh; Intel Mac OS X 10_15_7) AppleWebKit/605.1.15 (KHTML, like Gecko) Version/15.5 Safari/605.1.15",PH,0,m,0,99,99,28-08-22,28-08-22,13:22:51,0,0,0,0,0,691,3.6.1,3,231,753,m,5008,1079,1728,24,1117,24,0,38,1728,1,odd,MacIntel,oad
33,33,3655,trial,Mozilla,Netscape,"5.0 (Macintosh; Intel Mac OS X 10_15_7) AppleWebKit/605.1.15 (KHTML, like Gecko) Version/15.5 Safari/605.1.15",NW,1,m,0,99,99,28-08-22,28-08-22,13:22:51,0,0,0,0,0,691,3.6.1,6,231,753,m,942,1079,1728,24,1117,24,0,38,1728,1,odd,MacIntel,whotes
50,50,3010,trial,Mozilla,Netscape,"5.0 (Macintosh; Intel Mac OS X 10_15_7) AppleWebKit/605.1.15 (KHTML, like Gecko) Version/15.5 Safari/605.1.15",Word,1,z,0,99,99,28-08-22,28-08-22,13:22:51,0,0,0,0,0,691,3.6.1,4,231,753,m,1075,1079,1728,24,1117,24,0,38,1728,1,odd,MacIntel,zone
60,60,2542,trial,Mozilla,Netscape,"5.0 (Macintosh; Intel Mac OS X 10_15_7) AppleWebKit/605.1.15 (KHTML, like Gecko) Version/15.5 Safari/605.1.15",NW,1,m,0,99,99,28-08-22,28-08-22,13:22:51,0,0,0,0,0,691,3.6.1,5,231,753,m,672,1079,1728,24,1117,24,0,38,1728,1,odd,MacIntel,pilms
67,67,2234,trial,Mozilla,Netscape,"5.0 (Macintosh; Intel Mac OS X 10_15_7) AppleWebKit/605.1.15 (KHTML, like Gecko) Version/15.5 Safari/605.1.15",Word,1,z,0,99,99,28-08-22,28-08-22,13:22:51,0,0,0,0,0,691,3.6.1,4,231,753,m,692,1079,1728,24,1117,24,0,38,1728,1,odd,MacIntel,sine
71,71,1996,trial,Mozilla,Netscape,"5.0 (Macintosh; Intel Mac OS X 10_15_7) AppleWebKit/605.1.15 (KHTML, like Gecko) Version/15.5 Safari/605.1.15",Word,1,z,0,99,99,28-08-22,28-08-22,13:22:51,0,0,0,0,0,691,3.6.1,4,231,753,m,568,1079,1728,24,1117,24,0,38,1728,1,odd,MacIntel,soft
75,75,1842,trial,Mozilla,Netscape,"5.0 (Macintosh; Intel Mac OS X 10_15_7) AppleWebKit/605.1.15 (KHTML, like Gecko) Version/15.5 Safari/605.1.15",NW,1,m,0,99,99,28-08-22,28-08-22,13:22:51,0,0,0,0,0,691,3.6.1,7,231,753,m,767,1079,1728,24,1117,24,0,38,1728,1,odd,MacIntel,spreals
78,78,1710,trial,Mozilla,Netscape,"5.0 (Macintosh; Intel Mac OS X 10_15_7) AppleWebKit/605.1.15 (KHTML, like Gecko) Version/15.5 Safari/605.1.15",Word,1,z,0,99,99,28-08-22,28-08-22,13:22:51,0,0,0,0,0,691,3.6.1,5,231,753,m,655,1079,1728,24,1117,24,0,38,1728,1,odd,MacIntel,grove
80,80,1594,trial,Mozilla,Netscape,"5.0 (Macintosh; Intel Mac OS X 10_15_7) AppleWebKit/605.1.15 (KHTML, like Gecko) Version/15.5 Safari/605.1.15",Word,1,z,0,99,99,28-08-22,28-08-22,13:22:51,0,0,0,0,0,691,3.6.1,4,231,753,m,542,1079,1728,24,1117,24,0,38,1728,1,odd,MacIntel,blow
82,82,1502,trial,Mozilla,Netscape,"5.0 (Macintosh; Intel Mac OS X 10_15_7) AppleWebKit/605.1.15 (KHTML, like Gecko) Version/15.5 Safari/605.1.15",NW,1,m,0,99,99,28-08-22,28-08-22,13:22:51,0,0,0,0,0,691,3.6.1,4,231,753,m,586,1079,1728,24,1117,24,0,38,1728,1,odd,MacIntel,cupe
83,83,1422,trial,Mozilla,Netscape,"5.0 (Macintosh; Intel Mac OS X 10_15_7) AppleWebKit/605.1.15 (KHTML, like Gecko) Version/15.5 Safari/605.1.15",Word,1,z,0,99,99,28-08-22,28-08-22,13:22:51,0,0,0,0,0,691,3.6.1,5,231,753,m,543,1079,1728,24,1117,24,0,38,1728,1,odd,MacIntel,cloak
85,85,1354,trial,Mozilla,Netscape,"5.0 (Macintosh; Intel Mac OS X 10_15_7) AppleWebKit/605.1.15 (KHTML, like Gecko) Version/15.5 Safari/605.1.15",PH,1,m,0,99,99,28-08-22,28-08-22,13:22:51,0,0,0,0,0,691,3.6.1,5,231,753,m,541,1079,1728,24,1117,24,0,38,1728,1,odd,MacIntel,cuild
86,86,1294,trial,Mozilla,Netscape,"5.0 (Macintosh; Intel Mac OS X 10_15_7) AppleWebKit/605.1.15 (KHTML, like Gecko) Version/15.5 Safari/605.1.15",Word,1,z,0,99,99,28-08-22,28-08-22,13:22:51,0,0,0,0,0,691,3.6.1,7,231,753,m,513,1079,1728,24,1117,24,0,38,1728,1,odd,MacIntel,newborn
87,87,1241,trial,Mozilla,Netscape,"5.0 (Macintosh; Intel Mac OS X 10_15_7) AppleWebKit/605.1.15 (KHTML, like Gecko) Version/15.5 Safari/605.1.15",NW,1,m,0,99,99,28-08-22,28-08-22,13:22:51,0,0,0,0,0,691,3.6.1,4,231,753,m,496,1079,1728,24,1117,24,0,38,1728,1,odd,MacIntel,dwut
88,88,1208,trial,Mozilla,Netscape,"5.0 (Macintosh; Intel Mac OS X 10_15_7) AppleWebKit/605.1.15 (KHTML, like Gecko) Version/15.5 Safari/605.1.15",PH,1,m,0,99,99,28-08-22,28-08-22,13:22:51,0,0,0,0,0,691,3.6.1,3,231,753,m,711,1079,1728,24,1117,24,0,38,1728,1,odd,MacIntel,orl
88,88,1201,trial,Mozilla,Netscape,"5.0 (Macintosh; Intel Mac OS X 10_15_7) AppleWebKit/605.1.15 (KHTML, like Gecko) Version/15.5 Safari/605.1.15",Word,1,z,0,99,99,28-08-22,28-08-22,13:22:51,0,0,0,0,0,691,3.6.1,3,231,753,m,1095,1079,1728,24,1117,24,0,38,1728,1,odd,MacIntel,lax
89,89,1167,trial,Mozilla,Netscape,"5.0 (Macintosh; Intel Mac OS X 10_15_7) AppleWebKit/605.1.15 (KHTML, like Gecko) Version/15.5 Safari/605.1.15",PH,1,m,0,99,99,28-08-22,28-08-22,13:22:51,0,0,0,0,0,691,3.6.1,5,231,753,m,583,1079,1728,24,1117,24,0,38,1728,1,odd,MacIntel,gnone
89,89,1136,trial,Mozilla,Netscape,"5.0 (Macintosh; Intel Mac OS X 10_15_7) AppleWebKit/605.1.15 (KHTML, like Gecko) Version/15.5 Safari/605.1.15",NW,1,m,0,99,99,28-08-22,28-08-22,13:22:51,0,0,0,0,0,691,3.6.1,6,231,753,m,575,1079,1728,24,1117,24,0,38,1728,1,odd,MacIntel,threbs
90,90,1110,trial,Mozilla,Netscape,"5.0 (Macintosh; Intel Mac OS X 10_15_7) AppleWebKit/605.1.15 (KHTML, like Gecko) Version/15.5 Safari/605.1.15",PH,1,m,0,99,99,28-08-22,28-08-22,13:22:51,0,0,0,0,0,691,3.6.1,6,231,753,m,617,1079,1728,24,1117,24,0,38,1728,1,odd,MacIntel,chaist
90,90,1084,trial,Mozilla,Netscape,"5.0 (Macintosh; Intel Mac OS X 10_15_7) AppleWebKit/605.1.15 (KHTML, like Gecko) Version/15.5 Safari/605.1.15",PH,1,m,0,99,99,28-08-22,28-08-22,13:22:51,0,0,0,0,0,691,3.6.1,6,231,753,m,567,1079,1728,24,1117,24,0,38,1728,1,odd,MacIntel,whefts
91,91,1060,trial,Mozilla,Netscape,"5.0 (Macintosh; Intel Mac OS X 10_15_7) AppleWebKit/605.1.15 (KHTML, like Gecko) Version/15.5 Safari/605.1.15",PH,1,m,0,99,99,28-08-22,28-08-22,13:22:51,0,0,0,0,0,691,3.6.1,5,231,753,m,563,1079,1728,24,1117,24,0,38,1728,1,odd,MacIntel,wurnt
91,91,1049,trial,Mozilla,Netscape,"5.0 (Macintosh; Intel Mac OS X 10_15_7) AppleWebKit/605.1.15 (KHTML, like Gecko) Version/15.5 Safari/605.1.15",Word,1,z,0,99,99,28-08-22,28-08-22,13:22:51,0,0,0,0,0,691,3.6.1,7,231,753,m,796,1079,1728,24,1117,24,0,38,1728,1,odd,MacIntel,arbiter
92,92,1032,trial,Mozilla,Netscape,"5.0 (Macintosh; Intel Mac OS X 10_15_7) AppleWebKit/605.1.15 (KHTML, like Gecko) Version/15.5 Safari/605.1.15",Word,1,z,0,99,99,28-08-22,28-08-22,13:22:51,0,0,0,0,0,691,3.6.1,4,231,753,m,634,1079,1728,24,1117,24,0,38,1728,1,odd,MacIntel,fane
92,92,1018,trial,Mozilla,Netscape,"5.0 (Macintosh; Intel Mac OS X 10_15_7) AppleWebKit/605.1.15 (KHTML, like Gecko) Version/15.5 Safari/605.1.15",Word,1,z,0,99,99,28-08-22,28-08-22,13:22:51,0,0,0,0,0,691,3.6.1,4,231,753,m,695,1079,1728,24,1117,24,0,38,1728,1,odd,MacIntel,welt
92,92,1002,trial,Mozilla,Netscape,"5.0 (Macintosh; Intel Mac OS X 10_15_7) AppleWebKit/605.1.15 (KHTML, like Gecko) Version/15.5 Safari/605.1.15",NW,1,m,0,99,99,28-08-22,28-08-22,13:22:51,0,0,0,0,0,691,3.6.1,5,231,753,m,601,1079,1728,24,1117,24,0,38,1728,1,odd,MacIntel,dunds
93,93,983,trial,Mozilla,Netscape,"5.0 (Macintosh; Intel Mac OS X 10_15_7) AppleWebKit/605.1.15 (KHTML, like Gecko) Version/15.5 Safari/605.1.15",NW,1,m,0,99,99,28-08-22,28-08-22,13:22:51,0,0,0,0,0,691,3.6.1,6,231,753,m,496,1079,1728,24,1117,24,0,38,1728,1,odd,MacIntel,knults
93,93,971,trial,Mozilla,Netscape,"5.0 (Macintosh; Intel Mac OS X 10_15_7) AppleWebKit/605.1.15 (KHTML, like Gecko) Version/15.5 Safari/605.1.15",Word,1,z,0,99,99,28-08-22,28-08-22,13:22:51,0,0,0,0,0,691,3.6.1,4,231,753,m,649,1079,1728,24,1117,24,0,38,1728,1,odd,MacIntel,haul
93,93,963,trial,Mozilla,Netscape,"5.0 (Macintosh; Intel Mac OS X 10_15_7) AppleWebKit/605.1.15 (KHTML, like Gecko) Version/15.5 Safari/605.1.15",PH,1,m,0,99,99,28-08-22,28-08-22,13:22:51,0,0,0,0,0,691,3.6.1,6,231,753,m,729,1079,1728,24,1117,24,0,38,1728,1,odd,MacIntel,beaves
90,90,1063,trial,Mozilla,Netscape,"5.0 (Macintosh; Intel Mac OS X 10_15_7) AppleWebKit/605.1.15 (KHTML, like Gecko) Version/15.5 Safari/605.1.15",Word,0,z,0,99,99,28-08-22,28-08-22,13:22:51,0,0,0,0,0,691,3.6.1,5,231,753,m,3966,1079,1728,24,1117,24,0,38,1728,1,odd,MacIntel,wrack
90,90,1052,trial,Mozilla,Netscape,"5.0 (Macintosh; Intel Mac OS X 10_15_7) AppleWebKit/605.1.15 (KHTML, like Gecko) Version/15.5 Safari/605.1.15",NW,1,m,0,99,99,28-08-22,28-08-22,13:22:51,0,0,0,0,0,691,3.6.1,4,231,753,m,707,1079,1728,24,1117,24,0,38,1728,1,odd,MacIntel,yows
91,91,1039,trial,Mozilla,Netscape,"5.0 (Macintosh; Intel Mac OS X 10_15_7) AppleWebKit/605.1.15 (KHTML, like Gecko) Version/15.5 Safari/605.1.15",NW,1,m,0,99,99,28-08-22,28-08-22,13:22:51,0,0,0,0,0,691,3.6.1,4,231,753,m,653,1079,1728,24,1117,24,0,38,1728,1,odd,MacIntel,parn
91,91,1027,trial,Mozilla,Netscape,"5.0 (Macintosh; Intel Mac OS X 10_15_7) AppleWebKit/605.1.15 (KHTML, like Gecko) Version/15.5 Safari/605.1.15",Word,1,z,0,99,99,28-08-22,28-08-22,13:22:51,0,0,0,0,0,691,3.6.1,5,231,753,m,633,1079,1728,24,1117,24,0,38,1728,1,odd,MacIntel,pupil
91,91,1014,trial,Mozilla,Netscape,"5.0 (Macintosh; Intel Mac OS X 10_15_7) AppleWebKit/605.1.15 (KHTML, like Gecko) Version/15.5 Safari/605.1.15",Word,1,z,0,99,99,28-08-22,28-08-22,13:22:51,0,0,0,0,0,691,3.6.1,5,231,753,m,576,1079,1728,24,1117,24,0,38,1728,1,odd,MacIntel,tiger
91,91,998,trial,Mozilla,Netscape,"5.0 (Macintosh; Intel Mac OS X 10_15_7) AppleWebKit/605.1.15 (KHTML, like Gecko) Version/15.5 Safari/605.1.15",Word,1,z,0,99,99,28-08-22,28-08-22,13:22:51,0,0,0,0,0,691,3.6.1,6,231,753,m,456,1079,1728,24,1117,24,0,38,1728,1,odd,MacIntel,orange
92,92,990,trial,Mozilla,Netscape,"5.0 (Macintosh; Intel Mac OS X 10_15_7) AppleWebKit/605.1.15 (KHTML, like Gecko) Version/15.5 Safari/605.1.15",PH,1,m,0,99,99,28-08-22,28-08-22,13:22:51,0,0,0,0,0,691,3.6.1,5,231,753,m,720,1079,1728,24,1117,24,0,38,1728,1,odd,MacIntel,kubed
92,92,1000,trial,Mozilla,Netscape,"5.0 (Macintosh; Intel Mac OS X 10_15_7) AppleWebKit/605.1.15 (KHTML, like Gecko) Version/15.5 Safari/605.1.15",Word,1,z,0,99,99,28-08-22,28-08-22,13:22:51,0,0,0,0,0,691,3.6.1,6,231,753,m,1377,1079,1728,24,1117,24,0,38,1728,1,odd,MacIntel,puddle
92,92,989,trial,Mozilla,Netscape,"5.0 (Macintosh; Intel Mac OS X 10_15_7) AppleWebKit/605.1.15 (KHTML, like Gecko) Version/15.5 Safari/605.1.15",Word,1,z,0,99,99,28-08-22,28-08-22,13:22:51,0,0,0,0,0,691,3.6.1,7,231,753,m,564,1079,1728,24,1117,24,0,38,1728,1,odd,MacIntel,charter
92,92,979,trial,Mozilla,Netscape,"5.0 (Macintosh; Intel Mac OS X 10_15_7) AppleWebKit/605.1.15 (KHTML, like Gecko) Version/15.5 Safari/605.1.15",NW,1,m,0,99,99,28-08-22,28-08-22,13:22:51,0,0,0,0,0,691,3.6.1,5,231,753,m,622,1079,1728,24,1117,24,0,38,1728,1,odd,MacIntel,tadds
93,93,974,trial,Mozilla,Netscape,"5.0 (Macintosh; Intel Mac OS X 10_15_7) AppleWebKit/605.1.15 (KHTML, like Gecko) Version/15.5 Safari/605.1.15",PH,1,m,0,99,99,28-08-22,28-08-22,13:22:51,0,0,0,0,0,691,3.6.1,4,231,753,m,757,1079,1728,24,1117,24,0,38,1728,1,odd,MacIntel,berd
93,93,963,trial,Mozilla,Netscape,"5.0 (Macintosh; Intel Mac OS X 10_15_7) AppleWebKit/605.1.15 (KHTML, like Gecko) Version/15.5 Safari/605.1.15",Word,1,z,0,99,99,28-08-22,28-08-22,13:22:51,0,0,0,0,0,691,3.6.1,6,231,753,m,515,1079,1728,24,1117,24,0,38,1728,1,odd,MacIntel,tomato
93,93,956,trial,Mozilla,Netscape,"5.0 (Macintosh; Intel Mac OS X 10_15_7) AppleWebKit/605.1.15 (KHTML, like Gecko) Version/15.5 Safari/605.1.15",Word,1,z,0,99,99,28-08-22,28-08-22,13:22:51,0,0,0,0,0,691,3.6.1,6,231,753,m,670,1079,1728,24,1117,24,0,38,1728,1,odd,MacIntel,frenzy
93,93,947,trial,Mozilla,Netscape,"5.0 (Macintosh; Intel Mac OS X 10_15_7) AppleWebKit/605.1.15 (KHTML, like Gecko) Version/15.5 Safari/605.1.15",NW,1,m,0,99,99,28-08-22,28-08-22,13:22:51,0,0,0,0,0,691,3.6.1,4,231,753,m,560,1079,1728,24,1117,24,0,38,1728,1,odd,MacIntel,rurk
93,93,938,trial,Mozilla,Netscape,"5.0 (Macintosh; Intel Mac OS X 10_15_7) AppleWebKit/605.1.15 (KHTML, like Gecko) Version/15.5 Safari/605.1.15",Word,1,z,0,99,99,28-08-22,28-08-22,13:22:51,0,0,0,0,0,691,3.6.1,5,231,753,m,560,1079,1728,24,1117,24,0,38,1728,1,odd,MacIntel,patch
93,93,929,trial,Mozilla,Netscape,"5.0 (Macintosh; Intel Mac OS X 10_15_7) AppleWebKit/605.1.15 (KHTML, like Gecko) Version/15.5 Safari/605.1.15",PH,1,m,0,99,99,28-08-22,28-08-22,13:22:51,0,0,0,0,0,691,3.6.1,6,231,753,m,548,1079,1728,24,1117,24,0,38,1728,1,odd,MacIntel,ghulfs
93,93,924,trial,Mozilla,Netscape,"5.0 (Macintosh; Intel Mac OS X 10_15_7) AppleWebKit/605.1.15 (KHTML, like Gecko) Version/15.5 Safari/605.1.15",PH,1,m,0,99,99,28-08-22,28-08-22,13:22:51,0,0,0,0,0,691,3.6.1,4,231,753,m,710,1079,1728,24,1117,24,0,38,1728,1,odd,MacIntel,dror
94,94,919,trial,Mozilla,Netscape,"5.0 (Macintosh; Intel Mac OS X 10_15_7) AppleWebKit/605.1.15 (KHTML, like Gecko) Version/15.5 Safari/605.1.15",NW,1,m,0,99,99,28-08-22,28-08-22,13:22:51,0,0,0,0,0,691,3.6.1,6,231,753,m,689,1079,1728,24,1117,24,0,38,1728,1,odd,MacIntel,gromes
94,94,911,trial,Mozilla,Netscape,"5.0 (Macintosh; Intel Mac OS X 10_15_7) AppleWebKit/605.1.15 (KHTML, like Gecko) Version/15.5 Safari/605.1.15",Word,1,z,0,99,99,28-08-22,28-08-22,13:22:51,0,0,0,0,0,691,3.6.1,5,231,753,m,521,1079,1728,24,1117,24,0,38,1728,1,odd,MacIntel,dusty
94,94,903,trial,Mozilla,Netscape,"5.0 (Macintosh; Intel Mac OS X 10_15_7) AppleWebKit/605.1.15 (KHTML, like Gecko) Version/15.5 Safari/605.1.15",Word,1,z,0,99,99,28-08-22,28-08-22,13:22:51,0,0,0,0,0,691,3.6.1,5,231,753,m,512,1079,1728,24,1117,24,0,38,1728,1,odd,MacIntel,audit
94,94,896,trial,Mozilla,Netscape,"5.0 (Macintosh; Intel Mac OS X 10_15_7) AppleWebKit/605.1.15 (KHTML, like Gecko) Version/15.5 Safari/605.1.15",PH,1,m,0,99,99,28-08-22,28-08-22,13:22:51,0,0,0,0,0,691,3.6.1,7,231,753,m,575,1079,1728,24,1117,24,0,38,1728,1,odd,MacIntel,ghoasts
94,94,892,trial,Mozilla,Netscape,"5.0 (Macintosh; Intel Mac OS X 10_15_7) AppleWebKit/605.1.15 (KHTML, like Gecko) Version/15.5 Safari/605.1.15",PH,1,m,0,99,99,28-08-22,28-08-22,13:22:51,0,0,0,0,0,691,3.6.1,7,231,753,m,654,1079,1728,24,1117,24,0,38,1728,1,odd,MacIntel,spaised
94,94,885,trial,Mozilla,Netscape,"5.0 (Macintosh; Intel Mac OS X 10_15_7) AppleWebKit/605.1.15 (KHTML, like Gecko) Version/15.5 Safari/605.1.15",Word,1,z,0,99,99,28-08-22,28-08-22,13:22:51,0,0,0,0,0,691,3.6.1,5,231,753,m,555,1079,1728,24,1117,24,0,38,1728,1,odd,MacIntel,stale
94,94,878,trial,Mozilla,Netscape,"5.0 (Macintosh; Intel Mac OS X 10_15_7) AppleWebKit/605.1.15 (KHTML, like Gecko) Version/15.5 Safari/605.1.15",PH,1,m,0,99,99,28-08-22,28-08-22,13:22:51,0,0,0,0,0,691,3.6.1,5,231,753,m,518,1079,1728,24,1117,24,0,38,1728,1,odd,MacIntel,cemed
94,94,871,trial,Mozilla,Netscape,"5.0 (Macintosh; Intel Mac OS X 10_15_7) AppleWebKit/605.1.15 (KHTML, like Gecko) Version/15.5 Safari/605.1.15",Word,1,z,0,99,99,28-08-22,28-08-22,13:22:51,0,0,0,0,0,691,3.6.1,4,231,753,m,513,1079,1728,24,1117,24,0,38,1728,1,odd,MacIntel,them
95,95,864,trial,Mozilla,Netscape,"5.0 (Macintosh; Intel Mac OS X 10_15_7) AppleWebKit/605.1.15 (KHTML, like Gecko) Version/15.5 Safari/605.1.15",Word,1,z,0,99,99,28-08-22,28-08-22,13:22:51,0,0,0,0,0,691,3.6.1,6,231,753,m,470,1079,1728,24,1117,24,0,38,1728,1,odd,MacIntel,planet
95,95,859,trial,Mozilla,Netscape,"5.0 (Macintosh; Intel Mac OS X 10_15_7) AppleWebKit/605.1.15 (KHTML, like Gecko) Version/15.5 Safari/605.1.15",NW,1,m,0,99,99,28-08-22,28-08-22,13:22:51,0,0,0,0,0,691,3.6.1,5,231,753,m,564,1079,1728,24,1117,24,0,38,1728,1,odd,MacIntel,snive
95,95,855,trial,Mozilla,Netscape,"5.0 (Macintosh; Intel Mac OS X 10_15_7) AppleWebKit/605.1.15 (KHTML, like Gecko) Version/15.5 Safari/605.1.15",PH,1,m,0,99,99,28-08-22,28-08-22,13:22:51,0,0,0,0,0,691,3.6.1,6,231,753,m,654,1079,1728,24,1117,24,0,38,1728,1,odd,MacIntel,wroons
95,95,849,trial,Mozilla,Netscape,"5.0 (Macintosh; Intel Mac OS X 10_15_7) AppleWebKit/605.1.15 (KHTML, like Gecko) Version/15.5 Safari/605.1.15",Word,1,z,0,99,99,28-08-22,28-08-22,13:22:51,0,0,0,0,0,691,3.6.1,6,231,753,m,519,1079,1728,24,1117,24,0,38,1728,1,odd,MacIntel,neuter
95,95,844,trial,Mozilla,Netscape,"5.0 (Macintosh; Intel Mac OS X 10_15_7) AppleWebKit/605.1.15 (KHTML, like Gecko) Version/15.5 Safari/605.1.15",PH,1,m,0,99,99,28-08-22,28-08-22,13:22:51,0,0,0,0,0,691,3.6.1,4,231,753,m,549,1079,1728,24,1117,24,0,38,1728,1,odd,MacIntel,hepe
95,95,840,trial,Mozilla,Netscape,"5.0 (Macintosh; Intel Mac OS X 10_15_7) AppleWebKit/605.1.15 (KHTML, like Gecko) Version/15.5 Safari/605.1.15",NW,1,m,0,99,99,28-08-22,28-08-22,13:22:51,0,0,0,0,0,691,3.6.1,4,231,753,m,566,1079,1728,24,1117,24,0,38,1728,1,odd,MacIntel,zowl
95,95,836,trial,Mozilla,Netscape,"5.0 (Macintosh; Intel Mac OS X 10_15_7) AppleWebKit/605.1.15 (KHTML, like Gecko) Version/15.5 Safari/605.1.15",Word,1,z,0,99,99,28-08-22,28-08-22,13:22:51,0,0,0,0,0,691,3.6.1,6,231,753,m,644,1079,1728,24,1117,24,0,38,1728,1,odd,MacIntel,breath
95,95,832,trial,Mozilla,Netscape,"5.0 (Macintosh; Intel Mac OS X 10_15_7) AppleWebKit/605.1.15 (KHTML, like Gecko) Version/15.5 Safari/605.1.15",NW,1,m,0,99,99,28-08-22,28-08-22,13:22:51,0,0,0,0,0,691,3.6.1,7,231,753,m,565,1079,1728,24,1117,24,0,38,1728,1,odd,MacIntel,thraves
95,95,827,trial,Mozilla,Netscape,"5.0 (Macintosh; Intel Mac OS X 10_15_7) AppleWebKit/605.1.15 (KHTML, like Gecko) Version/15.5 Safari/605.1.15",Word,1,z,0,99,99,28-08-22,28-08-22,13:22:51,0,0,0,0,0,691,3.6.1,5,231,753,m,535,1079,1728,24,1117,24,0,38,1728,1,odd,MacIntel,coach
95,95,823,trial,Mozilla,Netscape,"5.0 (Macintosh; Intel Mac OS X 10_15_7) AppleWebKit/605.1.15 (KHTML, like Gecko) Version/15.5 Safari/605.1.15",Word,1,z,0,99,99,28-08-22,28-08-22,13:22:51,0,0,0,0,0,691,3.6.1,6,231,753,m,576,1079,1728,24,1117,24,0,38,1728,1,odd,MacIntel,beauty
95,95,820,trial,Mozilla,Netscape,"5.0 (Macintosh; Intel Mac OS X 10_15_7) AppleWebKit/605.1.15 (KHTML, like Gecko) Version/15.5 Safari/605.1.15",Word,1,z,0,99,99,28-08-22,28-08-22,13:22:51,0,0,0,0,0,691,3.6.1,5,231,753,m,594,1079,1728,24,1117,24,0,38,1728,1,odd,MacIntel,crock
95,95,814,trial,Mozilla,Netscape,"5.0 (Macintosh; Intel Mac OS X 10_15_7) AppleWebKit/605.1.15 (KHTML, like Gecko) Version/15.5 Safari/605.1.15",Word,1,z,0,99,99,28-08-22,28-08-22,13:22:51,0,0,0,0,0,691,3.6.1,6,231,753,m,401,1079,1728,24,1117,24,0,38,1728,1,odd,MacIntel,mutton
96,96,808,trial,Mozilla,Netscape,"5.0 (Macintosh; Intel Mac OS X 10_15_7) AppleWebKit/605.1.15 (KHTML, like Gecko) Version/15.5 Safari/605.1.15",NW,1,m,0,99,99,28-08-22,28-08-22,13:22:51,0,0,0,0,0,691,3.6.1,3,231,753,m,472,1079,1728,24,1117,24,0,38,1728,1,odd,MacIntel,erb
96,96,805,trial,Mozilla,Netscape,"5.0 (Macintosh; Intel Mac OS X 10_15_7) AppleWebKit/605.1.15 (KHTML, like Gecko) Version/15.5 Safari/605.1.15",NW,1,m,0,99,99,28-08-22,28-08-22,13:22:51,0,0,0,0,0,691,3.6.1,4,231,753,m,562,1079,1728,24,1117,24,0,38,1728,1,odd,MacIntel,puct
96,96,804,trial,Mozilla,Netscape,"5.0 (Macintosh; Intel Mac OS X 10_15_7) AppleWebKit/605.1.15 (KHTML, like Gecko) Version/15.5 Safari/605.1.15",Word,1,z,0,99,99,28-08-22,28-08-22,13:22:51,0,0,0,0,0,691,3.6.1,5,231,753,m,767,1079,1728,24,1117,24,0,38,1728,1,odd,MacIntel,scare
96,96,802,trial,Mozilla,Netscape,"5.0 (Macintosh; Intel Mac OS X 10_15_7) AppleWebKit/605.1.15 (KHTML, like Gecko) Version/15.5 Safari/605.1.15",Word,1,z,0,99,99,28-08-22,28-08-22,13:22:51,0,0,0,0,0,691,3.6.1,7,231,753,m,619,1079,1728,24,1117,24,0,38,1728,1,odd,MacIntel,measure
96,96,799,trial,Mozilla,Netscape,"5.0 (Macintosh; Intel Mac OS X 10_15_7) AppleWebKit/605.1.15 (KHTML, like Gecko) Version/15.5 Safari/605.1.15",PH,1,m,0,99,99,28-08-22,28-08-22,13:22:51,0,0,0,0,0,691,3.6.1,7,231,753,m,635,1079,1728,24,1117,24,0,38,1728,1,odd,MacIntel,phlukes
94,94,795,trial,Mozilla,Netscape,"5.0 (Macintosh; Intel Mac OS X 10_15_7) AppleWebKit/605.1.15 (KHTML, like Gecko) Version/15.5 Safari/605.1.15",NW,0,m,0,99,99,28-08-22,28-08-22,13:22:51,0,0,0,0,0,691,3.6.1,7,231,753,m,498,1079,1728,24,1117,24,0,38,1728,1,odd,MacIntel,spoints
95,95,792,trial,Mozilla,Netscape,"5.0 (Macintosh; Intel Mac OS X 10_15_7) AppleWebKit/605.1.15 (KHTML, like Gecko) Version/15.5 Safari/605.1.15",Word,1,z,0,99,99,28-08-22,28-08-22,13:22:51,0,0,0,0,0,691,3.6.1,5,231,753,m,557,1079,1728,24,1117,24,0,38,1728,1,odd,MacIntel,linen
95,95,788,trial,Mozilla,Netscape,"5.0 (Macintosh; Intel Mac OS X 10_15_7) AppleWebKit/605.1.15 (KHTML, like Gecko) Version/15.5 Safari/605.1.15",NW,1,m,0,99,99,28-08-22,28-08-22,13:22:51,0,0,0,0,0,691,3.6.1,5,231,753,m,502,1079,1728,24,1117,24,0,38,1728,1,odd,MacIntel,waffs
95,95,784,trial,Mozilla,Netscape,"5.0 (Macintosh; Intel Mac OS X 10_15_7) AppleWebKit/605.1.15 (KHTML, like Gecko) Version/15.5 Safari/605.1.15",PH,1,m,0,99,99,28-08-22,28-08-22,13:22:51,0,0,0,0,0,691,3.6.1,5,231,753,m,484,1079,1728,24,1117,24,0,38,1728,1,odd,MacIntel,rheed
95,95,781,trial,Mozilla,Netscape,"5.0 (Macintosh; Intel Mac OS X 10_15_7) AppleWebKit/605.1.15 (KHTML, like Gecko) Version/15.5 Safari/605.1.15",Word,1,z,0,99,99,28-08-22,28-08-22,13:22:51,0,0,0,0,0,691,3.6.1,3,231,753,m,537,1079,1728,24,1117,24,0,38,1728,1,odd,MacIntel,rib
95,95,778,trial,Mozilla,Netscape,"5.0 (Macintosh; Intel Mac OS X 10_15_7) AppleWebKit/605.1.15 (KHTML, like Gecko) Version/15.5 Safari/605.1.15",PH,1,m,0,99,99,28-08-22,28-08-22,13:22:51,0,0,0,0,0,691,3.6.1,6,231,753,m,601,1079,1728,24,1117,24,0,38,1728,1,odd,MacIntel,scadds
95,95,775,trial,Mozilla,Netscape,"5.0 (Macintosh; Intel Mac OS X 10_15_7) AppleWebKit/605.1.15 (KHTML, like Gecko) Version/15.5 Safari/605.1.15",Word,1,z,0,99,99,28-08-22,28-08-22,13:22:51,0,0,0,0,0,691,3.6.1,4,231,753,m,538,1079,1728,24,1117,24,0,38,1728,1,odd,MacIntel,step
95,95,771,trial,Mozilla,Netscape,"5.0 (Macintosh; Intel Mac OS X 10_15_7) AppleWebKit/605.1.15 (KHTML, like Gecko) Version/15.5 Safari/605.1.15",Word,1,z,0,99,99,28-08-22,28-08-22,13:22:51,0,0,0,0,0,691,3.6.1,6,231,753,m,474,1079,1728,24,1117,24,0,38,1728,1,odd,MacIntel,starch
95,95,768,trial,Mozilla,Netscape,"5.0 (Macintosh; Intel Mac OS X 10_15_7) AppleWebKit/605.1.15 (KHTML, like Gecko) Version/15.5 Safari/605.1.15",NW,1,m,0,99,99,28-08-22,28-08-22,13:22:51,0,0,0,0,0,691,3.6.1,6,231,753,m,525,1079,1728,24,1117,24,0,38,1728,1,odd,MacIntel,thwups
95,95,767,trial,Mozilla,Netscape,"5.0 (Macintosh; Intel Mac OS X 10_15_7) AppleWebKit/605.1.15 (KHTML, like Gecko) Version/15.5 Safari/605.1.15",PH,1,m,0,99,99,28-08-22,28-08-22,13:22:51,0,0,0,0,0,691,3.6.1,5,231,753,m,664,1079,1728,24,1117,24,0,38,1728,1,odd,MacIntel,wrync
95,95,764,trial,Mozilla,Netscape,"5.0 (Macintosh; Intel Mac OS X 10_15_7) AppleWebKit/605.1.15 (KHTML, like Gecko) Version/15.5 Safari/605.1.15",Word,1,z,0,99,99,28-08-22,28-08-22,13:22:51,0,0,0,0,0,691,3.6.1,4,231,753,m,503,1079,1728,24,1117,24,0,38,1728,1,odd,MacIntel,worn
95,95,761,trial,Mozilla,Netscape,"5.0 (Macintosh; Intel Mac OS X 10_15_7) AppleWebKit/605.1.15 (KHTML, like Gecko) Version/15.5 Safari/605.1.15",NW,1,m,0,99,99,28-08-22,28-08-22,13:22:51,0,0,0,0,0,691,3.6.1,6,231,753,m,524,1079,1728,24,1117,24,0,38,1728,1,odd,MacIntel,plolks
94,94,788,trial,Mozilla,Netscape,"5.0 (Macintosh; Intel Mac OS X 10_15_7) AppleWebKit/605.1.15 (KHTML, like Gecko) Version/15.5 Safari/605.1.15",Word,0,z,0,99,99,28-08-22,28-08-22,13:22:51,0,0,0,0,0,691,3.6.1,5,231,753,m,3019,1079,1728,24,1117,24,0,38,1728,1,odd,MacIntel,order
94,94,785,trial,Mozilla,Netscape,"5.0 (Macintosh; Intel Mac OS X 10_15_7) AppleWebKit/605.1.15 (KHTML, like Gecko) Version/15.5 Safari/605.1.15",NW,1,m,0,99,99,28-08-22,28-08-22,13:22:51,0,0,0,0,0,691,3.6.1,6,231,753,m,508,1079,1728,24,1117,24,0,38,1728,1,odd,MacIntel,wralph
93,93,781,trial,Mozilla,Netscape,"5.0 (Macintosh; Intel Mac OS X 10_15_7) AppleWebKit/605.1.15 (KHTML, like Gecko) Version/15.5 Safari/605.1.15",NW,0,m,0,99,99,28-08-22,28-08-22,13:22:51,0,0,0,0,0,691,3.6.1,5,231,753,m,488,1079,1728,24,1117,24,0,38,1728,1,odd,MacIntel,stoil
93,93,779,trial,Mozilla,Netscape,"5.0 (Macintosh; Intel Mac OS X 10_15_7) AppleWebKit/605.1.15 (KHTML, like Gecko) Version/15.5 Safari/605.1.15",PH,1,m,0,99,99,28-08-22,28-08-22,13:22:51,0,0,0,0,0,691,3.6.1,4,231,753,m,637,1079,1728,24,1117,24,0,38,1728,1,odd,MacIntel,fize
93,93,778,trial,Mozilla,Netscape,"5.0 (Macintosh; Intel Mac OS X 10_15_7) AppleWebKit/605.1.15 (KHTML, like Gecko) Version/15.5 Safari/605.1.15",NW,1,m,0,99,99,28-08-22,28-08-22,13:22:51,0,0,0,0,0,691,3.6.1,6,231,753,m,653,1079,1728,24,1117,24,0,38,1728,1,odd,MacIntel,sluped
93,93,774,trial,Mozilla,Netscape,"5.0 (Macintosh; Intel Mac OS X 10_15_7) AppleWebKit/605.1.15 (KHTML, like Gecko) Version/15.5 Safari/605.1.15",Word,1,z,0,99,99,28-08-22,28-08-22,13:22:51,0,0,0,0,0,691,3.6.1,4,231,753,m,445,1079,1728,24,1117,24,0,38,1728,1,odd,MacIntel,camp
93,93,771,trial,Mozilla,Netscape,"5.0 (Macintosh; Intel Mac OS X 10_15_7) AppleWebKit/605.1.15 (KHTML, like Gecko) Version/15.5 Safari/605.1.15",PH,1,m,0,99,99,28-08-22,28-08-22,13:22:51,0,0,0,0,0,691,3.6.1,7,231,753,m,525,1079,1728,24,1117,24,0,38,1728,1,odd,MacIntel,ghaffed
93,93,770,trial,Mozilla,Netscape,"5.0 (Macintosh; Intel Mac OS X 10_15_7) AppleWebKit/605.1.15 (KHTML, like Gecko) Version/15.5 Safari/605.1.15",Word,1,z,0,99,99,28-08-22,28-08-22,13:22:51,0,0,0,0,0,691,3.6.1,6,231,753,m,612,1079,1728,24,1117,24,0,38,1728,1,odd,MacIntel,belfry
93,93,768,trial,Mozilla,Netscape,"5.0 (Macintosh; Intel Mac OS X 10_15_7) AppleWebKit/605.1.15 (KHTML, like Gecko) Version/15.5 Safari/605.1.15",Word,1,z,0,99,99,28-08-22,28-08-22,13:22:51,0,0,0,0,0,691,3.6.1,6,231,753,m,608,1079,1728,24,1117,24,0,38,1728,1,odd,MacIntel,misery
94,94,766,trial,Mozilla,Netscape,"5.0 (Macintosh; Intel Mac OS X 10_15_7) AppleWebKit/605.1.15 (KHTML, like Gecko) Version/15.5 Safari/605.1.15",Word,1,z,0,99,99,28-08-22,28-08-22,13:22:51,0,0,0,0,0,691,3.6.1,4,231,753,m,565,1079,1728,24,1117,24,0,38,1728,1,odd,MacIntel,vain
94,94,762,trial,Mozilla,Netscape,"5.0 (Macintosh; Intel Mac OS X 10_15_7) AppleWebKit/605.1.15 (KHTML, like Gecko) Version/15.5 Safari/605.1.15",Word,1,z,0,99,99,28-08-22,28-08-22,13:22:51,0,0,0,0,0,691,3.6.1,6,231,753,m,413,1079,1728,24,1117,24,0,38,1728,1,odd,MacIntel,jargon
94,94,760,trial,Mozilla,Netscape,"5.0 (Macintosh; Intel Mac OS X 10_15_7) AppleWebKit/605.1.15 (KHTML, like Gecko) Version/15.5 Safari/605.1.15",PH,1,m,0,99,99,28-08-22,28-08-22,13:22:51,0,0,0,0,0,691,3.6.1,4,231,753,m,585,1079,1728,24,1117,24,0,38,1728,1,odd,MacIntel,wran
94,94,758,trial,Mozilla,Netscape,"5.0 (Macintosh; Intel Mac OS X 10_15_7) AppleWebKit/605.1.15 (KHTML, like Gecko) Version/15.5 Safari/605.1.15",Word,1,z,0,99,99,28-08-22,28-08-22,13:22:51,0,0,0,0,0,691,3.6.1,7,231,753,m,527,1079,1728,24,1117,24,0,38,1728,1,odd,MacIntel,referee
100,100,594,practice,Mozilla,Netscape,"5.0 (Macintosh; Intel Mac OS X 10_15_7) AppleWebKit/605.1.15 (KHTML, like Gecko) Version/15.5 Safari/605.1.15",Word,1,z,None,None,None,28-08-22,28-08-22,12:11:11,0,0,0,0,0,690,3.6.1,6,231,752,None,594,1175,1920,24,1200,24,117,41,1920,0,odd,MacIntel,turtle
100,100,580,practice,Mozilla,Netscape,"5.0 (Macintosh; Intel Mac OS X 10_15_7) AppleWebKit/605.1.15 (KHTML, like Gecko) Version/15.5 Safari/605.1.15",NW,1,m,None,None,None,28-08-22,28-08-22,12:11:11,0,0,0,0,0,690,3.6.1,6,231,752,None,566,1175,1920,24,1200,24,117,41,1920,0,odd,MacIntel,ourtel
100,100,629,practice,Mozilla,Netscape,"5.0 (Macintosh; Intel Mac OS X 10_15_7) AppleWebKit/605.1.15 (KHTML, like Gecko) Version/15.5 Safari/605.1.15",NW,1,m,None,None,None,28-08-22,28-08-22,12:11:11,0,0,0,0,0,690,3.6.1,5,231,752,None,727,1175,1920,24,1200,24,117,41,1920,0,odd,MacIntel,ipple
75,75,628,practice,Mozilla,Netscape,"5.0 (Macintosh; Intel Mac OS X 10_15_7) AppleWebKit/605.1.15 (KHTML, like Gecko) Version/15.5 Safari/605.1.15",Word,0,z,None,None,None,28-08-22,28-08-22,12:11:11,0,0,0,0,0,690,3.6.1,5,231,752,None,624,1175,1920,24,1200,24,117,41,1920,0,odd,MacIntel,magic
80,80,632,practice,Mozilla,Netscape,"5.0 (Macintosh; Intel Mac OS X 10_15_7) AppleWebKit/605.1.15 (KHTML, like Gecko) Version/15.5 Safari/605.1.15",NW,1,m,None,None,None,28-08-22,28-08-22,12:11:11,0,0,0,0,0,690,3.6.1,5,231,752,None,651,1175,1920,24,1200,24,117,41,1920,0,odd,MacIntel,mocag
83,83,615,practice,Mozilla,Netscape,"5.0 (Macintosh; Intel Mac OS X 10_15_7) AppleWebKit/605.1.15 (KHTML, like Gecko) Version/15.5 Safari/605.1.15",Word,1,z,None,None,None,28-08-22,28-08-22,12:11:11,0,0,0,0,0,690,3.6.1,5,231,752,None,527,1175,1920,24,1200,24,117,41,1920,0,odd,MacIntel,apple
100,100,839,trial,Mozilla,Netscape,"5.0 (Macintosh; Intel Mac OS X 10_15_7) AppleWebKit/605.1.15 (KHTML, like Gecko) Version/15.5 Safari/605.1.15",PH,1,m,0,0,0,28-08-22,28-08-22,12:11:11,0,0,0,0,0,690,3.6.1,6,231,752,m,839,1175,1920,24,1200,24,117,41,1920,0,odd,MacIntel,phlize
100,100,743,trial,Mozilla,Netscape,"5.0 (Macintosh; Intel Mac OS X 10_15_7) AppleWebKit/605.1.15 (KHTML, like Gecko) Version/15.5 Safari/605.1.15",Word,1,z,0,1,1,28-08-22,28-08-22,12:11:11,0,0,0,0,0,690,3.6.1,4,231,752,z,646,1175,1920,24,1200,24,117,41,1920,0,odd,MacIntel,beak
100,100,697,trial,Mozilla,Netscape,"5.0 (Macintosh; Intel Mac OS X 10_15_7) AppleWebKit/605.1.15 (KHTML, like Gecko) Version/15.5 Safari/605.1.15",Word,1,z,0,2,2,28-08-22,28-08-22,12:11:11,0,0,0,0,0,690,3.6.1,3,231,752,z,606,1175,1920,24,1200,24,117,41,1920,0,odd,MacIntel,bib
100,100,658,trial,Mozilla,Netscape,"5.0 (Macintosh; Intel Mac OS X 10_15_7) AppleWebKit/605.1.15 (KHTML, like Gecko) Version/15.5 Safari/605.1.15",Word,1,z,0,3,3,28-08-22,28-08-22,12:11:11,0,0,0,0,0,690,3.6.1,6,231,752,z,540,1175,1920,24,1200,24,117,41,1920,0,odd,MacIntel,salary
100,100,634,trial,Mozilla,Netscape,"5.0 (Macintosh; Intel Mac OS X 10_15_7) AppleWebKit/605.1.15 (KHTML, like Gecko) Version/15.5 Safari/605.1.15",Word,1,z,0,4,4,28-08-22,28-08-22,12:11:11,0,0,0,0,0,690,3.6.1,7,231,752,z,539,1175,1920,24,1200,24,117,41,1920,0,odd,MacIntel,dungeon
100,100,612,trial,Mozilla,Netscape,"5.0 (Macintosh; Intel Mac OS X 10_15_7) AppleWebKit/605.1.15 (KHTML, like Gecko) Version/15.5 Safari/605.1.15",Word,1,z,0,5,5,28-08-22,28-08-22,12:11:11,0,0,0,0,0,690,3.6.1,5,231,752,z,504,1175,1920,24,1200,24,117,41,1920,0,odd,MacIntel,baron
100,100,634,trial,Mozilla,Netscape,"5.0 (Macintosh; Intel Mac OS X 10_15_7) AppleWebKit/605.1.15 (KHTML, like Gecko) Version/15.5 Safari/605.1.15",PH,1,m,0,6,6,28-08-22,28-08-22,12:11:11,0,0,0,0,0,690,3.6.1,6,231,752,m,765,1175,1920,24,1200,24,117,41,1920,0,odd,MacIntel,whased
100,100,668,trial,Mozilla,Netscape,"5.0 (Macintosh; Intel Mac OS X 10_15_7) AppleWebKit/605.1.15 (KHTML, like Gecko) Version/15.5 Safari/605.1.15",PH,1,m,0,7,7,28-08-22,28-08-22,12:11:11,0,0,0,0,0,690,3.6.1,6,231,752,m,906,1175,1920,24,1200,24,117,41,1920,0,odd,MacIntel,graits
100,100,657,trial,Mozilla,Netscape,"5.0 (Macintosh; Intel Mac OS X 10_15_7) AppleWebKit/605.1.15 (KHTML, like Gecko) Version/15.5 Safari/605.1.15",Word,1,z,0,8,8,28-08-22,28-08-22,12:11:11,0,0,0,0,0,690,3.6.1,5,231,752,z,564,1175,1920,24,1200,24,117,41,1920,0,odd,MacIntel,globe
100,100,676,trial,Mozilla,Netscape,"5.0 (Macintosh; Intel Mac OS X 10_15_7) AppleWebKit/605.1.15 (KHTML, like Gecko) Version/15.5 Safari/605.1.15",Word,1,z,0,9,9,28-08-22,28-08-22,12:11:11,0,0,0,0,0,690,3.6.1,5,231,752,z,849,1175,1920,24,1200,24,117,41,1920,0,odd,MacIntel,quart
100,100,666,trial,Mozilla,Netscape,"5.0 (Macintosh; Intel Mac OS X 10_15_7) AppleWebKit/605.1.15 (KHTML, like Gecko) Version/15.5 Safari/605.1.15",Word,1,z,0,10,10,28-08-22,28-08-22,12:11:11,0,0,0,0,0,690,3.6.1,7,231,752,z,570,1175,1920,24,1200,24,117,41,1920,0,odd,MacIntel,platter
100,100,673,trial,Mozilla,Netscape,"5.0 (Macintosh; Intel Mac OS X 10_15_7) AppleWebKit/605.1.15 (KHTML, like Gecko) Version/15.5 Safari/605.1.15",Word,1,z,0,11,11,28-08-22,28-08-22,12:11:11,0,0,0,0,0,690,3.6.1,6,231,752,z,751,1175,1920,24,1200,24,117,41,1920,0,odd,MacIntel,misuse
100,100,675,trial,Mozilla,Netscape,"5.0 (Macintosh; Intel Mac OS X 10_15_7) AppleWebKit/605.1.15 (KHTML, like Gecko) Version/15.5 Safari/605.1.15",PH,1,m,0,12,12,28-08-22,28-08-22,12:11:11,0,0,0,0,0,690,3.6.1,6,231,752,m,693,1175,1920,24,1200,24,117,41,1920,0,odd,MacIntel,proods
100,100,665,trial,Mozilla,Netscape,"5.0 (Macintosh; Intel Mac OS X 10_15_7) AppleWebKit/605.1.15 (KHTML, like Gecko) Version/15.5 Safari/605.1.15",Word,1,z,0,13,13,28-08-22,28-08-22,12:11:11,0,0,0,0,0,690,3.6.1,7,231,752,z,542,1175,1920,24,1200,24,117,41,1920,0,odd,MacIntel,blunder
100,100,663,trial,Mozilla,Netscape,"5.0 (Macintosh; Intel Mac OS X 10_15_7) AppleWebKit/605.1.15 (KHTML, like Gecko) Version/15.5 Safari/605.1.15",NW,1,m,0,14,14,28-08-22,28-08-22,12:11:11,0,0,0,0,0,690,3.6.1,6,231,752,m,638,1175,1920,24,1200,24,117,41,1920,0,odd,MacIntel,scrait
100,100,656,trial,Mozilla,Netscape,"5.0 (Macintosh; Intel Mac OS X 10_15_7) AppleWebKit/605.1.15 (KHTML, like Gecko) Version/15.5 Safari/605.1.15",Word,1,z,0,15,15,28-08-22,28-08-22,12:11:11,0,0,0,0,0,690,3.6.1,5,231,752,z,549,1175,1920,24,1200,24,117,41,1920,0,odd,MacIntel,blush
100,100,649,trial,Mozilla,Netscape,"5.0 (Macintosh; Intel Mac OS X 10_15_7) AppleWebKit/605.1.15 (KHTML, like Gecko) Version/15.5 Safari/605.1.15",Word,1,z,0,16,16,28-08-22,28-08-22,12:11:11,0,0,0,0,0,690,3.6.1,6,231,752,z,537,1175,1920,24,1200,24,117,41,1920,0,odd,MacIntel,banana
100,100,646,trial,Mozilla,Netscape,"5.0 (Macintosh; Intel Mac OS X 10_15_7) AppleWebKit/605.1.15 (KHTML, like Gecko) Version/15.5 Safari/605.1.15",NW,1,m,0,17,17,28-08-22,28-08-22,12:11:11,0,0,0,0,0,690,3.6.1,5,231,752,m,598,1175,1920,24,1200,24,117,41,1920,0,odd,MacIntel,tould
100,100,673,trial,Mozilla,Netscape,"5.0 (Macintosh; Intel Mac OS X 10_15_7) AppleWebKit/605.1.15 (KHTML, like Gecko) Version/15.5 Safari/605.1.15",Word,1,z,0,18,18,28-08-22,28-08-22,12:11:11,0,0,0,0,0,690,3.6.1,5,231,752,z,1142,1175,1920,24,1200,24,117,41,1920,0,odd,MacIntel,chute
100,100,675,trial,Mozilla,Netscape,"5.0 (Macintosh; Intel Mac OS X 10_15_7) AppleWebKit/605.1.15 (KHTML, like Gecko) Version/15.5 Safari/605.1.15",NW,1,m,0,19,19,28-08-22,28-08-22,12:11:11,0,0,0,0,0,690,3.6.1,7,231,752,m,712,1175,1920,24,1200,24,117,41,1920,0,odd,MacIntel,rhourth
100,100,683,trial,Mozilla,Netscape,"5.0 (Macintosh; Intel Mac OS X 10_15_7) AppleWebKit/605.1.15 (KHTML, like Gecko) Version/15.5 Safari/605.1.15",PH,1,m,0,20,20,28-08-22,28-08-22,12:11:11,0,0,0,0,0,690,3.6.1,4,231,752,m,863,1175,1920,24,1200,24,117,41,1920,0,odd,MacIntel,wure
100,100,675,trial,Mozilla,Netscape,"5.0 (Macintosh; Intel Mac OS X 10_15_7) AppleWebKit/605.1.15 (KHTML, like Gecko) Version/15.5 Safari/605.1.15",Word,1,z,0,21,21,28-08-22,28-08-22,12:11:11,0,0,0,0,0,690,3.6.1,5,231,752,z,505,1175,1920,24,1200,24,117,41,1920,0,odd,MacIntel,table
100,100,667,trial,Mozilla,Netscape,"5.0 (Macintosh; Intel Mac OS X 10_15_7) AppleWebKit/605.1.15 (KHTML, like Gecko) Version/15.5 Safari/605.1.15",PH,1,m,0,22,22,28-08-22,28-08-22,12:11:11,0,0,0,0,0,690,3.6.1,4,231,752,m,485,1175,1920,24,1200,24,117,41,1920,0,odd,MacIntel,ryle
100,100,661,trial,Mozilla,Netscape,"5.0 (Macintosh; Intel Mac OS X 10_15_7) AppleWebKit/605.1.15 (KHTML, like Gecko) Version/15.5 Safari/605.1.15",Word,1,z,0,23,23,28-08-22,28-08-22,12:11:11,0,0,0,0,0,690,3.6.1,6,231,752,z,517,1175,1920,24,1200,24,117,41,1920,0,odd,MacIntel,amount
100,100,653,trial,Mozilla,Netscape,"5.0 (Macintosh; Intel Mac OS X 10_15_7) AppleWebKit/605.1.15 (KHTML, like Gecko) Version/15.5 Safari/605.1.15",Word,1,z,0,24,24,28-08-22,28-08-22,12:11:11,0,0,0,0,0,690,3.6.1,6,231,752,z,462,1175,1920,24,1200,24,117,41,1920,0,odd,MacIntel,dollar
100,100,648,trial,Mozilla,Netscape,"5.0 (Macintosh; Intel Mac OS X 10_15_7) AppleWebKit/605.1.15 (KHTML, like Gecko) Version/15.5 Safari/605.1.15",Word,1,z,0,25,25,28-08-22,28-08-22,12:11:11,0,0,0,0,0,690,3.6.1,6,231,752,z,519,1175,1920,24,1200,24,117,41,1920,0,odd,MacIntel,scroll
100,100,646,trial,Mozilla,Netscape,"5.0 (Macintosh; Intel Mac OS X 10_15_7) AppleWebKit/605.1.15 (KHTML, like Gecko) Version/15.5 Safari/605.1.15",NW,1,m,0,26,26,28-08-22,28-08-22,12:11:11,0,0,0,0,0,690,3.6.1,6,231,752,m,591,1175,1920,24,1200,24,117,41,1920,0,odd,MacIntel,sleens
100,100,642,trial,Mozilla,Netscape,"5.0 (Macintosh; Intel Mac OS X 10_15_7) AppleWebKit/605.1.15 (KHTML, like Gecko) Version/15.5 Safari/605.1.15",NW,1,m,0,27,27,28-08-22,28-08-22,12:11:11,0,0,0,0,0,690,3.6.1,4,231,752,m,554,1175,1920,24,1200,24,117,41,1920,0,odd,MacIntel,brud
100,100,641,trial,Mozilla,Netscape,"5.0 (Macintosh; Intel Mac OS X 10_15_7) AppleWebKit/605.1.15 (KHTML, like Gecko) Version/15.5 Safari/605.1.15",NW,1,m,0,28,28,28-08-22,28-08-22,12:11:11,0,0,0,0,0,690,3.6.1,6,231,752,m,593,1175,1920,24,1200,24,117,41,1920,0,odd,MacIntel,gladge
100,100,638,trial,Mozilla,Netscape,"5.0 (Macintosh; Intel Mac OS X 10_15_7) AppleWebKit/605.1.15 (KHTML, like Gecko) Version/15.5 Safari/605.1.15",Word,1,z,0,29,29,28-08-22,28-08-22,12:11:11,0,0,0,0,0,690,3.6.1,6,231,752,z,546,1175,1920,24,1200,24,117,41,1920,0,odd,MacIntel,thrill
100,100,642,trial,Mozilla,Netscape,"5.0 (Macintosh; Intel Mac OS X 10_15_7) AppleWebKit/605.1.15 (KHTML, like Gecko) Version/15.5 Safari/605.1.15",PH,1,m,0,30,30,28-08-22,28-08-22,12:11:11,0,0,0,0,0,690,3.6.1,5,231,752,m,771,1175,1920,24,1200,24,117,41,1920,0,odd,MacIntel,maise
100,100,653,trial,Mozilla,Netscape,"5.0 (Macintosh; Intel Mac OS X 10_15_7) AppleWebKit/605.1.15 (KHTML, like Gecko) Version/15.5 Safari/605.1.15",PH,1,m,0,31,31,28-08-22,28-08-22,12:11:11,0,0,0,0,0,690,3.6.1,3,231,752,m,986,1175,1920,24,1200,24,117,41,1920,0,odd,MacIntel,rey
100,100,649,trial,Mozilla,Netscape,"5.0 (Macintosh; Intel Mac OS X 10_15_7) AppleWebKit/605.1.15 (KHTML, like Gecko) Version/15.5 Safari/605.1.15",Word,1,z,0,32,32,28-08-22,28-08-22,12:11:11,0,0,0,0,0,690,3.6.1,4,231,752,z,523,1175,1920,24,1200,24,117,41,1920,0,odd,MacIntel,flow
100,100,651,trial,Mozilla,Netscape,"5.0 (Macintosh; Intel Mac OS X 10_15_7) AppleWebKit/605.1.15 (KHTML, like Gecko) Version/15.5 Safari/605.1.15",Word,1,z,0,33,33,28-08-22,28-08-22,12:11:11,0,0,0,0,0,690,3.6.1,6,231,752,z,725,1175,1920,24,1200,24,117,41,1920,0,odd,MacIntel,enigma
100,100,647,trial,Mozilla,Netscape,"5.0 (Macintosh; Intel Mac OS X 10_15_7) AppleWebKit/605.1.15 (KHTML, like Gecko) Version/15.5 Safari/605.1.15",Word,1,z,0,34,34,28-08-22,28-08-22,12:11:11,0,0,0,0,0,690,3.6.1,6,231,752,z,515,1175,1920,24,1200,24,117,41,1920,0,odd,MacIntel,spirit
100,100,646,trial,Mozilla,Netscape,"5.0 (Macintosh; Intel Mac OS X 10_15_7) AppleWebKit/605.1.15 (KHTML, like Gecko) Version/15.5 Safari/605.1.15",PH,1,m,0,35,35,28-08-22,28-08-22,12:11:11,0,0,0,0,0,690,3.6.1,6,231,752,m,626,1175,1920,24,1200,24,117,41,1920,0,odd,MacIntel,dropse
100,100,641,trial,Mozilla,Netscape,"5.0 (Macintosh; Intel Mac OS X 10_15_7) AppleWebKit/605.1.15 (KHTML, like Gecko) Version/15.5 Safari/605.1.15",Word,1,z,0,36,36,28-08-22,28-08-22,12:11:11,0,0,0,0,0,690,3.6.1,3,231,752,z,460,1175,1920,24,1200,24,117,41,1920,0,odd,MacIntel,dog
100,100,644,trial,Mozilla,Netscape,"5.0 (Macintosh; Intel Mac OS X 10_15_7) AppleWebKit/605.1.15 (KHTML, like Gecko) Version/15.5 Safari/605.1.15",PH,1,m,0,37,37,28-08-22,28-08-22,12:11:11,0,0,0,0,0,690,3.6.1,5,231,752,m,736,1175,1920,24,1200,24,117,41,1920,0,odd,MacIntel,medes
100,100,646,trial,Mozilla,Netscape,"5.0 (Macintosh; Intel Mac OS X 10_15_7) AppleWebKit/605.1.15 (KHTML, like Gecko) Version/15.5 Safari/605.1.15",PH,1,m,0,38,38,28-08-22,28-08-22,12:11:11,0,0,0,0,0,690,3.6.1,6,231,752,m,727,1175,1920,24,1200,24,117,41,1920,0,odd,MacIntel,chured
100,100,641,trial,Mozilla,Netscape,"5.0 (Macintosh; Intel Mac OS X 10_15_7) AppleWebKit/605.1.15 (KHTML, like Gecko) Version/15.5 Safari/605.1.15",Word,1,z,0,39,39,28-08-22,28-08-22,12:11:11,0,0,0,0,0,690,3.6.1,6,231,752,z,465,1175,1920,24,1200,24,117,41,1920,0,odd,MacIntel,victim
100,100,639,trial,Mozilla,Netscape,"5.0 (Macintosh; Intel Mac OS X 10_15_7) AppleWebKit/605.1.15 (KHTML, like Gecko) Version/15.5 Safari/605.1.15",PH,1,m,0,40,40,28-08-22,28-08-22,12:11:11,0,0,0,0,0,690,3.6.1,5,231,752,m,559,1175,1920,24,1200,24,117,41,1920,0,odd,MacIntel,phley
100,100,640,trial,Mozilla,Netscape,"5.0 (Macintosh; Intel Mac OS X 10_15_7) AppleWebKit/605.1.15 (KHTML, like Gecko) Version/15.5 Safari/605.1.15",Word,1,z,0,41,41,28-08-22,28-08-22,12:11:11,0,0,0,0,0,690,3.6.1,4,231,752,z,651,1175,1920,24,1200,24,117,41,1920,0,odd,MacIntel,yelp
100,100,637,trial,Mozilla,Netscape,"5.0 (Macintosh; Intel Mac OS X 10_15_7) AppleWebKit/605.1.15 (KHTML, like Gecko) Version/15.5 Safari/605.1.15",Word,1,z,0,42,42,28-08-22,28-08-22,12:11:11,0,0,0,0,0,690,3.6.1,4,231,752,z,518,1175,1920,24,1200,24,117,41,1920,0,odd,MacIntel,miss
100,100,634,trial,Mozilla,Netscape,"5.0 (Macintosh; Intel Mac OS X 10_15_7) AppleWebKit/605.1.15 (KHTML, like Gecko) Version/15.5 Safari/605.1.15",Word,1,z,0,43,43,28-08-22,28-08-22,12:11:11,0,0,0,0,0,690,3.6.1,5,231,752,z,526,1175,1920,24,1200,24,117,41,1920,0,odd,MacIntel,ghost
100,100,635,trial,Mozilla,Netscape,"5.0 (Macintosh; Intel Mac OS X 10_15_7) AppleWebKit/605.1.15 (KHTML, like Gecko) Version/15.5 Safari/605.1.15",Word,1,z,0,44,44,28-08-22,28-08-22,12:11:11,0,0,0,0,0,690,3.6.1,5,231,752,z,653,1175,1920,24,1200,24,117,41,1920,0,odd,MacIntel,brake
100,100,636,trial,Mozilla,Netscape,"5.0 (Macintosh; Intel Mac OS X 10_15_7) AppleWebKit/605.1.15 (KHTML, like Gecko) Version/15.5 Safari/605.1.15",PH,1,m,0,45,45,28-08-22,28-08-22,12:11:11,0,0,0,0,0,690,3.6.1,5,231,752,m,691,1175,1920,24,1200,24,117,41,1920,0,odd,MacIntel,phete
100,100,637,trial,Mozilla,Netscape,"5.0 (Macintosh; Intel Mac OS X 10_15_7) AppleWebKit/605.1.15 (KHTML, like Gecko) Version/15.5 Safari/605.1.15",PH,1,m,0,46,46,28-08-22,28-08-22,12:11:11,0,0,0,0,0,690,3.6.1,7,231,752,m,674,1175,1920,24,1200,24,117,41,1920,0,odd,MacIntel,scoules
100,100,635,trial,Mozilla,Netscape,"5.0 (Macintosh; Intel Mac OS X 10_15_7) AppleWebKit/605.1.15 (KHTML, like Gecko) Version/15.5 Safari/605.1.15",PH,1,m,0,47,47,28-08-22,28-08-22,12:11:11,0,0,0,0,0,690,3.6.1,4,231,752,m,544,1175,1920,24,1200,24,117,41,1920,0,odd,MacIntel,spue
100,100,635,trial,Mozilla,Netscape,"5.0 (Macintosh; Intel Mac OS X 10_15_7) AppleWebKit/605.1.15 (KHTML, like Gecko) Version/15.5 Safari/605.1.15",Word,1,z,0,48,48,28-08-22,28-08-22,12:11:11,0,0,0,0,0,690,3.6.1,3,231,752,z,651,1175,1920,24,1200,24,117,41,1920,0,odd,MacIntel,ram
100,100,635,trial,Mozilla,Netscape,"5.0 (Macintosh; Intel Mac OS X 10_15_7) AppleWebKit/605.1.15 (KHTML, like Gecko) Version/15.5 Safari/605.1.15",NW,1,m,0,49,49,28-08-22,28-08-22,12:11:11,0,0,0,0,0,690,3.6.1,5,231,752,m,640,1175,1920,24,1200,24,117,41,1920,0,odd,MacIntel,cound
100,100,634,trial,Mozilla,Netscape,"5.0 (Macintosh; Intel Mac OS X 10_15_7) AppleWebKit/605.1.15 (KHTML, like Gecko) Version/15.5 Safari/605.1.15",NW,1,m,0,50,50,28-08-22,28-08-22,12:11:11,0,0,0,0,0,690,3.6.1,3,231,752,m,581,1175,1920,24,1200,24,117,41,1920,0,odd,MacIntel,cem
100,100,632,trial,Mozilla,Netscape,"5.0 (Macintosh; Intel Mac OS X 10_15_7) AppleWebKit/605.1.15 (KHTML, like Gecko) Version/15.5 Safari/605.1.15",Word,1,z,0,51,51,28-08-22,28-08-22,12:11:11,0,0,0,0,0,690,3.6.1,6,231,752,z,520,1175,1920,24,1200,24,117,41,1920,0,odd,MacIntel,racket
100,100,630,trial,Mozilla,Netscape,"5.0 (Macintosh; Intel Mac OS X 10_15_7) AppleWebKit/605.1.15 (KHTML, like Gecko) Version/15.5 Safari/605.1.15",PH,1,m,0,52,52,28-08-22,28-08-22,12:11:11,0,0,0,0,0,690,3.6.1,5,231,752,m,530,1175,1920,24,1200,24,117,41,1920,0,odd,MacIntel,stais
100,100,629,trial,Mozilla,Netscape,"5.0 (Macintosh; Intel Mac OS X 10_15_7) AppleWebKit/605.1.15 (KHTML, like Gecko) Version/15.5 Safari/605.1.15",PH,1,m,0,53,53,28-08-22,28-08-22,12:11:11,0,0,0,0,0,690,3.6.1,6,231,752,m,579,1175,1920,24,1200,24,117,41,1920,0,odd,MacIntel,skamps
100,100,627,trial,Mozilla,Netscape,"5.0 (Macintosh; Intel Mac OS X 10_15_7) AppleWebKit/605.1.15 (KHTML, like Gecko) Version/15.5 Safari/605.1.15",Word,1,z,0,54,54,28-08-22,28-08-22,12:11:11,0,0,0,0,0,690,3.6.1,4,231,752,z,491,1175,1920,24,1200,24,117,41,1920,0,odd,MacIntel,mean
100,100,626,trial,Mozilla,Netscape,"5.0 (Macintosh; Intel Mac OS X 10_15_7) AppleWebKit/605.1.15 (KHTML, like Gecko) Version/15.5 Safari/605.1.15",Word,1,z,0,55,55,28-08-22,28-08-22,12:11:11,0,0,0,0,0,690,3.6.1,7,231,752,z,580,1175,1920,24,1200,24,117,41,1920,0,odd,MacIntel,embrace
100,100,624,trial,Mozilla,Netscape,"5.0 (Macintosh; Intel Mac OS X 10_15_7) AppleWebKit/605.1.15 (KHTML, like Gecko) Version/15.5 Safari/605.1.15",Word,1,z,0,56,56,28-08-22,28-08-22,12:11:11,0,0,0,0,0,690,3.6.1,6,231,752,z,522,1175,1920,24,1200,24,117,41,1920,0,odd,MacIntel,square
100,100,624,trial,Mozilla,Netscape,"5.0 (Macintosh; Intel Mac OS X 10_15_7) AppleWebKit/605.1.15 (KHTML, like Gecko) Version/15.5 Safari/605.1.15",PH,1,m,0,57,57,28-08-22,28-08-22,12:11:11,0,0,0,0,0,690,3.6.1,6,231,752,m,634,1175,1920,24,1200,24,117,41,1920,0,odd,MacIntel,fluick
100,100,629,trial,Mozilla,Netscape,"5.0 (Macintosh; Intel Mac OS X 10_15_7) AppleWebKit/605.1.15 (KHTML, like Gecko) Version/15.5 Safari/605.1.15",Word,1,z,0,58,58,28-08-22,28-08-22,12:11:11,0,0,0,0,0,690,3.6.1,5,231,752,z,899,1175,1920,24,1200,24,117,41,1920,0,odd,MacIntel,huzza
100,100,629,trial,Mozilla,Netscape,"5.0 (Macintosh; Intel Mac OS X 10_15_7) AppleWebKit/605.1.15 (KHTML, like Gecko) Version/15.5 Safari/605.1.15",NW,1,m,0,59,59,28-08-22,28-08-22,12:11:11,0,0,0,0,0,690,3.6.1,5,231,752,m,655,1175,1920,24,1200,24,117,41,1920,0,odd,MacIntel,wrurb
100,100,630,trial,Mozilla,Netscape,"5.0 (Macintosh; Intel Mac OS X 10_15_7) AppleWebKit/605.1.15 (KHTML, like Gecko) Version/15.5 Safari/605.1.15",Word,1,z,0,60,60,28-08-22,28-08-22,12:11:11,0,0,0,0,0,690,3.6.1,6,231,752,z,654,1175,1920,24,1200,24,117,41,1920,0,odd,MacIntel,sleigh
100,100,629,trial,Mozilla,Netscape,"5.0 (Macintosh; Intel Mac OS X 10_15_7) AppleWebKit/605.1.15 (KHTML, like Gecko) Version/15.5 Safari/605.1.15",Word,1,z,0,61,61,28-08-22,28-08-22,12:11:11,0,0,0,0,0,690,3.6.1,5,231,752,z,588,1175,1920,24,1200,24,117,41,1920,0,odd,MacIntel,allow
100,100,628,trial,Mozilla,Netscape,"5.0 (Macintosh; Intel Mac OS X 10_15_7) AppleWebKit/605.1.15 (KHTML, like Gecko) Version/15.5 Safari/605.1.15",Word,1,z,0,62,62,28-08-22,28-08-22,12:11:11,0,0,0,0,0,690,3.6.1,7,231,752,z,569,1175,1920,24,1200,24,117,41,1920,0,odd,MacIntel,tarnish
100,100,629,trial,Mozilla,Netscape,"5.0 (Macintosh; Intel Mac OS X 10_15_7) AppleWebKit/605.1.15 (KHTML, like Gecko) Version/15.5 Safari/605.1.15",NW,1,m,0,63,63,28-08-22,28-08-22,12:11:11,0,0,0,0,0,690,3.6.1,7,231,752,m,665,1175,1920,24,1200,24,117,41,1920,0,odd,MacIntel,whurfed
100,100,627,trial,Mozilla,Netscape,"5.0 (Macintosh; Intel Mac OS X 10_15_7) AppleWebKit/605.1.15 (KHTML, like Gecko) Version/15.5 Safari/605.1.15",PH,1,m,0,64,64,28-08-22,28-08-22,12:11:11,0,0,0,0,0,690,3.6.1,5,231,752,m,495,1175,1920,24,1200,24,117,41,1920,0,odd,MacIntel,wurds
100,100,625,trial,Mozilla,Netscape,"5.0 (Macintosh; Intel Mac OS X 10_15_7) AppleWebKit/605.1.15 (KHTML, like Gecko) Version/15.5 Safari/605.1.15",NW,1,m,0,65,65,28-08-22,28-08-22,12:11:11,0,0,0,0,0,690,3.6.1,6,231,752,m,516,1175,1920,24,1200,24,117,41,1920,0,odd,MacIntel,thwams
100,100,624,trial,Mozilla,Netscape,"5.0 (Macintosh; Intel Mac OS X 10_15_7) AppleWebKit/605.1.15 (KHTML, like Gecko) Version/15.5 Safari/605.1.15",NW,1,m,0,66,66,28-08-22,28-08-22,12:11:11,0,0,0,0,0,690,3.6.1,6,231,752,m,562,1175,1920,24,1200,24,117,41,1920,0,odd,MacIntel,nonzed
100,100,622,trial,Mozilla,Netscape,"5.0 (Macintosh; Intel Mac OS X 10_15_7) AppleWebKit/605.1.15 (KHTML, like Gecko) Version/15.5 Safari/605.1.15",NW,1,m,0,67,67,28-08-22,28-08-22,12:11:11,0,0,0,0,0,690,3.6.1,5,231,752,m,481,1175,1920,24,1200,24,117,41,1920,0,odd,MacIntel,chowl
100,100,621,trial,Mozilla,Netscape,"5.0 (Macintosh; Intel Mac OS X 10_15_7) AppleWebKit/605.1.15 (KHTML, like Gecko) Version/15.5 Safari/605.1.15",Word,1,z,0,68,68,28-08-22,28-08-22,12:11:11,0,0,0,0,0,690,3.6.1,5,231,752,z,551,1175,1920,24,1200,24,117,41,1920,0,odd,MacIntel,break
100,100,619,trial,Mozilla,Netscape,"5.0 (Macintosh; Intel Mac OS X 10_15_7) AppleWebKit/605.1.15 (KHTML, like Gecko) Version/15.5 Safari/605.1.15",PH,1,m,0,69,69,28-08-22,28-08-22,12:11:11,0,0,0,0,0,690,3.6.1,4,231,752,m,497,1175,1920,24,1200,24,117,41,1920,0,odd,MacIntel,haks
99,99,619,trial,Mozilla,Netscape,"5.0 (Macintosh; Intel Mac OS X 10_15_7) AppleWebKit/605.1.15 (KHTML, like Gecko) Version/15.5 Safari/605.1.15",Word,0,z,0,70,70,28-08-22,28-08-22,12:11:11,0,0,0,0,0,690,3.6.1,5,231,752,m,583,1175,1920,24,1200,24,117,41,1920,0,odd,MacIntel,wharf
99,99,619,trial,Mozilla,Netscape,"5.0 (Macintosh; Intel Mac OS X 10_15_7) AppleWebKit/605.1.15 (KHTML, like Gecko) Version/15.5 Safari/605.1.15",Word,1,z,0,71,71,28-08-22,28-08-22,12:11:11,0,0,0,0,0,690,3.6.1,6,231,752,z,615,1175,1920,24,1200,24,117,41,1920,0,odd,MacIntel,throat
99,99,619,trial,Mozilla,Netscape,"5.0 (Macintosh; Intel Mac OS X 10_15_7) AppleWebKit/605.1.15 (KHTML, like Gecko) Version/15.5 Safari/605.1.15",NW,1,m,0,72,72,28-08-22,28-08-22,12:11:11,0,0,0,0,0,690,3.6.1,6,231,752,m,626,1175,1920,24,1200,24,117,41,1920,0,odd,MacIntel,fradge
99,99,619,trial,Mozilla,Netscape,"5.0 (Macintosh; Intel Mac OS X 10_15_7) AppleWebKit/605.1.15 (KHTML, like Gecko) Version/15.5 Safari/605.1.15",NW,1,m,0,73,73,28-08-22,28-08-22,12:11:11,0,0,0,0,0,690,3.6.1,5,231,752,m,681,1175,1920,24,1200,24,117,41,1920,0,odd,MacIntel,bince
99,99,619,trial,Mozilla,Netscape,"5.0 (Macintosh; Intel Mac OS X 10_15_7) AppleWebKit/605.1.15 (KHTML, like Gecko) Version/15.5 Safari/605.1.15",Word,1,z,0,74,74,28-08-22,28-08-22,12:11:11,0,0,0,0,0,690,3.6.1,6,231,752,z,556,1175,1920,24,1200,24,117,41,1920,0,odd,MacIntel,salute
99,99,618,trial,Mozilla,Netscape,"5.0 (Macintosh; Intel Mac OS X 10_15_7) AppleWebKit/605.1.15 (KHTML, like Gecko) Version/15.5 Safari/605.1.15",Word,1,z,0,75,75,28-08-22,28-08-22,12:11:11,0,0,0,0,0,690,3.6.1,4,231,752,z,544,1175,1920,24,1200,24,117,41,1920,0,odd,MacIntel,star
99,99,615,trial,Mozilla,Netscape,"5.0 (Macintosh; Intel Mac OS X 10_15_7) AppleWebKit/605.1.15 (KHTML, like Gecko) Version/15.5 Safari/605.1.15",Word,1,z,0,76,76,28-08-22,28-08-22,12:11:11,0,0,0,0,0,690,3.6.1,4,231,752,z,436,1175,1920,24,1200,24,117,41,1920,0,odd,MacIntel,turn
97,97,622,trial,Mozilla,Netscape,"5.0 (Macintosh; Intel Mac OS X 10_15_7) AppleWebKit/605.1.15 (KHTML, like Gecko) Version/15.5 Safari/605.1.15",PH,0,m,0,77,77,28-08-22,28-08-22,12:11:11,0,0,0,0,0,690,3.6.1,6,231,752,z,1113,1175,1920,24,1200,24,117,41,1920,0,odd,MacIntel,pleets
97,97,623,trial,Mozilla,Netscape,"5.0 (Macintosh; Intel Mac OS X 10_15_7) AppleWebKit/605.1.15 (KHTML, like Gecko) Version/15.5 Safari/605.1.15",Word,1,z,0,78,78,28-08-22,28-08-22,12:11:11,0,0,0,0,0,690,3.6.1,6,231,752,z,752,1175,1920,24,1200,24,117,41,1920,0,odd,MacIntel,supper
98,98,623,trial,Mozilla,Netscape,"5.0 (Macintosh; Intel Mac OS X 10_15_7) AppleWebKit/605.1.15 (KHTML, like Gecko) Version/15.5 Safari/605.1.15",NW,1,m,0,79,79,28-08-22,28-08-22,12:11:11,0,0,0,0,0,690,3.6.1,7,231,752,m,569,1175,1920,24,1200,24,117,41,1920,0,odd,MacIntel,thwilms
98,98,624,trial,Mozilla,Netscape,"5.0 (Macintosh; Intel Mac OS X 10_15_7) AppleWebKit/605.1.15 (KHTML, like Gecko) Version/15.5 Safari/605.1.15",NW,1,m,0,80,80,28-08-22,28-08-22,12:11:11,0,0,0,0,0,690,3.6.1,6,231,752,m,706,1175,1920,24,1200,24,117,41,1920,0,odd,MacIntel,sturds
96,96,631,trial,Mozilla,Netscape,"5.0 (Macintosh; Intel Mac OS X 10_15_7) AppleWebKit/605.1.15 (KHTML, like Gecko) Version/15.5 Safari/605.1.15",Word,0,z,0,81,81,28-08-22,28-08-22,12:11:11,0,0,0,0,0,690,3.6.1,6,231,752,m,1250,1175,1920,24,1200,24,117,41,1920,0,odd,MacIntel,cuttle
96,96,634,trial,Mozilla,Netscape,"5.0 (Macintosh; Intel Mac OS X 10_15_7) AppleWebKit/605.1.15 (KHTML, like Gecko) Version/15.5 Safari/605.1.15",PH,1,m,0,82,82,28-08-22,28-08-22,12:11:11,0,0,0,0,0,690,3.6.1,6,231,752,m,848,1175,1920,24,1200,24,117,41,1920,0,odd,MacIntel,rhaque
96,96,634,trial,Mozilla,Netscape,"5.0 (Macintosh; Intel Mac OS X 10_15_7) AppleWebKit/605.1.15 (KHTML, like Gecko) Version/15.5 Safari/605.1.15",Word,1,z,0,83,83,28-08-22,28-08-22,12:11:11,0,0,0,0,0,690,3.6.1,6,231,752,z,616,1175,1920,24,1200,24,117,41,1920,0,odd,MacIntel,ginger
96,96,634,trial,Mozilla,Netscape,"5.0 (Macintosh; Intel Mac OS X 10_15_7) AppleWebKit/605.1.15 (KHTML, like Gecko) Version/15.5 Safari/605.1.15",NW,1,m,0,84,84,28-08-22,28-08-22,12:11:11,0,0,0,0,0,690,3.6.1,6,231,752,m,675,1175,1920,24,1200,24,117,41,1920,0,odd,MacIntel,snafes
97,97,634,trial,Mozilla,Netscape,"5.0 (Macintosh; Intel Mac OS X 10_15_7) AppleWebKit/605.1.15 (KHTML, like Gecko) Version/15.5 Safari/605.1.15",Word,1,z,0,85,85,28-08-22,28-08-22,12:11:11,0,0,0,0,0,690,3.6.1,7,231,752,z,606,1175,1920,24,1200,24,117,41,1920,0,odd,MacIntel,ceiling
97,97,634,trial,Mozilla,Netscape,"5.0 (Macintosh; Intel Mac OS X 10_15_7) AppleWebKit/605.1.15 (KHTML, like Gecko) Version/15.5 Safari/605.1.15",NW,1,m,0,86,86,28-08-22,28-08-22,12:11:11,0,0,0,0,0,690,3.6.1,4,231,752,m,622,1175,1920,24,1200,24,117,41,1920,0,odd,MacIntel,kirm
97,97,633,trial,Mozilla,Netscape,"5.0 (Macintosh; Intel Mac OS X 10_15_7) AppleWebKit/605.1.15 (KHTML, like Gecko) Version/15.5 Safari/605.1.15",Word,1,z,0,87,87,28-08-22,28-08-22,12:11:11,0,0,0,0,0,690,3.6.1,6,231,752,z,587,1175,1920,24,1200,24,117,41,1920,0,odd,MacIntel,chapel
97,97,632,trial,Mozilla,Netscape,"5.0 (Macintosh; Intel Mac OS X 10_15_7) AppleWebKit/605.1.15 (KHTML, like Gecko) Version/15.5 Safari/605.1.15",NW,1,m,0,88,88,28-08-22,28-08-22,12:11:11,0,0,0,0,0,690,3.6.1,3,231,752,m,552,1175,1920,24,1200,24,117,41,1920,0,odd,MacIntel,dod
97,97,632,trial,Mozilla,Netscape,"5.0 (Macintosh; Intel Mac OS X 10_15_7) AppleWebKit/605.1.15 (KHTML, like Gecko) Version/15.5 Safari/605.1.15",NW,1,m,0,89,89,28-08-22,28-08-22,12:11:11,0,0,0,0,0,690,3.6.1,5,231,752,m,590,1175,1920,24,1200,24,117,41,1920,0,odd,MacIntel,psime
97,97,631,trial,Mozilla,Netscape,"5.0 (Macintosh; Intel Mac OS X 10_15_7) AppleWebKit/605.1.15 (KHTML, like Gecko) Version/15.5 Safari/605.1.15",PH,1,m,0,90,90,28-08-22,28-08-22,12:11:11,0,0,0,0,0,690,3.6.1,6,231,752,m,527,1175,1920,24,1200,24,117,41,1920,0,odd,MacIntel,grambs
97,97,629,trial,Mozilla,Netscape,"5.0 (Macintosh; Intel Mac OS X 10_15_7) AppleWebKit/605.1.15 (KHTML, like Gecko) Version/15.5 Safari/605.1.15",NW,1,m,0,91,91,28-08-22,28-08-22,12:11:11,0,0,0,0,0,690,3.6.1,4,231,752,m,471,1175,1920,24,1200,24,117,41,1920,0,odd,MacIntel,twom
97,97,628,trial,Mozilla,Netscape,"5.0 (Macintosh; Intel Mac OS X 10_15_7) AppleWebKit/605.1.15 (KHTML, like Gecko) Version/15.5 Safari/605.1.15",NW,1,m,0,92,92,28-08-22,28-08-22,12:11:11,0,0,0,0,0,690,3.6.1,6,231,752,m,505,1175,1920,24,1200,24,117,41,1920,0,odd,MacIntel,trynes
97,97,627,trial,Mozilla,Netscape,"5.0 (Macintosh; Intel Mac OS X 10_15_7) AppleWebKit/605.1.15 (KHTML, like Gecko) Version/15.5 Safari/605.1.15",Word,1,z,0,93,93,28-08-22,28-08-22,12:11:11,0,0,0,0,0,690,3.6.1,6,231,752,z,534,1175,1920,24,1200,24,117,41,1920,0,odd,MacIntel,punish
97,97,625,trial,Mozilla,Netscape,"5.0 (Macintosh; Intel Mac OS X 10_15_7) AppleWebKit/605.1.15 (KHTML, like Gecko) Version/15.5 Safari/605.1.15",Word,1,z,0,94,94,28-08-22,28-08-22,12:11:11,0,0,0,0,0,690,3.6.1,6,231,752,z,470,1175,1920,24,1200,24,117,41,1920,0,odd,MacIntel,camera
97,97,625,trial,Mozilla,Netscape,"5.0 (Macintosh; Intel Mac OS X 10_15_7) AppleWebKit/605.1.15 (KHTML, like Gecko) Version/15.5 Safari/605.1.15",Word,1,z,0,95,95,28-08-22,28-08-22,12:11:11,0,0,0,0,0,690,3.6.1,7,231,752,z,667,1175,1920,24,1200,24,117,41,1920,0,odd,MacIntel,chuckle
97,97,625,trial,Mozilla,Netscape,"5.0 (Macintosh; Intel Mac OS X 10_15_7) AppleWebKit/605.1.15 (KHTML, like Gecko) Version/15.5 Safari/605.1.15",PH,1,m,0,96,96,28-08-22,28-08-22,12:11:11,0,0,0,0,0,690,3.6.1,4,231,752,m,610,1175,1920,24,1200,24,117,41,1920,0,odd,MacIntel,fite
97,97,625,trial,Mozilla,Netscape,"5.0 (Macintosh; Intel Mac OS X 10_15_7) AppleWebKit/605.1.15 (KHTML, like Gecko) Version/15.5 Safari/605.1.15",Word,1,z,0,97,97,28-08-22,28-08-22,12:11:11,0,0,0,0,0,690,3.6.1,3,231,752,z,614,1175,1920,24,1200,24,117,41,1920,0,odd,MacIntel,leg
97,97,624,trial,Mozilla,Netscape,"5.0 (Macintosh; Intel Mac OS X 10_15_7) AppleWebKit/605.1.15 (KHTML, like Gecko) Version/15.5 Safari/605.1.15",NW,1,m,0,98,98,28-08-22,28-08-22,12:11:11,0,0,0,0,0,690,3.6.1,5,231,752,m,552,1175,1920,24,1200,24,117,41,1920,0,odd,MacIntel,fumps
97,97,625,trial,Mozilla,Netscape,"5.0 (Macintosh; Intel Mac OS X 10_15_7) AppleWebKit/605.1.15 (KHTML, like Gecko) Version/15.5 Safari/605.1.15",PH,1,m,0,99,99,28-08-22,28-08-22,12:11:11,0,0,0,0,0,690,3.6.1,7,231,752,m,655,1175,1920,24,1200,24,117,41,1920,0,odd,MacIntel,ghoards
100,100,1646,trial,Mozilla,Netscape,"5.0 (Macintosh; Intel Mac OS X 10_15_7) AppleWebKit/605.1.15 (KHTML, like Gecko) Version/15.5 Safari/605.1.15",NW,1,m,0,99,99,28-08-22,28-08-22,12:11:11,0,0,0,0,0,690,3.6.1,5,231,752,m,1646,1175,1920,24,1200,24,117,41,1920,0,odd,MacIntel,dunds
100,100,1063,trial,Mozilla,Netscape,"5.0 (Macintosh; Intel Mac OS X 10_15_7) AppleWebKit/605.1.15 (KHTML, like Gecko) Version/15.5 Safari/605.1.15",PH,1,m,0,99,99,28-08-22,28-08-22,12:11:11,0,0,0,0,0,690,3.6.1,5,231,752,m,480,1175,1920,24,1200,24,117,41,1920,0,odd,MacIntel,wurnt
100,100,872,trial,Mozilla,Netscape,"5.0 (Macintosh; Intel Mac OS X 10_15_7) AppleWebKit/605.1.15 (KHTML, like Gecko) Version/15.5 Safari/605.1.15",Word,1,z,0,99,99,28-08-22,28-08-22,12:11:11,0,0,0,0,0,690,3.6.1,4,231,752,m,489,1175,1920,24,1200,24,117,41,1920,0,odd,MacIntel,blow
100,100,798,trial,Mozilla,Netscape,"5.0 (Macintosh; Intel Mac OS X 10_15_7) AppleWebKit/605.1.15 (KHTML, like Gecko) Version/15.5 Safari/605.1.15",Word,1,z,0,99,99,28-08-22,28-08-22,12:11:11,0,0,0,0,0,690,3.6.1,6,231,752,m,578,1175,1920,24,1200,24,117,41,1920,0,odd,MacIntel,frenzy
100,100,728,trial,Mozilla,Netscape,"5.0 (Macintosh; Intel Mac OS X 10_15_7) AppleWebKit/605.1.15 (KHTML, like Gecko) Version/15.5 Safari/605.1.15",Word,1,z,0,99,99,28-08-22,28-08-22,12:11:11,0,0,0,0,0,690,3.6.1,5,231,752,m,448,1175,1920,24,1200,24,117,41,1920,0,odd,MacIntel,patch
100,100,688,trial,Mozilla,Netscape,"5.0 (Macintosh; Intel Mac OS X 10_15_7) AppleWebKit/605.1.15 (KHTML, like Gecko) Version/15.5 Safari/605.1.15",NW,1,m,0,99,99,28-08-22,28-08-22,12:11:11,0,0,0,0,0,690,3.6.1,4,231,752,m,485,1175,1920,24,1200,24,117,41,1920,0,odd,MacIntel,dwut
100,100,668,trial,Mozilla,Netscape,"5.0 (Macintosh; Intel Mac OS X 10_15_7) AppleWebKit/605.1.15 (KHTML, like Gecko) Version/15.5 Safari/605.1.15",NW,1,m,0,99,99,28-08-22,28-08-22,12:11:11,0,0,0,0,0,690,3.6.1,6,231,752,m,552,1175,1920,24,1200,24,117,41,1920,0,odd,MacIntel,threbs
100,100,655,trial,Mozilla,Netscape,"5.0 (Macintosh; Intel Mac OS X 10_15_7) AppleWebKit/605.1.15 (KHTML, like Gecko) Version/15.5 Safari/605.1.15",PH,1,m,0,99,99,28-08-22,28-08-22,12:11:11,0,0,0,0,0,690,3.6.1,7,231,752,m,559,1175,1920,24,1200,24,117,41,1920,0,odd,MacIntel,ghoasts
100,100,648,trial,Mozilla,Netscape,"5.0 (Macintosh; Intel Mac OS X 10_15_7) AppleWebKit/605.1.15 (KHTML, like Gecko) Version/15.5 Safari/605.1.15",NW,1,m,0,99,99,28-08-22,28-08-22,12:11:11,0,0,0,0,0,690,3.6.1,4,231,752,m,593,1175,1920,24,1200,24,117,41,1920,0,odd,MacIntel,rurk
100,100,644,trial,Mozilla,Netscape,"5.0 (Macintosh; Intel Mac OS X 10_15_7) AppleWebKit/605.1.15 (KHTML, like Gecko) Version/15.5 Safari/605.1.15",Word,1,z,0,99,99,28-08-22,28-08-22,12:11:11,0,0,0,0,0,690,3.6.1,4,231,752,m,608,1175,1920,24,1200,24,117,41,1920,0,odd,MacIntel,wary
100,100,631,trial,Mozilla,Netscape,"5.0 (Macintosh; Intel Mac OS X 10_15_7) AppleWebKit/605.1.15 (KHTML, like Gecko) Version/15.5 Safari/605.1.15",PH,1,m,0,99,99,28-08-22,28-08-22,12:11:11,0,0,0,0,0,690,3.6.1,6,231,752,m,506,1175,1920,24,1200,24,117,41,1920,0,odd,MacIntel,wroons
100,100,624,trial,Mozilla,Netscape,"5.0 (Macintosh; Intel Mac OS X 10_15_7) AppleWebKit/605.1.15 (KHTML, like Gecko) Version/15.5 Safari/605.1.15",PH,1,m,0,99,99,28-08-22,28-08-22,12:11:11,0,0,0,0,0,690,3.6.1,4,231,752,m,544,1175,1920,24,1200,24,117,41,1920,0,odd,MacIntel,hepe
100,100,626,trial,Mozilla,Netscape,"5.0 (Macintosh; Intel Mac OS X 10_15_7) AppleWebKit/605.1.15 (KHTML, like Gecko) Version/15.5 Safari/605.1.15",NW,1,m,0,99,99,28-08-22,28-08-22,12:11:11,0,0,0,0,0,690,3.6.1,6,231,752,m,649,1175,1920,24,1200,24,117,41,1920,0,odd,MacIntel,wralph
100,100,615,trial,Mozilla,Netscape,"5.0 (Macintosh; Intel Mac OS X 10_15_7) AppleWebKit/605.1.15 (KHTML, like Gecko) Version/15.5 Safari/605.1.15",PH,1,m,0,99,99,28-08-22,28-08-22,12:11:11,0,0,0,0,0,690,3.6.1,5,231,752,m,479,1175,1920,24,1200,24,117,41,1920,0,odd,MacIntel,rheed
100,100,606,trial,Mozilla,Netscape,"5.0 (Macintosh; Intel Mac OS X 10_15_7) AppleWebKit/605.1.15 (KHTML, like Gecko) Version/15.5 Safari/605.1.15",NW,1,m,0,99,99,28-08-22,28-08-22,12:11:11,0,0,0,0,0,690,3.6.1,3,231,752,m,474,1175,1920,24,1200,24,117,41,1920,0,odd,MacIntel,erb
100,100,599,trial,Mozilla,Netscape,"5.0 (Macintosh; Intel Mac OS X 10_15_7) AppleWebKit/605.1.15 (KHTML, like Gecko) Version/15.5 Safari/605.1.15",NW,1,m,0,99,99,28-08-22,28-08-22,12:11:11,0,0,0,0,0,690,3.6.1,6,231,752,m,487,1175,1920,24,1200,24,117,41,1920,0,odd,MacIntel,thwups
100,100,593,trial,Mozilla,Netscape,"5.0 (Macintosh; Intel Mac OS X 10_15_7) AppleWebKit/605.1.15 (KHTML, like Gecko) Version/15.5 Safari/605.1.15",PH,1,m,0,99,99,28-08-22,28-08-22,12:11:11,0,0,0,0,0,690,3.6.1,5,231,752,m,504,1175,1920,24,1200,24,117,41,1920,0,odd,MacIntel,cuild
100,100,593,trial,Mozilla,Netscape,"5.0 (Macintosh; Intel Mac OS X 10_15_7) AppleWebKit/605.1.15 (KHTML, like Gecko) Version/15.5 Safari/605.1.15",NW,1,m,0,99,99,28-08-22,28-08-22,12:11:11,0,0,0,0,0,690,3.6.1,6,231,752,m,588,1175,1920,24,1200,24,117,41,1920,0,odd,MacIntel,sluped
100,100,593,trial,Mozilla,Netscape,"5.0 (Macintosh; Intel Mac OS X 10_15_7) AppleWebKit/605.1.15 (KHTML, like Gecko) Version/15.5 Safari/605.1.15",Word,1,z,0,99,99,28-08-22,28-08-22,12:11:11,0,0,0,0,0,690,3.6.1,5,231,752,m,600,1175,1920,24,1200,24,117,41,1920,0,odd,MacIntel,audit
100,100,596,trial,Mozilla,Netscape,"5.0 (Macintosh; Intel Mac OS X 10_15_7) AppleWebKit/605.1.15 (KHTML, like Gecko) Version/15.5 Safari/605.1.15",Word,1,z,0,99,99,28-08-22,28-08-22,12:11:11,0,0,0,0,0,690,3.6.1,7,231,752,m,658,1175,1920,24,1200,24,117,41,1920,0,odd,MacIntel,arbiter
100,100,597,trial,Mozilla,Netscape,"5.0 (Macintosh; Intel Mac OS X 10_15_7) AppleWebKit/605.1.15 (KHTML, like Gecko) Version/15.5 Safari/605.1.15",Word,1,z,0,99,99,28-08-22,28-08-22,12:11:11,0,0,0,0,0,690,3.6.1,6,231,752,m,606,1175,1920,24,1200,24,117,41,1920,0,odd,MacIntel,starch
100,100,595,trial,Mozilla,Netscape,"5.0 (Macintosh; Intel Mac OS X 10_15_7) AppleWebKit/605.1.15 (KHTML, like Gecko) Version/15.5 Safari/605.1.15",PH,1,m,0,99,99,28-08-22,28-08-22,12:11:11,0,0,0,0,0,690,3.6.1,3,231,752,m,546,1175,1920,24,1200,24,117,41,1920,0,odd,MacIntel,oad
100,100,592,trial,Mozilla,Netscape,"5.0 (Macintosh; Intel Mac OS X 10_15_7) AppleWebKit/605.1.15 (KHTML, like Gecko) Version/15.5 Safari/605.1.15",Word,1,z,0,99,99,28-08-22,28-08-22,12:11:11,0,0,0,0,0,690,3.6.1,5,231,752,m,534,1175,1920,24,1200,24,117,41,1920,0,odd,MacIntel,dusty
100,100,593,trial,Mozilla,Netscape,"5.0 (Macintosh; Intel Mac OS X 10_15_7) AppleWebKit/605.1.15 (KHTML, like Gecko) Version/15.5 Safari/605.1.15",PH,1,m,0,99,99,28-08-22,28-08-22,12:11:11,0,0,0,0,0,690,3.6.1,7,231,752,m,617,1175,1920,24,1200,24,117,41,1920,0,odd,MacIntel,ghaffed
100,100,591,trial,Mozilla,Netscape,"5.0 (Macintosh; Intel Mac OS X 10_15_7) AppleWebKit/605.1.15 (KHTML, like Gecko) Version/15.5 Safari/605.1.15",Word,1,z,0,99,99,28-08-22,28-08-22,12:11:11,0,0,0,0,0,690,3.6.1,6,231,752,m,551,1175,1920,24,1200,24,117,41,1920,0,odd,MacIntel,breath
100,100,588,trial,Mozilla,Netscape,"5.0 (Macintosh; Intel Mac OS X 10_15_7) AppleWebKit/605.1.15 (KHTML, like Gecko) Version/15.5 Safari/605.1.15",PH,1,m,0,99,99,28-08-22,28-08-22,12:11:11,0,0,0,0,0,690,3.6.1,6,231,752,m,513,1175,1920,24,1200,24,117,41,1920,0,odd,MacIntel,chaist
100,100,586,trial,Mozilla,Netscape,"5.0 (Macintosh; Intel Mac OS X 10_15_7) AppleWebKit/605.1.15 (KHTML, like Gecko) Version/15.5 Safari/605.1.15",Word,1,z,0,99,99,28-08-22,28-08-22,12:11:11,0,0,0,0,0,690,3.6.1,6,231,752,m,522,1175,1920,24,1200,24,117,41,1920,0,odd,MacIntel,puddle
100,100,588,trial,Mozilla,Netscape,"5.0 (Macintosh; Intel Mac OS X 10_15_7) AppleWebKit/605.1.15 (KHTML, like Gecko) Version/15.5 Safari/605.1.15",NW,1,m,0,99,99,28-08-22,28-08-22,12:11:11,0,0,0,0,0,690,3.6.1,5,231,752,m,648,1175,1920,24,1200,24,117,41,1920,0,odd,MacIntel,pilms
100,100,585,trial,Mozilla,Netscape,"5.0 (Macintosh; Intel Mac OS X 10_15_7) AppleWebKit/605.1.15 (KHTML, like Gecko) Version/15.5 Safari/605.1.15",Word,1,z,0,99,99,28-08-22,28-08-22,12:11:11,0,0,0,0,0,690,3.6.1,6,231,752,m,501,1175,1920,24,1200,24,117,41,1920,0,odd,MacIntel,planet
100,100,583,trial,Mozilla,Netscape,"5.0 (Macintosh; Intel Mac OS X 10_15_7) AppleWebKit/605.1.15 (KHTML, like Gecko) Version/15.5 Safari/605.1.15",Word,1,z,0,99,99,28-08-22,28-08-22,12:11:11,0,0,0,0,0,690,3.6.1,5,231,752,m,515,1175,1920,24,1200,24,117,41,1920,0,odd,MacIntel,wrack
100,100,585,trial,Mozilla,Netscape,"5.0 (Macintosh; Intel Mac OS X 10_15_7) AppleWebKit/605.1.15 (KHTML, like Gecko) Version/15.5 Safari/605.1.15",Word,1,z,0,99,99,28-08-22,28-08-22,12:11:11,0,0,0,0,0,690,3.6.1,4,231,752,m,640,1175,1920,24,1200,24,117,41,1920,0,odd,MacIntel,camp
100,100,589,trial,Mozilla,Netscape,"5.0 (Macintosh; Intel Mac OS X 10_15_7) AppleWebKit/605.1.15 (KHTML, like Gecko) Version/15.5 Safari/605.1.15",NW,1,m,0,99,99,28-08-22,28-08-22,12:11:11,0,0,0,0,0,690,3.6.1,5,231,752,m,731,1175,1920,24,1200,24,117,41,1920,0,odd,MacIntel,waffs
100,100,590,trial,Mozilla,Netscape,"5.0 (Macintosh; Intel Mac OS X 10_15_7) AppleWebKit/605.1.15 (KHTML, like Gecko) Version/15.5 Safari/605.1.15",Word,1,z,0,99,99,28-08-22,28-08-22,12:11:11,0,0,0,0,0,690,3.6.1,5,231,752,m,608,1175,1920,24,1200,24,117,41,1920,0,odd,MacIntel,scare
100,100,589,trial,Mozilla,Netscape,"5.0 (Macintosh; Intel Mac OS X 10_15_7) AppleWebKit/605.1.15 (KHTML, like Gecko) Version/15.5 Safari/605.1.15",PH,1,m,0,99,99,28-08-22,28-08-22,12:11:11,0,0,0,0,0,690,3.6.1,4,231,752,m,581,1175,1920,24,1200,24,117,41,1920,0,odd,MacIntel,berd
100,100,588,trial,Mozilla,Netscape,"5.0 (Macintosh; Intel Mac OS X 10_15_7) AppleWebKit/605.1.15 (KHTML, like Gecko) Version/15.5 Safari/605.1.15",Word,1,z,0,99,99,28-08-22,28-08-22,12:11:11,0,0,0,0,0,690,3.6.1,5,231,752,m,552,1175,1920,24,1200,24,117,41,1920,0,odd,MacIntel,order
97,97,588,trial,Mozilla,Netscape,"5.0 (Macintosh; Intel Mac OS X 10_15_7) AppleWebKit/605.1.15 (KHTML, like Gecko) Version/15.5 Safari/605.1.15",Word,0,z,0,99,99,28-08-22,28-08-22,12:11:11,0,0,0,0,0,690,3.6.1,4,231,752,m,568,1175,1920,24,1200,24,117,41,1920,0,odd,MacIntel,fane
97,97,591,trial,Mozilla,Netscape,"5.0 (Macintosh; Intel Mac OS X 10_15_7) AppleWebKit/605.1.15 (KHTML, like Gecko) Version/15.5 Safari/605.1.15",NW,1,m,0,99,99,28-08-22,28-08-22,12:11:11,0,0,0,0,0,690,3.6.1,6,231,752,m,689,1175,1920,24,1200,24,117,41,1920,0,odd,MacIntel,plolks
97,97,592,trial,Mozilla,Netscape,"5.0 (Macintosh; Intel Mac OS X 10_15_7) AppleWebKit/605.1.15 (KHTML, like Gecko) Version/15.5 Safari/605.1.15",Word,1,z,0,99,99,28-08-22,28-08-22,12:11:11,0,0,0,0,0,690,3.6.1,3,231,752,m,647,1175,1920,24,1200,24,117,41,1920,0,odd,MacIntel,rib
97,97,594,trial,Mozilla,Netscape,"5.0 (Macintosh; Intel Mac OS X 10_15_7) AppleWebKit/605.1.15 (KHTML, like Gecko) Version/15.5 Safari/605.1.15",PH,1,m,0,99,99,28-08-22,28-08-22,12:11:11,0,0,0,0,0,690,3.6.1,5,231,752,m,673,1175,1920,24,1200,24,117,41,1920,0,odd,MacIntel,gnone
98,98,598,trial,Mozilla,Netscape,"5.0 (Macintosh; Intel Mac OS X 10_15_7) AppleWebKit/605.1.15 (KHTML, like Gecko) Version/15.5 Safari/605.1.15",Word,1,z,0,99,99,28-08-22,28-08-22,12:11:11,0,0,0,0,0,690,3.6.1,4,231,752,m,761,1175,1920,24,1200,24,117,41,1920,0,odd,MacIntel,welt
98,98,598,trial,Mozilla,Netscape,"5.0 (Macintosh; Intel Mac OS X 10_15_7) AppleWebKit/605.1.15 (KHTML, like Gecko) Version/15.5 Safari/605.1.15",Word,1,z,0,99,99,28-08-22,28-08-22,12:11:11,0,0,0,0,0,690,3.6.1,5,231,752,m,592,1175,1920,24,1200,24,117,41,1920,0,odd,MacIntel,linen
98,98,596,trial,Mozilla,Netscape,"5.0 (Macintosh; Intel Mac OS X 10_15_7) AppleWebKit/605.1.15 (KHTML, like Gecko) Version/15.5 Safari/605.1.15",Word,1,z,0,99,99,28-08-22,28-08-22,12:11:11,0,0,0,0,0,690,3.6.1,4,231,752,m,522,1175,1920,24,1200,24,117,41,1920,0,odd,MacIntel,vain
98,98,597,trial,Mozilla,Netscape,"5.0 (Macintosh; Intel Mac OS X 10_15_7) AppleWebKit/605.1.15 (KHTML, like Gecko) Version/15.5 Safari/605.1.15",PH,1,m,0,99,99,28-08-22,28-08-22,12:11:11,0,0,0,0,0,690,3.6.1,6,231,752,m,639,1175,1920,24,1200,24,117,41,1920,0,odd,MacIntel,whefts
98,98,598,trial,Mozilla,Netscape,"5.0 (Macintosh; Intel Mac OS X 10_15_7) AppleWebKit/605.1.15 (KHTML, like Gecko) Version/15.5 Safari/605.1.15",Word,1,z,0,99,99,28-08-22,28-08-22,12:11:11,0,0,0,0,0,690,3.6.1,7,231,752,m,628,1175,1920,24,1200,24,117,41,1920,0,odd,MacIntel,measure
98,98,596,trial,Mozilla,Netscape,"5.0 (Macintosh; Intel Mac OS X 10_15_7) AppleWebKit/605.1.15 (KHTML, like Gecko) Version/15.5 Safari/605.1.15",Word,1,z,0,99,99,28-08-22,28-08-22,12:11:11,0,0,0,0,0,690,3.6.1,4,231,752,m,509,1175,1920,24,1200,24,117,41,1920,0,odd,MacIntel,them
98,98,596,trial,Mozilla,Netscape,"5.0 (Macintosh; Intel Mac OS X 10_15_7) AppleWebKit/605.1.15 (KHTML, like Gecko) Version/15.5 Safari/605.1.15",Word,1,z,0,99,99,28-08-22,28-08-22,12:11:11,0,0,0,0,0,690,3.6.1,6,231,752,m,582,1175,1920,24,1200,24,117,41,1920,0,odd,MacIntel,neuter
98,98,594,trial,Mozilla,Netscape,"5.0 (Macintosh; Intel Mac OS X 10_15_7) AppleWebKit/605.1.15 (KHTML, like Gecko) Version/15.5 Safari/605.1.15",Word,1,z,0,99,99,28-08-22,28-08-22,12:11:11,0,0,0,0,0,690,3.6.1,6,231,752,m,516,1175,1920,24,1200,24,117,41,1920,0,odd,MacIntel,beauty
98,98,597,trial,Mozilla,Netscape,"5.0 (Macintosh; Intel Mac OS X 10_15_7) AppleWebKit/605.1.15 (KHTML, like Gecko) Version/15.5 Safari/605.1.15",PH,1,m,0,99,99,28-08-22,28-08-22,12:11:11,0,0,0,0,0,690,3.6.1,6,231,752,m,717,1175,1920,24,1200,24,117,41,1920,0,odd,MacIntel,scadds
98,98,596,trial,Mozilla,Netscape,"5.0 (Macintosh; Intel Mac OS X 10_15_7) AppleWebKit/605.1.15 (KHTML, like Gecko) Version/15.5 Safari/605.1.15",Word,1,z,0,99,99,28-08-22,28-08-22,12:11:11,0,0,0,0,0,690,3.6.1,5,231,752,m,592,1175,1920,24,1200,24,117,41,1920,0,odd,MacIntel,pupil
